frame_id,timestamp_ms,nose_x,nose_y,nose_conf,left_eye_x,left_eye_y,left_eye_conf,right_eye_x,right_eye_y,right_eye_conf,left_ear_x,left_ear_y,left_ear_conf,right_ear_x,right_ear_y,right_ear_conf,left_shoulder_x,left_shoulder_y,left_shoulder_conf,right_shoulder_x,right_shoulder_y,right_shoulder_conf,left_elbow_x,left_elbow_y,left_elbow_conf,right_elbow_x,right_elbow_y,right_elbow_conf,left_wrist_x,left_wrist_y,left_wrist_conf,right_wrist_x,right_wrist_y,right_wrist_conf,left_hip_x,left_hip_y,left_hip_conf,right_hip_x,right_hip_y,right_hip_conf,left_knee_x,left_knee_y,left_knee_conf,right_knee_x,right_knee_y,right_knee_conf,left_ankle_x,left_ankle_y,left_ankle_conf,right_ankle_x,right_ankle_y,right_ankle_conf,acc_x,acc_y,acc_z,acc_mag
0,0.0,552.83246,106.14148,0.958742,556.9121,101.661575,0.9557834,551.29675,103.17116,0.7419238,568.86255,101.939606,0.9304875,554.66895,104.80931,0.32485947,581.72205,120.423004,0.9959351,560.78253,123.648056,0.97533536,585.033,147.37634,0.9882882,555.0808,147.3824,0.85810626,556.43835,164.91103,0.9783012,544.8228,161.82413,0.8499488,577.28406,169.08661,0.9908296,563.6981,166.83926,0.97675973,535.6427,179.18513,0.98029363,525.4521,178.03998,0.9493897,539.64856,224.19931,0.92717606,537.1791,220.52853,0.8777716,0.98676712,-0.32523456,0.91232716,-0.1886557
1,33.333333333333336,552.6185,106.10764,0.95888984,556.7307,101.652725,0.9563303,551.0604,103.1263,0.74147826,568.74854,102.081375,0.9315444,554.4348,104.87665,0.323719,581.5201,120.70183,0.9959984,560.6785,123.8609,0.9751882,584.75354,147.55176,0.98842317,555.09326,147.581,0.85607696,556.46045,164.9524,0.97838986,544.5618,161.93674,0.8480058,577.1948,169.2695,0.99098444,563.6499,166.99167,0.97691125,535.8721,179.23276,0.98076755,525.4354,177.95978,0.95012766,539.77454,224.11043,0.9292431,537.0217,220.28844,0.88046837,0.99054208,-0.33014747,0.91330974,-0.19504248
2,66.66666666666667,552.3155,106.1026,0.9594687,556.45325,101.65414,0.9570269,550.80334,103.142876,0.7435341,568.6442,102.17168,0.93204397,554.25354,105.00479,0.32222608,581.419,120.85623,0.9960074,560.4863,124.10159,0.97507054,584.6416,147.66695,0.98842597,554.73645,147.86188,0.85515624,556.747,164.99017,0.9784199,544.4558,161.96768,0.84735805,577.0918,169.26413,0.9908606,563.4747,167.04907,0.9765212,536.03937,179.38388,0.98036706,525.51917,178.25209,0.9489879,539.96094,224.1984,0.9274087,537.0209,220.55017,0.8773075,0.99612561,-0.33751683,0.91502926,-0.20265749
3,100.0,552.16296,106.58513,0.95996106,556.2279,102.016045,0.9565558,550.4413,103.6063,0.75163335,568.1898,102.11933,0.93017393,553.5948,105.24333,0.33392665,581.369,120.5827,0.99594045,559.90094,124.11499,0.97607416,585.19507,147.4287,0.9880455,554.62256,147.99133,0.8615872,557.2658,164.64229,0.97788405,544.50305,161.88847,0.85233146,577.0364,169.36264,0.99087816,563.1066,167.21579,0.97726065,536.1759,179.27827,0.9804693,525.4227,177.98647,0.950774,539.9229,224.15074,0.9286062,536.8612,220.15445,0.88145554,1.00576669,-0.34783394,0.92092475,-0.20609652
4,133.33333333333334,552.03406,106.981155,0.9597886,556.0018,102.33589,0.95556074,550.1438,103.96516,0.75504696,567.6359,102.04701,0.9284239,553.0891,105.28704,0.34413832,581.0956,120.232056,0.9958632,559.62024,123.842285,0.9769191,585.2439,147.26083,0.9877198,554.86304,147.84497,0.86732996,556.9568,164.62718,0.97737736,544.47797,161.8377,0.85682315,577.2355,169.36127,0.9908818,563.31915,167.20982,0.9779156,536.1947,179.28122,0.98047775,525.42566,177.77658,0.9521375,539.7792,224.20338,0.9291655,536.7726,219.83951,0.88436717,1.02032603,-0.35176427,0.93517219,-0.20683346
5,166.66666666666666,551.28253,107.23085,0.95851153,555.21814,102.52916,0.9547792,549.47156,104.13471,0.745378,567.07745,101.89304,0.92870194,552.71375,105.10155,0.3330449,580.82166,119.96546,0.9958664,559.4096,123.44388,0.9762146,584.64557,147.46617,0.9878544,554.69385,147.86644,0.86428654,556.4332,164.95828,0.9774784,544.32654,161.91669,0.85415286,577.1784,169.52922,0.99104905,563.3019,167.2725,0.9780343,536.4067,179.47786,0.98104024,525.4946,177.59929,0.95295787,539.7565,224.41855,0.9316059,536.54456,219.52045,0.88755435,1.00609577,-0.34464055,0.92215298,-0.2075704
6,200.0,550.6203,107.60433,0.95816934,554.53296,102.84757,0.95491004,548.805,104.428795,0.7406945,566.5204,101.9023,0.9298843,552.2102,105.069916,0.32826364,580.3999,119.85526,0.9959394,559.26404,123.14914,0.9760172,583.9994,147.80058,0.9881104,554.7917,147.91498,0.8630038,555.7081,165.13043,0.97777885,544.1045,162.04924,0.85312533,577.15784,169.64261,0.9912246,563.43945,167.27306,0.9782317,536.56635,179.64919,0.9814699,525.5778,177.42627,0.95354944,539.8202,224.60469,0.93318284,536.4272,219.23096,0.8895248,1.01147024,-0.34832523,0.92608331,-0.21002685
7,233.33333333333334,549.9437,108.20446,0.95474,553.62366,103.401825,0.9517898,548.12244,105.09175,0.72126746,565.2863,102.06244,0.92876476,551.7604,105.48616,0.31787026,579.3269,119.545876,0.996015,559.0227,123.13431,0.97508156,583.4384,147.08748,0.9887073,554.8659,147.74168,0.86012536,555.85425,165.17152,0.9784687,544.0953,162.25244,0.8506792,576.2284,169.73938,0.99187684,563.1206,167.56177,0.97924405,536.1153,179.49104,0.98298234,525.7616,177.51617,0.95616525,539.7289,224.45447,0.9387323,536.3417,219.08861,0.8966909,1.0097268,-0.34857088,0.92583766,-0.2021662
8,266.6666666666667,549.017,108.59217,0.95644915,552.72656,103.780075,0.9543264,546.9614,105.46733,0.7298939,564.0684,102.35812,0.9316591,550.1173,105.78803,0.32416576,577.9707,119.51221,0.9961343,557.95917,123.48248,0.9746509,583.11285,146.64261,0.988929,555.1874,148.06306,0.8547252,556.1811,165.26999,0.97861177,544.3202,162.5161,0.8456178,576.02246,169.49196,0.99158704,563.1209,167.55795,0.9779986,535.6919,179.13535,0.98216105,525.53094,177.5122,0.9529477,539.6944,224.16881,0.9357467,536.7757,219.07841,0.8901027,1.01460648,-0.33997329,0.93517219,-0.19823587
9,300.0,548.51105,108.7606,0.95684254,552.1887,104.03183,0.9534041,546.21906,105.65747,0.74040437,562.7939,102.62514,0.9287657,548.5738,105.96729,0.33923036,576.87823,119.46866,0.99607617,556.1786,123.70711,0.9753828,583.4619,146.14236,0.9886663,554.4862,148.0711,0.86006266,556.5552,164.78085,0.9781756,544.23035,162.27208,0.8496158,575.79645,169.44603,0.99157727,562.4971,167.71269,0.9784574,535.8177,179.03195,0.9819948,525.4283,177.68277,0.9535496,539.63385,223.86298,0.9355695,537.1154,219.18369,0.8910766,1.002219,-0.33088441,0.92682024,-0.18963828
10,333.3333333333333,547.15265,108.96066,0.954804,550.7914,104.31203,0.95153946,544.95886,105.84237,0.7278134,561.37885,102.81218,0.9278583,547.39813,105.96261,0.32577315,575.99554,119.27623,0.9960304,555.1708,123.56558,0.974463,583.0905,146.07014,0.9888164,553.8399,148.38063,0.85821515,556.1137,164.4609,0.97850865,544.25525,162.58414,0.84885436,576.3628,168.95691,0.99167997,562.98,167.27069,0.97852784,536.07947,178.91064,0.9823433,525.63525,177.67865,0.95399946,539.516,223.88702,0.93653744,537.2429,219.46487,0.89209175,1.01126049,-0.3340778,0.93418961,-0.19577942
11,366.66666666666663,545.2546,109.30439,0.9511851,548.8087,104.70294,0.95019203,543.2153,106.111435,0.69756466,559.4031,103.09793,0.9316413,546.1573,105.98242,0.2990105,574.68243,119.28792,0.9962619,554.58075,123.58389,0.9718593,583.28217,145.6632,0.9899154,554.159,148.31247,0.8454217,555.8973,163.81631,0.98012805,543.6823,162.12215,0.83964914,576.03735,169.56284,0.99196047,563.2317,167.82803,0.97766453,535.9387,178.57538,0.98276764,525.78424,177.39116,0.95194006,538.6473,223.7516,0.9370953,537.03625,219.45349,0.88857526,1.0192643,-0.35594024,0.93517219,-0.1940599
12,400.0,543.88995,109.41152,0.94971913,547.4262,104.905235,0.9524342,541.9624,106.14007,0.6743472,557.9876,103.483154,0.9387378,545.2997,105.91493,0.27738103,573.176,119.611115,0.99659556,554.64215,123.58252,0.9685346,582.53937,145.56384,0.9910944,554.7767,148.07076,0.8236489,555.3878,164.00008,0.98168266,543.08386,162.59224,0.8226692,576.1591,169.53404,0.9921003,564.3853,167.73816,0.9757538,535.79584,178.54549,0.9828355,526.08167,177.5564,0.9472535,538.7861,223.4549,0.9361438,537.1687,219.40022,0.8801878,1.03122383,-0.38075043,0.92731153,-0.24196076
13,433.33333333333337,542.2115,110.160385,0.9478033,545.63806,105.63771,0.95153296,540.39685,106.97555,0.65628415,556.27826,103.996475,0.9400489,543.98944,106.757034,0.2581034,572.59143,119.64943,0.99678373,553.3474,124.43509,0.96732056,583.1486,144.88596,0.99186677,553.38245,148.70665,0.8200339,555.78326,163.94604,0.9830987,541.991,162.75024,0.8216112,576.11115,170.1214,0.992796,563.97864,168.60414,0.97688884,535.99194,177.9578,0.98447305,525.98804,177.30551,0.95024747,538.712,223.15128,0.9420291,537.0652,219.28203,0.88807094,1.05396213,-0.38541769,0.94475236,-0.26406885
14,466.6666666666667,540.1307,110.474335,0.94665325,543.4578,105.97861,0.95355076,538.4993,107.2796,0.635571,554.21497,104.237564,0.94593006,542.73395,106.9209,0.23963168,570.7505,119.815384,0.9971204,552.5084,124.46892,0.9640353,582.07336,144.8787,0.9928947,553.2091,148.66292,0.7994096,555.3294,163.58688,0.9845318,542.2034,162.73833,0.8051397,574.4415,170.76959,0.9930928,562.96106,169.24887,0.975492,535.7039,178.48047,0.9845375,525.8255,177.7865,0.9456379,539.11,223.05566,0.9409206,536.61066,218.90105,0.87938476,1.06186014,-0.40728014,0.93959381,-0.28077274
15,500.0,538.58704,111.43097,0.9476096,541.867,106.90204,0.9554698,536.7346,108.2335,0.641376,552.40173,104.79527,0.94807947,540.68726,107.6059,0.24214822,569.2387,119.84245,0.99713564,551.1493,124.73221,0.96267253,581.2287,144.65894,0.99284333,552.7998,148.5939,0.78957593,553.4811,164.5331,0.9842313,540.9623,163.59161,0.7962779,573.8701,170.87427,0.9927331,562.5124,169.4267,0.9737898,535.32715,178.3394,0.9835926,525.37317,177.63538,0.94143295,538.6904,222.91559,0.93811613,536.3421,218.59502,0.8726864,1.06257628,-0.39671738,0.9454893,-0.27880757
16,533.3333333333334,537.09106,112.44347,0.94929314,540.41034,107.96758,0.9574839,535.01276,109.2396,0.6492046,550.831,105.78908,0.9493134,538.3161,108.52907,0.24043159,567.63696,120.60329,0.9972373,549.144,125.11569,0.9621891,579.3867,145.53435,0.9931231,550.69385,148.48479,0.78618133,551.8918,165.3882,0.98474413,539.707,164.23158,0.7946143,574.0621,169.54303,0.99305224,562.4133,168.03922,0.97439766,534.9989,178.25624,0.98455065,525.08075,177.40897,0.9433374,538.7199,222.5817,0.9417564,536.27637,218.00392,0.8779267,1.07325262,-0.41833418,0.94057639,-0.30361776
17,566.6666666666666,533.96783,113.61373,0.9371109,536.8871,109.17576,0.94796664,532.33624,110.48636,0.57861876,547.48737,106.52758,0.94491845,536.7511,109.38584,0.20077367,565.8108,120.65033,0.99711883,547.5734,125.12787,0.9581685,577.5065,146.52028,0.99359894,547.265,149.29858,0.7843825,550.4837,166.38165,0.98577696,535.9556,164.36755,0.7969626,574.1797,168.49287,0.9936546,562.82,166.99283,0.9760345,534.87354,178.32285,0.9859487,525.2469,177.29205,0.9470948,538.6823,222.60608,0.9456864,535.58185,217.48155,0.8844438,1.09768349,-0.4335642,0.95113914,-0.33506038
18,600.0,532.30176,114.37231,0.93283194,534.8567,109.820274,0.9436495,530.39453,111.35043,0.5688619,544.8128,106.67708,0.9404591,534.6702,110.082794,0.2024534,563.2,120.35724,0.99689615,546.1189,125.215546,0.9562122,575.40027,146.3002,0.99328774,546.1532,149.43199,0.7830583,549.81683,166.03384,0.98515606,535.0211,164.0682,0.79656905,572.8488,167.87967,0.9934232,562.2374,166.79471,0.9755524,534.45776,178.1612,0.9854956,525.5329,177.96417,0.9463127,538.6797,222.45505,0.9443834,534.5553,218.10947,0.8826813,1.1654229,-0.57259952,0.90151876,-0.46648069
19,633.3333333333333,529.2143,116.28052,0.9179036,531.19073,111.62872,0.9300644,526.9283,113.48932,0.51414704,539.9514,107.89807,0.9314644,530.79224,111.99497,0.18653871,558.7496,120.60947,0.99659425,543.76483,125.742035,0.9504274,573.1008,146.30002,0.9934522,545.2019,148.55942,0.77880186,547.8087,165.8586,0.9857525,533.9688,163.40016,0.7994686,572.3268,167.52995,0.9934576,563.10236,167.08253,0.975387,533.04114,177.07312,0.9856908,526.28674,179.0258,0.9461715,539.1861,221.86295,0.94450426,535.5876,220.18138,0.8813175,1.25672788,-0.50209928,1.01230486,-0.55000014
20,666.6666666666666,527.14557,117.33578,0.91513723,529.05786,112.51323,0.9335493,524.7228,114.75242,0.49277157,537.9545,108.56984,0.93691254,528.5742,113.60536,0.16379781,557.48755,120.664444,0.996563,542.5335,127.59123,0.9385006,572.86694,145.79413,0.9936353,545.306,150.61191,0.73038197,546.6095,167.15097,0.9859725,534.81647,165.62273,0.76418114,572.322,168.42236,0.99246925,563.09106,168.79196,0.96863514,532.1756,175.88573,0.9837533,525.84314,179.36003,0.9324105,539.81946,221.68378,0.93813246,536.617,221.29755,0.85958207,1.31309944,-0.61755264,1.02753487,-0.5357527
21,700.0,523.14276,119.43071,0.9199508,524.932,114.78744,0.94276595,520.83673,116.65846,0.4913083,533.6592,110.44539,0.9467825,525.3671,114.51545,0.15994799,552.8877,122.05377,0.99685943,541.40485,127.613144,0.93285984,568.6416,147.75319,0.994124,545.30365,150.97577,0.69549173,544.58875,167.93535,0.98633283,533.4301,166.95543,0.73715216,572.50104,169.06047,0.9916357,565.45935,169.11546,0.9623588,531.55566,176.70583,0.98140657,526.45886,179.73595,0.91668487,540.33124,221.73848,0.92875004,537.1288,220.77054,0.8328339,1.30293634,-0.54312207,1.01549825,-0.60944634
22,733.3333333333333,521.4323,120.46629,0.9349125,523.3645,115.7938,0.9480564,518.6026,117.81372,0.58315647,531.7852,111.41376,0.941955,521.5312,115.86041,0.20489845,550.7576,123.24637,0.9967325,537.2362,128.92719,0.9467973,567.398,148.83696,0.9931416,541.3173,151.08177,0.74524724,542.9843,169.1457,0.98472714,530.3836,167.50027,0.77197474,571.0239,169.18945,0.9916551,562.7075,169.5727,0.967442,531.26044,177.60739,0.9815871,525.94885,181.53535,0.9279976,540.5457,221.6071,0.9314049,538.014,222.32837,0.8506218,2.37063814,-0.87646293,1.9769545,-0.97128207
23,766.6666666666667,517.73816,121.03354,0.9194811,519.37646,116.38327,0.93287593,514.9826,118.499794,0.54217005,527.74884,112.27889,0.9285026,518.29816,116.92118,0.19735837,547.1035,123.78461,0.9956501,534.5929,129.99548,0.9426073,563.2506,148.07666,0.9913292,538.77655,151.6712,0.7519211,540.67175,169.05853,0.98156345,527.81226,167.32281,0.7761796,570.2381,168.0693,0.99014586,562.4953,168.88812,0.9655568,531.29956,178.423,0.9785098,526.31616,182.69078,0.92453986,540.44257,222.2507,0.9217086,537.5865,223.23265,0.8411984,1.19566663,-0.76813329,0.56424757,-0.72195195
24,800.0,514.0442,121.972595,0.88649476,515.21643,117.62995,0.9038902,511.70682,119.38321,0.4474559,522.71967,113.37478,0.91156226,515.6117,117.023315,0.17199324,542.08594,124.03346,0.99485415,531.9837,129.03305,0.93221784,559.2858,148.84938,0.9909027,539.13074,151.8536,0.7417052,540.75104,169.91646,0.98041886,531.25195,168.70868,0.767004,568.4885,167.20506,0.99040985,562.2131,167.84995,0.9663842,530.3719,178.89973,0.9796999,526.24866,182.40051,0.92843664,541.00635,222.99448,0.92697465,538.0977,222.91724,0.85097975,1.15580061,-0.34881652,1.05725797,-0.31049584
25,833.3333333333334,509.67047,123.34192,0.8958601,510.7895,119.25263,0.9119737,507.73267,120.67081,0.49053124,518.6396,114.76042,0.9022492,510.9756,117.22742,0.17036898,536.5526,124.667786,0.9951101,528.9761,127.82338,0.9267101,551.65796,149.76892,0.99157375,535.15686,150.15526,0.74132395,538.3549,171.90947,0.9799299,526.8221,166.6683,0.7589648,568.2598,163.19072,0.9905505,563.04803,163.52531,0.9663559,527.69116,177.64388,0.97794676,525.7293,180.62698,0.92003703,539.44684,222.59329,0.9150942,538.31793,222.19737,0.82265645,0.8908283,-0.10390802,0.87695422,-0.11717287
26,866.6666666666667,506.41672,124.86545,0.9055718,507.4926,120.85353,0.9240855,504.49887,121.97035,0.49831757,515.0785,116.40653,0.9150339,507.32263,118.327545,0.16615672,533.45856,126.06203,0.99618196,525.6949,129.65173,0.9259797,551.7445,150.23798,0.99339515,532.7736,152.32634,0.72475547,537.8957,172.37268,0.98335314,521.83826,167.83047,0.7505897,566.49786,163.67274,0.9916918,561.3032,164.11131,0.96652114,527.87555,178.73906,0.9799125,525.63983,181.44627,0.91813445,538.6273,223.13574,0.91798294,538.18365,222.21114,0.81675804,0.84491883,-0.05625281,0.83372062,-0.12503353
27,900.0,501.863,126.505615,0.9086126,502.89636,122.55287,0.9292124,500.14536,123.64963,0.49002177,511.18304,117.67984,0.9251042,503.77084,119.66177,0.15744938,530.66797,126.4483,0.9968991,522.7505,129.97495,0.9326458,549.7844,150.46106,0.9947043,528.9419,152.61351,0.744995,536.6005,172.54298,0.9861259,518.6658,168.09195,0.76869595,564.90894,161.40527,0.9939154,559.59393,161.83014,0.9742507,527.8834,179.92949,0.9851598,525.62366,182.36842,0.93648964,538.03735,223.62663,0.934805,537.40765,222.42744,0.8487343,0.8033603,-0.08032606,0.78631105,-0.14370258
28,933.3333333333334,499.13486,127.5589,0.9103584,500.16943,123.59973,0.9281464,497.4016,124.77072,0.5076804,508.50504,118.71413,0.9198909,500.58133,120.9796,0.16228719,528.3609,127.14467,0.9967319,518.8569,131.56544,0.9333393,548.9851,149.72977,0.994368,525.2076,153.40373,0.7539807,536.2272,172.99335,0.9856167,516.45026,168.6684,0.7770044,562.41864,161.45894,0.9938181,556.05383,162.44165,0.9747515,528.4447,180.7092,0.98480874,525.47565,184.06439,0.93769354,537.98334,223.32872,0.9333649,537.122,223.47116,0.8490855,0.82924203,-0.14222871,0.81062995,-0.10145157
29,966.6666666666666,497.1416,128.30066,0.8615894,497.36264,124.61693,0.8697137,495.84576,125.831665,0.42093846,504.3081,120.07742,0.87257373,499.10342,122.37622,0.16027357,525.42334,127.59918,0.99515027,515.5461,131.92296,0.93468904,547.15546,150.57855,0.99239665,521.83813,154.76904,0.79886436,534.5234,174.79008,0.98170644,515.0974,171.61519,0.8072446,560.52966,158.52849,0.99366647,553.9381,159.54648,0.97896945,527.9314,182.31555,0.98444587,524.9673,184.87985,0.94783926,538.3543,223.85825,0.9320926,537.16144,222.79431,0.8638765,0.82491451,-0.15795002,0.80891043,-0.03463601
30,1000.0,494.42178,128.72122,0.8832371,494.97137,125.00189,0.8939377,492.68564,126.22539,0.48701808,502.47568,120.72409,0.88219035,495.25015,123.10593,0.17986245,522.4204,128.78462,0.99505746,512.8406,132.79935,0.9320748,543.07935,151.07002,0.99116534,521.0522,155.34396,0.7746399,534.41235,175.2849,0.9782866,517.85736,174.96503,0.7794308,558.13434,159.05026,0.99304235,551.3555,160.17531,0.97681355,527.5604,183.91158,0.98399514,524.07324,186.4576,0.9465452,537.86646,224.03775,0.9353006,535.4299,223.00595,0.8698319,0.78052778,-0.23729349,0.7433231,-0.01965164
31,1033.3333333333335,492.21167,130.34059,0.91738755,493.24017,126.62187,0.9132031,490.1499,127.73601,0.62514377,501.309,122.43901,0.87691003,491.50894,124.57739,0.25537258,521.64575,131.23561,0.9947802,507.21912,133.81006,0.95661527,540.6782,154.07704,0.98851776,509.7807,154.6502,0.84315807,530.77094,176.34935,0.97340876,502.47324,173.58585,0.8314217,556.86334,159.1999,0.99260545,547.0379,159.62051,0.98120785,526.8207,184.96997,0.9831956,520.6804,185.58754,0.9564319,538.1874,224.13226,0.9345414,534.3043,221.48392,0.88750046,0.71916649,-0.18767312,0.69419401,0.00859759
32,1066.6666666666667,489.28012,132.77922,0.91003907,490.51004,128.95532,0.9096613,486.8741,130.19527,0.56992394,498.88074,124.377,0.89365613,489.49393,127.079544,0.25098416,519.36206,131.66751,0.9934609,504.5679,134.81056,0.95863855,537.8889,154.7764,0.9857334,504.8802,155.40395,0.8338449,529.3658,179.0638,0.97089076,497.86682,176.8112,0.8272682,554.946,156.29308,0.990328,545.4831,157.01428,0.9765673,526.2553,187.5202,0.9803923,518.48206,188.42697,0.95235515,538.9295,225.18202,0.9285578,531.35876,221.32693,0.8870732,0.68488371,-0.1319116,0.67184028,0.01719518
33,1100.0,487.07996,134.61673,0.8980103,487.97394,130.82385,0.8795071,484.78452,132.18817,0.57169724,496.01773,125.439896,0.84093255,487.63388,128.22287,0.26241395,516.79535,132.53644,0.98871255,502.153,133.90866,0.9575315,534.795,159.94138,0.9765255,502.2537,154.61264,0.8567826,525.1589,185.44228,0.9603595,496.55127,176.79785,0.8519936,552.3197,156.43375,0.9834579,543.25696,156.76227,0.9693672,523.7495,190.13712,0.96486336,517.8992,191.32483,0.9339971,537.75757,226.14975,0.8853227,530.9767,223.70102,0.84540343,0.62390944,-0.09481914,0.6141136,0.05600716
34,1133.3333333333333,485.37628,135.59134,0.8921046,486.16043,131.86427,0.8814017,483.26172,133.15836,0.53491515,494.47214,126.38536,0.8590334,486.9761,128.98254,0.24320169,515.56824,133.23944,0.9902761,502.08585,134.1102,0.9537646,535.0121,158.7785,0.9803484,503.597,152.29391,0.8403028,525.3751,186.58974,0.9647592,497.68915,175.40668,0.83826756,549.962,157.28458,0.98440766,541.94727,157.26299,0.9675666,522.5485,193.55496,0.9631519,518.4116,193.76791,0.9234621,536.3578,228.34099,0.870824,531.6271,224.11325,0.81656945,0.64796318,-0.1346137,0.61067456,0.169741
35,1166.6666666666667,482.91788,136.28719,0.8871629,484.02505,132.98991,0.8698785,481.05624,133.85577,0.5404775,492.531,128.53407,0.84622055,484.33444,130.17648,0.2513489,513.48584,135.92615,0.9899822,497.2635,135.7041,0.9580967,532.3556,162.22017,0.9793809,497.28503,154.34851,0.8590663,522.65875,188.48265,0.9627674,491.792,177.52985,0.8502228,546.70435,158.3246,0.9862786,536.8702,157.90753,0.97328454,522.67285,196.77493,0.9663725,516.182,196.01656,0.9347697,535.467,227.8056,0.8819144,529.71936,223.32812,0.83829224,0.66045019,-0.15795002,0.59986616,0.22673074
36,1200.0,480.86588,138.62167,0.9197733,482.29474,134.45276,0.9317865,478.00912,135.82803,0.6209212,492.0707,128.9664,0.9186254,479.437,132.2716,0.2527918,513.27954,137.84874,0.99564606,493.58646,138.7019,0.95678896,532.65497,163.94186,0.98974484,491.7792,157.73692,0.8087726,523.68805,193.44777,0.97222745,484.25598,181.47516,0.7839385,546.9295,157.72668,0.99205256,535.4489,157.79495,0.9771708,522.25934,196.02512,0.97782636,517.35504,196.35844,0.935372,537.77875,223.57443,0.90322644,535.8074,220.18456,0.824694,0.7361991,-0.12454224,0.67110334,0.27585983
37,1233.3333333333335,480.19308,141.37492,0.9207663,480.99402,137.41977,0.9238904,477.31085,138.90529,0.6317681,489.84006,131.0615,0.9019519,478.34805,134.6936,0.26226482,512.48926,139.76474,0.9954502,491.5623,139.87717,0.9614111,530.6898,168.89703,0.9893049,486.3313,158.75563,0.8398349,518.0581,200.63344,0.973026,478.87744,182.02058,0.82273906,547.07837,158.1747,0.99289787,534.5867,157.9435,0.9813132,524.31134,197.97763,0.9815974,518.602,196.75275,0.9507459,539.0441,226.27727,0.9248865,535.4737,220.2175,0.8707952,0.77066331,-0.15819566,0.7108979,0.25203222
38,1266.6666666666665,479.4159,144.3478,0.94541013,480.30862,140.41321,0.9398411,476.04254,141.76935,0.7528076,488.48132,134.42209,0.8987006,475.33847,137.58052,0.37153488,509.7051,144.22223,0.99554825,489.39667,142.33531,0.9750806,526.28253,175.80016,0.98668855,483.1187,160.8883,0.88307226,513.7436,206.13107,0.9669398,474.37155,183.85817,0.8564202,547.00116,159.2037,0.9930466,534.7162,158.32959,0.9853727,521.348,196.56207,0.9839228,516.06195,195.15993,0.96491987,536.73303,224.1017,0.94047403,533.43335,218.76363,0.9085793,0.81729837,-0.12773563,0.78606541,0.18374279
39,1300.0,476.54196,146.42139,0.92262113,477.587,142.89047,0.92624027,473.9648,143.6958,0.6459342,485.5383,137.53484,0.9003136,473.5489,139.44029,0.2698559,507.3554,145.91154,0.99546826,485.41153,145.16965,0.96072125,524.90393,177.59306,0.9890603,478.9934,166.9074,0.8298957,511.5749,209.71991,0.97016317,469.49078,189.56918,0.8038598,545.8527,159.70023,0.99178267,532.35956,159.35196,0.97822315,521.3706,198.443,0.97823024,512.7531,197.17288,0.940252,537.9413,223.51726,0.9131242,532.59094,217.82207,0.8482728,0.79760567,-0.10783835,0.78483718,0.09260833
40,1333.3333333333333,472.6179,150.02246,0.8916586,474.02753,146.51222,0.9031168,470.44672,147.33981,0.55251575,482.81293,141.31879,0.88915044,470.40942,143.30138,0.21007116,505.02435,148.69423,0.99439985,479.2945,150.19179,0.9433146,523.30554,178.33682,0.9886579,473.18375,173.26332,0.7856777,510.34454,214.35782,0.9675617,464.0075,199.25433,0.7548862,540.62463,164.51976,0.98872656,524.627,165.39624,0.967315,521.8379,204.48111,0.9624102,509.75238,204.60686,0.89088804,539.36194,223.2752,0.8457621,532.39734,219.33334,0.73081625,0.78619981,-0.15672179,0.7460252,0.19234038
41,1366.6666666666667,471.99973,154.4541,0.9271223,473.4722,150.55833,0.93436825,468.86963,151.8949,0.67341226,482.75528,145.10275,0.9018363,467.66867,148.32321,0.26002106,503.5018,152.06839,0.9946085,478.84348,152.2201,0.9493498,520.6523,180.59447,0.9881467,472.16357,168.6886,0.8025036,508.13382,218.1039,0.9675596,464.93384,186.9555,0.7815194,538.218,164.78137,0.9878021,521.92584,165.1718,0.9664205,522.1786,204.17441,0.9598693,507.2898,204.914,0.8897728,539.40625,227.61609,0.8337877,524.4925,224.2655,0.7187858,0.8484629,-0.10464496,0.84108999,0.03881198
42,1400.0,469.26343,159.26108,0.8804363,470.19492,155.21082,0.89991236,466.74463,156.3345,0.52672374,479.52783,148.83353,0.8716951,467.28085,151.45694,0.17492925,498.25385,156.42656,0.99104184,480.13412,153.49265,0.9012717,509.5434,189.02231,0.98643595,476.34857,169.11047,0.7344856,493.14514,228.99577,0.96381587,470.06192,185.86987,0.74167466,534.3668,170.60667,0.97663873,519.7563,170.5934,0.93197924,530.8327,204.9146,0.9026461,507.08112,209.2456,0.74879,547.96375,218.49086,0.64924973,511.4624,222.38043,0.4716173,0.88956764,-0.27389467,0.84600289,-0.0243189
43,1433.3333333333333,468.09894,165.71422,0.8784939,468.58124,161.43533,0.8922728,465.55862,162.6438,0.54331213,476.26724,153.95818,0.85354596,465.04752,156.90524,0.19449142,495.5841,161.28702,0.9885903,476.05292,161.20984,0.8999309,506.16946,196.31316,0.9815531,465.89297,185.52588,0.7120659,487.80612,235.18387,0.95026845,447.66135,217.88005,0.6945127,534.49817,176.75381,0.9541329,520.0482,177.97531,0.88257587,523.43085,208.34792,0.8094069,503.58823,213.17484,0.5868308,543.77673,219.4963,0.46176612,513.6675,223.23778,0.2975494,1.51386198,-0.07418492,1.44390389,-0.44879422
44,1466.6666666666665,468.03363,172.62013,0.82497716,467.81915,168.36853,0.7709464,465.30197,169.86398,0.54310787,471.49976,159.87683,0.7029084,460.39444,163.5799,0.29474148,489.19534,162.46141,0.98235464,463.32565,167.95029,0.940287,501.0405,196.36841,0.96857095,449.8039,198.95369,0.82965744,489.7887,233.17941,0.92596096,429.5343,225.59909,0.7833286,528.10345,169.67343,0.96626276,511.15775,173.66371,0.9418501,517.5763,210.94083,0.8950797,498.6011,215.13794,0.81160337,542.54694,229.12521,0.6528243,521.325,230.1023,0.55062246,1.50219825,-0.09039752,1.43653453,-0.42987952
45,1500.0,463.13812,176.34654,0.82071936,462.6516,172.29288,0.7585705,460.61218,174.4711,0.55603373,465.4886,163.50278,0.7198818,456.42386,168.89198,0.3382962,482.9745,163.36787,0.98190063,460.4618,174.66673,0.9529361,498.9051,188.31226,0.96113616,444.8864,201.8923,0.84225017,489.9278,228.40186,0.9122161,422.11322,223.91771,0.78759927,523.61523,170.2304,0.96330166,512.4186,176.84604,0.943589,503.44458,209.95456,0.8973842,507.9802,217.68509,0.83120716,521.42505,230.04918,0.6588863,540.87,234.47205,0.57491416,1.14775715,-0.42668613,0.94303284,-0.49595814
46,1533.3333333333335,449.70673,172.46796,0.38934442,448.29987,169.22588,0.30776662,449.3322,169.93442,0.20235197,447.8532,163.18806,0.42021394,447.93182,165.3791,0.17626019,464.10013,166.83156,0.8701201,453.7774,168.77579,0.79262877,471.98508,201.20132,0.7918237,441.30762,195.28966,0.6515086,469.3597,227.78354,0.67464685,424.58923,212.07724,0.5946964,509.43073,174.66391,0.8771046,502.85315,177.9068,0.8586341,512.28064,216.12698,0.7820405,504.17032,218.61761,0.74474394,532.7358,228.04095,0.58550197,522.15906,230.76039,0.55985826,0.98773753,-0.38566334,0.83445756,-0.36134444
47,1566.6666666666667,42.760506,123.305466,0.011851953,40.15518,120.42532,0.0042389072,43.22483,121.09909,0.012575762,29.50191,120.21567,0.1692421,42.61729,122.03638,0.49653116,20.945042,133.3565,0.904476,45.291527,134.5706,0.96430904,5.174286,149.68362,0.82309896,57.93207,145.4172,0.96061844,2.280054,163.58315,0.66117823,72.85927,147.52153,0.8552072,22.86998,176.26894,0.9864927,36.93851,176.63863,0.9923786,15.42672,200.09474,0.9345818,24.953209,200.45413,0.95823634,15.669802,222.25876,0.80479,18.138796,224.07806,0.85384786,1.22700768,-0.88162148,0.65169735,-0.55098272
48,1600.0,447.695,200.73578,0.54632217,446.3368,197.68686,0.4437597,445.39648,198.97511,0.27240977,448.44147,188.35687,0.43112084,441.42554,192.28583,0.17839766,464.94568,181.19946,0.9194569,443.92847,188.7495,0.8427142,479.72992,204.50945,0.9092594,430.83197,213.83041,0.7484131,488.1042,228.12915,0.8607533,421.68057,230.0548,0.72748905,508.08997,176.50851,0.9111269,495.60876,182.37668,0.87471986,505.74292,218.72638,0.78575766,495.20312,225.43008,0.69831,518.2196,228.6754,0.51933783,508.64185,231.70363,0.45455816,0.32587856,-0.10317108,-0.29452888,0.09383656
49,1633.3333333333333,437.981,211.11667,0.35728905,435.25378,207.36182,0.24032061,434.58948,210.56085,0.2594897,436.55054,197.38419,0.1989513,429.41278,205.73366,0.22808228,455.24152,186.425,0.70944023,430.06998,198.67717,0.7446929,469.90192,198.63335,0.65048665,421.92734,214.38843,0.6704172,472.00433,220.56009,0.5709566,418.75363,223.45001,0.6176712,495.77255,184.28363,0.8271647,479.2102,192.69968,0.8385892,513.39355,218.80043,0.7380639,492.90146,226.92064,0.7474113,531.13965,229.48111,0.6048812,507.49573,232.63657,0.6188816,1.56279439,-0.1021885,-0.92632895,1.25451126
50,1666.6666666666667,430.02792,218.66054,0.6517361,426.15417,213.98854,0.553491,425.39114,218.42699,0.49878997,427.38818,200.76015,0.41096646,420.85464,212.59369,0.3350018,449.7808,189.84125,0.8858516,428.05066,204.43146,0.84577143,476.11975,206.32184,0.7954303,422.77444,222.3876,0.69265026,489.2381,228.75304,0.684097,416.96936,227.625,0.62274927,495.55725,188.34201,0.8763636,482.6758,197.8492,0.8576155,515.55566,223.28445,0.773639,502.7159,231.76067,0.7395664,535.61707,228.3574,0.61513335,516.52625,229.15369,0.592841,1.58776375,-0.59053164,-0.8347032,1.2147167
51,1700.0,421.4289,222.48499,0.38488516,418.28412,218.30246,0.39679703,418.01505,221.926,0.25556526,421.25598,205.9548,0.3907127,417.6906,215.76186,0.17979418,442.03238,194.05205,0.72947055,430.31552,206.52249,0.5742474,467.42953,200.55426,0.59093255,429.39462,213.7683,0.35328513,483.80136,213.8081,0.4440886,414.30405,213.14565,0.3079748,492.2442,190.44028,0.73362225,486.57953,199.34296,0.6684811,516.6102,217.35527,0.67502856,512.29785,225.74078,0.6053094,536.72864,214.88075,0.6088311,529.3463,218.96103,0.5686011,1.53877766,-0.70623064,-0.9963379,0.93615477
52,1733.3333333333335,31.488243,126.50044,0.056016523,29.911785,124.00577,0.022469493,33.55148,124.307526,0.03169946,24.145615,124.82831,0.15441342,40.81155,124.994095,0.22594462,20.425776,134.98367,0.67180324,44.663204,134.25546,0.8211767,7.094656,152.27113,0.6131199,58.19332,144.15094,0.81392646,2.8887863,165.96786,0.5412037,66.22395,144.93066,0.7133229,23.09293,175.84906,0.92527163,36.917103,175.53625,0.94679046,16.251135,208.29251,0.86500096,25.070658,208.8378,0.90386057,14.608461,226.61415,0.7320577,21.056343,227.61038,0.7811678,2.23378214,1.24640496,-1.54904014,1.01820035
54,1800.0,407.89413,194.78192,0.07091893,404.20554,193.93015,0.048150692,409.42578,192.50456,0.054835033,396.48264,198.3945,0.19499339,414.40945,195.86948,0.22482774,406.6714,211.77081,0.50296295,426.2476,207.07574,0.6101276,409.09824,230.38228,0.27666712,438.42932,220.43689,0.43734506,404.72552,213.72232,0.18500383,423.10193,216.98773,0.3262147,462.96252,214.81247,0.5679794,476.73285,216.19604,0.65408975,496.5273,220.96036,0.55552,504.68884,217.65242,0.6583861,516.0468,217.17685,0.5549677,522.9105,217.74893,0.6332203,2.11827116,-0.01572131,-0.41980806,2.07619526
55,1833.3333333333333,402.7459,188.89128,0.10573749,400.94775,188.62909,0.06427269,405.25043,185.3935,0.07841137,395.07248,196.41252,0.3228112,414.46048,189.49661,0.35227382,402.23425,217.46375,0.6486297,435.01938,203.7952,0.7864624,416.21918,239.63043,0.3148517,473.2118,216.50793,0.6388555,441.60925,220.39696,0.23751037,484.30295,217.81644,0.48574004,456.60455,220.06274,0.583696,478.45352,217.1539,0.7093005,490.00745,225.09528,0.48442268,500.9578,214.562,0.64292556,512.6691,220.45421,0.42612022,522.85614,214.68709,0.5417826,3.47449123,-0.22427429,-0.77255491,3.38008125
56,1866.6666666666667,406.95508,187.35695,0.091877334,404.8024,187.53644,0.05058933,408.87955,185.36896,0.074692756,397.397,195.97766,0.24020131,414.4685,191.863,0.30713245,405.8269,214.65932,0.62095153,428.65848,206.85658,0.7533398,421.52744,230.59851,0.33463588,461.00928,216.14047,0.62847096,447.69333,216.70111,0.26431423,479.16595,215.23874,0.49024364,455.67026,219.51544,0.689736,471.42395,219.31425,0.782139,485.08902,225.14444,0.62772226,493.325,219.54568,0.74728566,505.8693,216.72021,0.59714395,515.7602,215.25743,0.6863518,5.48605299,-1.52496689,-2.91728524,4.38870142
57,1900.0,42.932163,132.35681,0.07589409,40.819683,129.37465,0.026868207,44.356552,129.94446,0.056547318,30.597122,127.83453,0.12095731,46.91865,129.4509,0.29642168,23.041517,134.96747,0.6259346,46.384247,138.45927,0.7907968,7.8050117,148.14496,0.53271383,52.514786,150.71979,0.7619939,5.799019,151.44366,0.48136196,57.94033,148.7108,0.6617112,21.657177,177.6284,0.8921487,34.95632,178.98589,0.92079175,17.886496,202.07883,0.84709156,25.89714,204.48073,0.88652164,14.691724,222.79462,0.7460465,16.888458,225.41653,0.7856499,2.60133632,-0.79908461,-1.12358224,2.20589605
58,1933.3333333333333,33.963436,135.0217,0.0069891163,32.09404,131.92729,0.0035921363,35.566685,132.43858,0.0049071214,26.826553,128.1313,0.16533175,40.685226,129.83704,0.21285135,23.521498,135.12326,0.8552064,45.42938,136.77718,0.9340696,9.29446,146.22469,0.84372896,55.90719,146.71556,0.95346683,8.4330845,153.56721,0.7181051,66.145584,149.5424,0.8658021,24.527744,175.36407,0.9881612,37.663937,175.43347,0.99295133,17.80439,202.19838,0.9526307,27.006807,202.15872,0.9679777,12.985601,221.77165,0.8439843,15.391354,222.10843,0.8808974,1.21464469,0.57603856,-0.49866024,0.94598059
59,1966.6666666666665,34.02912,121.30727,0.06410533,32.66986,118.68614,0.026677122,35.95516,119.026245,0.03800323,26.461388,121.18222,0.16815574,43.315372,121.69475,0.24688996,21.76744,134.15341,0.667098,46.69764,135.43166,0.8118466,7.764328,150.40082,0.5675619,56.0399,150.62706,0.7706235,5.2698708,151.96005,0.49086592,60.16044,147.74887,0.65592283,22.628403,178.7077,0.9111572,37.311592,178.88855,0.9347725,14.540971,210.2233,0.8573507,24.325062,211.11723,0.89510673,11.132175,229.87088,0.7317641,18.069502,231.53934,0.77615726,1.06710352,0.25743642,-0.73177776,0.73276035
60,2000.0,44.68793,135.5451,0.007913137,42.750355,132.74866,0.0037749468,45.226562,133.51337,0.006567733,32.911705,129.68382,0.15094733,46.241665,132.30812,0.25339276,25.525904,135.17865,0.84775364,47.629486,139.1414,0.90257394,7.5513115,145.32597,0.83147645,55.273567,150.14893,0.9162563,4.331606,154.76633,0.68837684,62.745842,155.22263,0.78788066,23.97955,168.45897,0.9880532,36.98162,169.78229,0.9908897,20.192358,194.66965,0.9711256,29.483833,195.78024,0.975632,14.766397,213.2525,0.92113185,19.03573,215.5428,0.9303861,0.95551422,-0.13289418,-0.70942403,0.62615023
61,2033.3333333333333,34.064285,125.90027,0.090346694,32.392944,123.34598,0.025583168,35.336662,123.62604,0.0632429,24.644285,124.38818,0.13250688,39.910988,124.88284,0.3719929,19.579752,135.56088,0.7096966,43.000153,134.75653,0.91283107,6.183672,151.04967,0.6141419,57.335266,143.23134,0.91563886,6.313076,157.93184,0.5781551,69.78098,143.22826,0.8472067,22.464458,175.32985,0.9372955,35.832314,175.07814,0.9674063,16.861012,201.3044,0.8814694,26.507774,201.27206,0.93750423,12.427948,221.95624,0.7554943,19.798147,222.95157,0.8319564,0.8539399,-0.21051814,-0.50406444,0.65636461
63,2100.0,194.96739,202.8469,0.6713407,194.59232,202.49005,0.62985843,196.38828,202.44537,0.5260002,190.55157,200.4811,0.68996984,196.25717,200.40393,0.3509697,183.92804,197.39882,0.9397007,193.10228,195.88368,0.92941797,182.09059,196.72267,0.8262578,179.7491,192.94032,0.7711429,193.70432,196.8106,0.794426,167.41957,197.46147,0.7292043,159.25026,190.936,0.9177963,163.0347,188.8191,0.90768737,146.17218,200.41045,0.8092,153.38176,198.67145,0.7644832,130.8746,205.72858,0.6545975,134.91466,204.55086,0.6031992,1.34665171,0.33972764,-0.08302816,1.30044696
65,2166.6666666666665,33.190475,125.30353,0.07142347,31.567194,122.67465,0.03017694,34.865566,123.012375,0.04549137,25.569675,123.85268,0.15793431,41.536995,124.511475,0.25348327,21.527658,134.63846,0.6259434,45.550186,135.80748,0.7922444,7.8862267,149.1664,0.52247614,57.225906,149.31476,0.7583881,4.7299767,154.51294,0.4646971,64.74153,151.20222,0.6530907,22.619904,175.60287,0.88685566,36.373745,175.7404,0.9191073,17.190607,200.43188,0.836983,25.679905,201.06763,0.88402164,11.414446,220.7696,0.7322994,16.141768,222.06946,0.78175044,1.08800969,0.33972764,-0.32523456,0.98110789
