frame_id,timestamp_ms,nose_x,nose_y,nose_conf,left_eye_x,left_eye_y,left_eye_conf,right_eye_x,right_eye_y,right_eye_conf,left_ear_x,left_ear_y,left_ear_conf,right_ear_x,right_ear_y,right_ear_conf,left_shoulder_x,left_shoulder_y,left_shoulder_conf,right_shoulder_x,right_shoulder_y,right_shoulder_conf,left_elbow_x,left_elbow_y,left_elbow_conf,right_elbow_x,right_elbow_y,right_elbow_conf,left_wrist_x,left_wrist_y,left_wrist_conf,right_wrist_x,right_wrist_y,right_wrist_conf,left_hip_x,left_hip_y,left_hip_conf,right_hip_x,right_hip_y,right_hip_conf,left_knee_x,left_knee_y,left_knee_conf,right_knee_x,right_knee_y,right_knee_conf,left_ankle_x,left_ankle_y,left_ankle_conf,right_ankle_x,right_ankle_y,right_ankle_conf,acc_x,acc_y,acc_z,acc_mag
0,0.0,498.6641,25.810791,0.7829275,499.77695,22.113083,0.2611583,497.21582,20.47084,0.8365177,488.94208,20.358627,0.11281793,483.2041,17.253426,0.88411826,481.5308,42.694847,0.87730473,465.93372,41.346405,0.986427,478.30435,84.65032,0.5729693,457.38467,81.56303,0.96999234,488.4595,115.52605,0.5517531,473.6534,116.047485,0.93159205,482.8313,116.49902,0.9690193,472.55148,117.33843,0.989806,488.65985,171.46837,0.9542339,477.9185,173.83023,0.98462385,482.27838,221.39706,0.89319295,474.32446,228.03253,0.9437488,1.0576401,-0.34414926,0.9265746,-0.37632881
1,33.333333333333336,498.35538,25.506088,0.7558813,499.20978,21.780334,0.22868663,497.15707,20.161583,0.8191725,487.42963,20.171326,0.10501165,483.40158,17.203903,0.8822724,479.9707,42.727173,0.8667583,466.3976,41.714645,0.9851756,478.2171,85.169464,0.549374,459.92123,82.57005,0.9679852,489.01886,115.69853,0.5285762,476.09265,116.22589,0.9263417,480.7521,116.61257,0.96574056,471.77844,117.42369,0.9887687,487.5842,171.7338,0.9501048,478.02777,173.69223,0.9833239,482.1118,221.7312,0.88595676,474.56174,227.74948,0.9399447,1.04251117,-0.30877632,0.95850851,-0.26971869
2,66.66666666666667,498.0789,24.172165,0.74694973,499.0489,20.326813,0.22741283,496.6389,19.017593,0.81492555,487.60422,19.2471,0.10830245,482.99844,17.032692,0.8793029,479.52744,42.190834,0.85565937,467.0872,41.706482,0.9834172,476.5016,83.22389,0.5253032,461.88654,80.90008,0.9640705,487.1368,114.74982,0.5055686,478.366,115.14282,0.9182736,479.3307,115.995224,0.9611628,470.74335,116.964294,0.9871228,487.35065,171.43645,0.9437701,477.7734,173.56236,0.9810277,482.6512,221.3856,0.8747338,473.97476,227.41673,0.93334967,0.97603023,-0.22083525,0.93811993,-0.15426534
3,100.0,497.79034,24.506699,0.7191239,498.67767,20.609299,0.20039962,496.63742,19.338943,0.79545593,486.39948,18.922012,0.109033585,483.70047,17.002548,0.8786894,477.42358,41.06581,0.8525023,468.5834,41.10211,0.9833717,474.1743,81.86647,0.51997674,464.44458,80.149124,0.9651311,486.14655,113.393715,0.49889916,479.45847,114.429344,0.9182055,476.63348,115.33822,0.96265906,470.18918,116.41489,0.9878293,487.3586,170.74033,0.9467768,478.32224,173.00487,0.9824753,483.31342,220.51245,0.8822303,473.52084,227.28174,0.93839896,0.94090403,-0.21125508,0.90790554,-0.12798127
4,133.33333333333334,497.81445,24.393463,0.6724496,498.59097,20.37532,0.1635622,496.97495,19.204117,0.76325893,484.8897,18.21991,0.10991994,484.69415,16.81897,0.8787947,474.29785,39.7846,0.8452349,470.53363,40.492523,0.9828164,470.4901,80.05788,0.5068383,466.79745,78.97014,0.9652833,485.02905,111.481415,0.48815832,481.9877,114.12639,0.9165153,473.31152,114.162895,0.9617653,470.07654,115.51782,0.98772556,486.64047,170.04172,0.94569075,479.65317,172.9278,0.9824378,483.22458,220.12863,0.8789381,473.74384,228.23953,0.93711895,0.93465317,-0.29502017,0.87498906,-0.14468516
5,166.66666666666666,497.90253,24.365318,0.64004374,498.65042,20.143875,0.1390445,497.4612,19.0224,0.7462842,482.8743,17.230347,0.11979947,485.72592,16.280014,0.89168036,469.21857,38.262085,0.84818095,472.8749,39.27736,0.98364246,464.06976,78.64543,0.49788368,469.68005,76.590355,0.96640825,482.1006,110.0208,0.47830606,483.88736,111.72505,0.9154736,467.89996,112.53438,0.961029,469.21033,114.034775,0.9877229,485.34595,168.29272,0.9454909,480.2472,171.50125,0.9827375,484.32578,219.08444,0.8781864,474.03433,228.31598,0.93736994,0.96603882,-0.40433239,0.85214403,-0.20879862
6,200.0,498.028,24.755325,0.6562602,498.7691,20.289024,0.14799415,497.48053,19.438393,0.76912206,482.28314,16.766724,0.12840141,485.35687,16.46669,0.90529114,466.95148,37.496414,0.8491515,474.1003,39.57831,0.98357314,461.47205,78.96722,0.47457036,474.2175,78.03078,0.9632536,479.8891,112.33015,0.44974577,487.9938,114.39169,0.905553,465.95245,112.02534,0.95888436,469.02295,114.06316,0.9869931,484.65778,167.77977,0.9455426,478.8176,172.47826,0.98271734,486.58768,217.99802,0.8842517,473.43292,229.39192,0.9403081,0.97276521,-0.46304165,0.83347498,-0.19283167
7,233.33333333333334,498.26056,25.315231,0.64624506,499.02527,20.639862,0.14108184,498.00903,19.860474,0.7667719,481.2462,16.49601,0.14491689,486.58304,16.525772,0.9150722,464.42737,37.235207,0.8577558,476.09387,39.698944,0.98477536,458.24847,80.75021,0.47300306,477.5838,80.17188,0.9641832,479.61646,114.10187,0.4408912,493.44516,117.38934,0.902379,463.39395,112.0479,0.95906675,469.14404,114.22565,0.9871329,483.5758,168.35754,0.9447442,477.88373,173.1572,0.98253053,488.2194,218.22829,0.8818934,472.87152,229.97588,0.9390394,0.97075118,-0.46230472,0.83396627,-0.18202327
8,266.6666666666667,498.47394,25.40892,0.6535737,499.37122,20.527863,0.14510477,498.2804,19.857315,0.78110844,480.57648,15.964905,0.16018212,486.70886,16.353394,0.9248818,461.8163,36.750137,0.85887396,477.39645,39.96209,0.98485976,454.77005,80.91775,0.45164448,480.39227,81.38631,0.9614542,478.35962,113.120605,0.41625062,497.1909,118.22233,0.89219165,461.68704,112.14485,0.95499986,469.6903,114.71941,0.9858133,482.06223,168.57745,0.94059414,476.65015,174.4088,0.98105365,489.08148,218.22491,0.8759311,472.55588,231.65187,0.93520224,1.03129913,-0.53648964,0.86516324,-0.16507374
9,300.0,498.1594,25.363342,0.6183223,498.93945,20.435654,0.12563077,498.2518,19.721504,0.7456411,479.7041,15.727936,0.16276392,487.8115,15.925552,0.92255974,460.5714,36.651726,0.86333585,479.25424,39.36032,0.9856397,453.58328,82.55672,0.47697976,483.9065,81.948166,0.9656352,476.39014,116.007286,0.4402475,499.818,120.11406,0.9020927,460.07962,112.076126,0.95674664,469.93878,114.43478,0.98652494,481.273,168.56332,0.93752897,476.40753,174.51299,0.98032606,489.04675,218.39102,0.8607737,471.70932,232.4887,0.92736334,1.03894995,-0.56179112,0.85410919,-0.18521666
10,333.3333333333333,497.7992,25.765015,0.60963786,498.45013,20.790451,0.11675536,498.04004,20.015045,0.73310345,478.20047,15.806259,0.17624657,487.8952,15.945709,0.93062186,457.51392,36.473083,0.8860428,480.50146,39.20616,0.9883497,447.11035,81.982315,0.5249948,486.1147,82.031425,0.97154474,467.4176,114.265335,0.47812733,501.0896,121.032394,0.91523194,458.18408,111.76338,0.96528286,470.51672,113.99447,0.98932797,479.72006,168.67853,0.9470125,476.3962,174.27649,0.9835736,487.62537,218.15952,0.87343603,471.20715,232.05096,0.9349028,1.07392239,-0.63204572,0.84575725,-0.19627071
11,366.66666666666663,497.84952,25.283333,0.63294685,497.62708,20.17228,0.13617249,497.97504,19.679852,0.7210701,477.1855,16.051723,0.220777,488.64932,16.527134,0.93530506,456.6482,37.004856,0.9377943,483.2565,39.65419,0.9916351,442.1925,79.69803,0.65638614,491.32394,81.24567,0.9745112,457.03088,113.04607,0.51859206,501.7612,123.15518,0.90670764,458.65146,111.90518,0.9805742,473.3222,113.97731,0.9931143,476.27472,170.93631,0.94785994,477.96536,174.67224,0.98140347,484.51028,219.37646,0.85247976,474.10886,228.66516,0.9163649,1.08803764,-0.71384565,0.77427443,-0.27340337
12,400.0,496.7917,26.515915,0.6051831,496.47095,21.383476,0.13292003,497.19202,20.874474,0.6538601,476.21475,16.732273,0.26064125,489.40564,17.159538,0.9198363,456.08807,37.040985,0.95392644,484.82632,39.69992,0.9917075,440.8941,78.80572,0.75529563,493.16852,80.73417,0.9756074,453.9218,112.07507,0.62236154,502.76907,122.3015,0.9148903,458.14047,111.9328,0.98568916,474.25763,113.89984,0.9941048,474.90054,171.298,0.9557645,478.13483,174.96333,0.98178035,483.34033,218.91187,0.85558337,473.7961,227.89522,0.9107556,0.98212491,-0.66447091,0.68436819,-0.23385446
13,433.33333333333337,496.4789,26.655853,0.6144132,495.85443,21.474052,0.14627871,496.80334,20.955475,0.61304224,475.46274,16.684418,0.31065992,489.2739,17.16394,0.9078039,455.3806,37.03197,0.9707949,486.06613,39.74047,0.99226564,439.1151,78.37626,0.84784424,495.0297,80.79961,0.9762923,449.76935,111.90008,0.7318602,503.51782,122.59906,0.9220089,458.79227,111.58008,0.9904633,476.22064,113.36982,0.9951984,473.3488,172.25433,0.96616244,478.69302,175.31656,0.9830011,481.26675,220.5624,0.86836606,473.33185,227.7302,0.9086927,0.9306729,-0.55368482,0.73619938,-0.13264854
14,466.6666666666667,495.76517,27.237167,0.5742544,494.8657,21.93628,0.14247756,496.26123,21.49768,0.5174661,474.55304,17.216713,0.36703113,490.3885,17.904465,0.8804562,455.19418,37.819958,0.9789876,488.29388,40.545097,0.9915485,438.02286,79.147934,0.9013109,497.2262,81.656494,0.97389495,446.02347,114.23596,0.80198663,504.67987,122.85341,0.9195371,458.38184,111.84279,0.99261993,477.48898,113.3895,0.9954064,472.08398,172.45471,0.9702526,479.47125,174.83295,0.9816553,479.60202,220.94412,0.86762893,472.6576,226.2351,0.8964006,0.94564223,-0.56301935,0.7514294,-0.11225997
15,500.0,495.30762,27.206524,0.5537006,494.27762,21.874039,0.14287232,495.86655,21.449856,0.46914703,474.03262,17.467,0.40109614,490.8153,18.104137,0.8648967,455.1057,38.42631,0.98207444,489.95935,40.74054,0.9910557,437.7376,80.18299,0.91923577,499.01324,81.55887,0.9716817,444.41095,116.6947,0.825656,505.07254,122.46832,0.9153778,459.55423,112.18251,0.99364215,479.742,113.456856,0.9956001,471.9805,172.72368,0.97360885,479.6736,174.78487,0.9819449,479.9811,222.02687,0.8763182,472.35236,226.4896,0.89739424,0.99307649,-0.63351959,0.76150086,-0.07050024
16,533.3333333333334,494.26694,27.060482,0.5724846,493.2695,21.714973,0.16153972,494.695,21.324875,0.47147405,473.49905,17.506474,0.4391752,490.01138,18.197716,0.8603277,454.77756,38.774002,0.98448455,490.23013,40.99869,0.99107623,437.37802,80.80701,0.9288932,499.93155,82.15436,0.9700551,443.36646,116.84927,0.83984995,505.90314,121.98978,0.91262597,459.76556,112.11754,0.99418914,480.33707,113.311584,0.995689,471.54034,172.31868,0.9761331,480.0252,174.28975,0.98258036,479.18848,222.45976,0.8857414,472.4366,226.56413,0.90181315,0.98829394,-0.62271119,0.76518554,-0.05870926
17,566.6666666666666,494.1295,27.195084,0.5457985,492.9589,21.790485,0.14826353,494.6081,21.492958,0.43360782,473.24454,17.64215,0.43778926,490.6275,18.494694,0.85168046,455.08246,38.981724,0.9850824,491.20078,41.03392,0.9912409,437.41718,80.84111,0.93508995,501.03455,81.98828,0.971846,442.14926,116.234314,0.85223526,507.50598,121.73175,0.9182131,460.07764,112.184494,0.99481577,481.11963,113.25015,0.99611807,471.1399,172.87816,0.97810537,480.7443,174.59433,0.9839102,478.85648,223.88934,0.89046246,472.79208,227.44406,0.9057324,0.95123842,-0.57210823,0.75978134,-0.01670389
18,600.0,493.77402,27.213692,0.5311573,492.49057,21.754135,0.1450159,494.17758,21.50813,0.41242376,472.7457,17.740196,0.4451279,490.4076,18.6833,0.8454212,454.7297,39.526207,0.9854622,491.73962,41.050797,0.9907245,437.64066,82.12616,0.9367151,501.93677,81.837845,0.9696205,442.41956,117.512924,0.85328865,508.45438,120.850555,0.91355544,460.02686,112.30304,0.9948856,481.79724,113.12876,0.99602157,470.31094,173.42601,0.9787813,481.6328,174.91434,0.9838329,477.97934,225.04437,0.89326036,473.82132,228.108,0.90619713,0.92775014,-0.55614128,0.74234052,-0.0189147
19,633.3333333333333,493.94135,27.362106,0.5041889,492.53467,21.933525,0.13752967,494.3462,21.695961,0.37138912,472.9467,18.172977,0.44634905,490.9134,19.042542,0.8272524,455.36563,39.97547,0.98601365,492.6134,41.25479,0.9899187,438.41675,82.03854,0.9429587,502.86984,81.31533,0.96755844,442.0133,116.60599,0.86445194,508.1268,118.86415,0.91116977,461.09882,113.011795,0.99531156,483.07498,113.6859,0.9961184,470.4013,173.82736,0.98034006,482.21585,175.08151,0.98407817,478.13443,225.58038,0.89843947,474.4973,228.056,0.9075909,0.92121196,-0.54091126,0.74504262,0.03095133
20,666.6666666666666,493.62646,27.391685,0.46799546,492.08237,22.004097,0.1277087,494.07532,21.777767,0.3202786,472.77075,18.60807,0.4478463,491.18942,19.409546,0.79879194,455.99805,40.58676,0.9866122,493.26352,41.545486,0.9887748,439.97894,82.31273,0.9499022,503.83466,80.96176,0.965124,442.6702,116.37125,0.87792814,508.87018,117.583755,0.9087535,462.19632,113.36327,0.995908,484.26437,113.916405,0.9963445,470.72568,174.15422,0.98293674,482.98285,175.42776,0.9851479,478.6354,226.41815,0.90903986,475.15234,228.73944,0.913752,0.94953017,-0.59888358,0.73497116,0.05256812
21,700.0,492.9959,28.036503,0.4919198,491.21658,22.434849,0.14822687,493.1216,22.314533,0.33794704,472.61798,19.571259,0.47338533,491.65015,20.364044,0.8240882,455.59668,41.313515,0.9874308,494.18378,42.596886,0.99116313,441.58936,83.24742,0.9518586,504.03488,80.66794,0.97064924,443.92285,118.343666,0.8863545,509.41663,115.03462,0.92244077,461.0945,113.320076,0.99649733,484.36273,114.6918,0.99690825,471.16284,173.67569,0.98541033,483.85962,175.72601,0.9872815,478.65375,227.33044,0.9189811,474.36264,228.42445,0.924791,0.95202875,-0.61509618,0.72489969,0.05035732
22,733.3333333333333,492.09308,28.638222,0.44980502,490.26874,23.0746,0.13159953,492.36893,22.958149,0.29956034,472.09848,20.34885,0.4643667,492.04926,21.082493,0.8085544,456.17746,41.780716,0.98564214,494.93317,42.987667,0.9905346,442.98886,83.194725,0.947782,505.0103,81.09893,0.97061485,445.91113,117.04849,0.879829,510.58633,115.413055,0.9219856,461.88333,113.20191,0.9962358,485.28397,114.50179,0.99679095,471.8881,173.35023,0.9843349,484.16977,175.08704,0.9868499,479.13184,226.91501,0.9140332,474.00006,227.7066,0.9222764,0.9546997,-0.64015202,0.70721322,0.03881198
23,766.6666666666667,491.92383,29.36435,0.4386692,490.12305,23.84784,0.12785268,492.18896,23.68372,0.29477197,472.29584,21.142113,0.45357293,492.05405,21.71576,0.80381894,456.87454,42.624916,0.9838927,495.3702,43.141094,0.99005777,444.75928,84.4848,0.9410955,505.50192,80.640526,0.9698805,449.1783,119.6369,0.86727864,511.1121,114.71543,0.91990596,463.1636,113.20577,0.99596786,486.42188,114.229324,0.9966936,472.9096,172.86348,0.9842286,484.71222,174.39125,0.98729765,479.73206,226.45352,0.917736,474.22998,227.20622,0.9276431,0.97066975,-0.65071477,0.71924985,0.03807504
24,800.0,492.5408,30.225601,0.49109557,490.72684,24.756378,0.14791827,492.5165,24.54126,0.3535511,472.93942,22.045044,0.4491786,491.35416,22.498474,0.8300509,457.39957,43.618935,0.98402804,494.9178,43.796093,0.99100703,445.7482,85.29226,0.93624866,505.7872,80.7877,0.9713259,450.72043,120.237,0.8587955,511.24768,114.60013,0.9225811,464.2997,113.48957,0.99576306,486.85147,114.326065,0.99668735,473.73404,172.63403,0.9840545,484.85504,173.57773,0.9877307,480.12186,225.90778,0.92016816,474.3708,225.71835,0.93182176,1.1167726,-0.66447091,0.89169295,0.10267979
25,833.3333333333334,492.6078,31.240005,0.4808915,490.78735,25.834633,0.14424194,492.6126,25.526756,0.34263662,473.2055,23.105812,0.4423801,491.4811,23.38041,0.820661,458.15308,44.681747,0.9834674,494.9574,44.35047,0.9906006,446.88614,86.38412,0.93531823,506.1077,80.92653,0.9708311,453.04218,121.20743,0.8580164,512.54193,114.18893,0.9219726,465.18536,113.67455,0.9958311,487.27682,114.219955,0.99672997,474.55032,172.7,0.9849364,485.13165,172.76573,0.9883836,480.89642,226.55136,0.92584044,474.56165,225.12486,0.9367992,1.42068768,-0.68829852,1.23952689,-0.09039752
26,866.6666666666667,492.4651,32.0704,0.49722952,490.5067,26.749886,0.14706571,492.27936,26.368027,0.37001953,472.93558,24.011223,0.41816607,490.52625,24.165047,0.83240473,458.39755,45.36702,0.9818547,494.08636,44.811386,0.9907318,448.14886,86.00347,0.9274611,506.11768,80.815285,0.97181016,455.68253,117.5596,0.84889,513.0758,113.2701,0.9247915,466.13428,113.59241,0.9953407,487.48557,113.9805,0.9965432,475.57452,172.83206,0.9833347,485.477,172.0277,0.9878209,481.2495,226.25589,0.91970485,474.1792,223.56033,0.9338618,1.57079887,-0.56301935,1.44439518,-0.25326045
27,900.0,492.15594,32.673508,0.4835205,490.25626,27.483337,0.14007597,491.94403,27.065178,0.36819774,473.11844,24.889114,0.38881278,489.99548,24.91999,0.82470936,459.11362,46.132378,0.97811586,493.42694,45.20605,0.98979914,449.65842,86.524704,0.9137978,505.33038,80.147675,0.97046196,457.82227,118.60344,0.82862514,512.8413,111.42079,0.9221912,467.16824,113.852875,0.9948283,487.6833,114.17015,0.9963547,476.5379,172.0661,0.98295194,486.26624,171.64246,0.9882195,480.96146,225.10558,0.92352396,474.6112,223.37234,0.93917185,1.05338241,-0.23925866,1.02483277,-0.04569005
28,933.3333333333334,492.14102,33.564915,0.45967513,490.1319,28.443222,0.12721671,491.98358,28.025543,0.3522529,473.02698,25.816635,0.35945663,490.01843,25.821815,0.81624746,459.64655,46.84585,0.97551775,492.91513,45.641975,0.98915344,451.16907,86.85608,0.9064128,504.7625,79.899864,0.97018695,460.07422,118.086075,0.8187472,513.10046,110.73042,0.9216021,467.4125,114.45545,0.99479705,487.3863,114.694786,0.9964311,476.84476,172.11185,0.9836564,486.8002,171.52386,0.98905003,481.29263,224.9059,0.9293779,475.41537,223.04066,0.9449821,0.91550299,-0.21764186,0.88678004,0.06632427
29,966.6666666666666,492.21024,34.02175,0.45716912,490.12805,29.012634,0.123609774,492.0581,28.55154,0.36237553,473.1355,26.657948,0.33360636,490.01437,26.591084,0.8169108,460.53574,47.60273,0.9703166,492.5408,46.219765,0.988399,452.24902,87.467514,0.8883099,503.8202,80.1062,0.9697319,460.87946,118.55133,0.7954588,513.15906,110.608475,0.9209008,468.8878,114.795654,0.99331456,488.0467,115.00191,0.9957136,478.7965,172.5982,0.97861904,488.6597,171.95271,0.98658895,481.958,225.4657,0.91010064,476.10754,223.6195,0.9325102,0.97211237,-0.26971869,0.90962506,-0.21174637
30,1000.0,491.9749,33.210358,0.43112332,490.75726,28.681427,0.09591676,491.6507,27.847046,0.38741317,474.75412,27.403755,0.23221862,489.12485,26.53109,0.82781994,461.16357,48.747147,0.9180388,490.60434,47.751617,0.9876481,453.8114,88.41258,0.76569355,502.1099,82.26048,0.9767769,461.97363,116.24816,0.72695243,510.74365,112.36265,0.94500786,470.03378,115.61363,0.9821859,486.9367,116.33296,0.9928063,481.6717,169.94312,0.97029907,487.21048,171.53099,0.98781246,483.39743,222.17383,0.9072347,476.2609,226.40933,0.9464164,1.05895891,-0.24343463,0.98209047,-0.312461
31,1033.3333333333335,491.9254,33.601532,0.41091526,490.7077,29.191544,0.09126395,491.6921,28.231125,0.37189952,474.79742,28.114235,0.22604413,489.41107,26.958794,0.81939936,461.56616,49.33383,0.90948206,490.80914,47.951645,0.98630905,454.99323,88.509995,0.7443771,501.80667,82.34641,0.9742895,464.16022,115.184364,0.70365846,510.51727,112.33001,0.9393252,470.6347,115.51471,0.98058677,487.57007,116.01827,0.99217755,482.24713,170.1477,0.9692993,488.3453,171.07909,0.9874699,483.26193,222.45647,0.9082106,477.3973,225.88852,0.947332,1.07871888,-0.22083525,1.00911147,-0.31074148
32,1066.6666666666667,492.09818,34.05139,0.41681927,490.70154,29.665405,0.088986374,491.75635,28.725807,0.396329,474.86765,28.616013,0.20055263,489.31372,27.50711,0.8310823,462.20483,49.691917,0.89459753,490.39526,48.105026,0.986463,456.95697,88.017746,0.7023946,501.15018,82.4348,0.9752246,466.4694,112.99248,0.6675207,510.1983,112.653496,0.9408412,471.07266,114.89709,0.9775888,487.53912,115.33625,0.9917333,483.96133,167.79175,0.96689576,491.03494,168.23642,0.98770976,484.0171,220.9961,0.9082776,479.78387,223.81615,0.9505405,1.02419983,-0.1373158,0.99019677,-0.22280041
33,1100.0,173.89006,14.478161,0.6098575,172.23059,9.783611,0.18927135,171.72928,9.508488,0.5286883,155.50417,11.089443,0.36237752,165.31494,12.044773,0.8756447,140.09949,36.698647,0.9748946,170.94244,37.081356,0.9910182,131.3676,75.26195,0.88297856,185.10626,71.51878,0.97078717,141.93147,103.42166,0.7988927,194.93066,103.96379,0.9262595,153.3711,105.99469,0.9918234,171.79796,107.48825,0.9949058,163.43672,170.20169,0.9710457,177.65793,172.16873,0.98193663,161.39311,222.8129,0.8650865,165.11029,224.48645,0.8968688,0.97231343,-0.25350609,0.92215298,-0.17539084
34,1133.3333333333333,492.23297,35.19979,0.38935786,490.43027,30.744019,0.085376814,492.3868,30.134727,0.39912096,473.11475,28.865685,0.23670118,489.6328,28.838463,0.83884746,461.98636,49.64276,0.93292344,492.08572,48.19886,0.9847685,455.8442,85.71014,0.72046655,501.7667,80.80196,0.9635587,468.05142,107.15235,0.5898122,512.3198,112.79488,0.89445454,472.1698,113.98704,0.9879979,490.85608,114.099144,0.9946715,485.2664,165.06891,0.97533983,497.5991,165.82602,0.9896478,483.0285,213.69449,0.9328671,484.78043,218.35233,0.9601855,0.95294668,-0.31123277,0.88039326,-0.19012957
35,1166.6666666666667,492.679,35.011986,0.392631,490.82675,30.588505,0.08664572,492.76144,30.00909,0.40208218,473.49072,29.149635,0.24231254,490.09018,29.271935,0.84323066,462.55127,50.194397,0.9374597,492.41434,49.016903,0.9856044,456.29742,85.605896,0.7284151,501.69968,81.697426,0.96414983,468.41626,105.964874,0.5938919,512.1577,113.94435,0.89421284,472.45688,113.91173,0.9891888,491.16684,114.09093,0.99514836,486.62045,164.45346,0.978685,499.78516,164.52924,0.99099976,484.2653,213.48557,0.9428763,487.4735,216.83217,0.9662352,0.89672154,-0.23803043,0.82315787,-0.26431449
36,1200.0,492.98795,35.164867,0.37541407,491.24493,30.72855,0.08353403,493.03552,30.197552,0.38730943,473.90753,29.369572,0.2511272,490.561,29.70396,0.8413348,462.56982,50.35286,0.9369887,493.1381,49.686638,0.98504055,456.54276,84.84007,0.7197487,502.00208,82.38898,0.9611263,470.39624,102.861786,0.5808269,511.8562,114.59147,0.88435644,472.1359,113.286736,0.9892792,491.6535,113.68345,0.99509996,486.4448,163.97374,0.9800448,501.36667,164.01233,0.9914302,484.04227,212.3154,0.9480621,490.3165,215.60951,0.96907806,1.05710069,-0.3205673,0.93885687,-0.36502912
37,1233.3333333333335,493.45782,35.1277,0.38687968,491.77982,30.72319,0.08743287,493.44006,30.192383,0.40287498,474.50122,29.615486,0.25771132,490.89832,29.915695,0.8504659,462.9496,50.966595,0.9399407,493.523,50.170403,0.9859907,457.26392,85.52375,0.7165998,502.31348,82.8169,0.9613741,471.28433,103.114075,0.57185954,511.4039,114.6965,0.88258576,472.1871,113.12192,0.98996687,491.94046,113.48579,0.9954485,486.57468,162.98737,0.9824876,502.54788,162.8736,0.9925678,484.38773,210.60628,0.9562531,492.8122,213.73436,0.97426957,1.02711212,-0.37976785,0.90078183,-0.3151631
38,1266.6666666666665,494.14227,35.019638,0.3045313,492.6146,30.448738,0.050363686,494.03168,30.129555,0.34004983,474.74158,29.711884,0.19087826,491.72025,30.16761,0.8656047,462.00156,50.945953,0.9181448,494.80225,50.142975,0.98848957,458.92834,85.909225,0.6669957,502.91873,83.648125,0.9736549,471.03647,102.58011,0.5643273,510.40112,114.34126,0.9209842,471.25302,112.60791,0.9900181,492.38153,112.76398,0.996467,486.01352,161.72836,0.98859286,503.07977,161.16974,0.9962126,485.77185,208.78708,0.9748482,497.4678,211.4433,0.98762894,0.99047428,-0.36576606,0.8671284,-0.30877632
39,1300.0,494.18085,34.9619,0.28381556,492.8427,30.428917,0.04695972,494.18207,30.11544,0.32348126,475.18304,30.041077,0.19130912,492.36346,30.457481,0.8621104,462.46918,51.37822,0.9110462,495.46967,50.662132,0.9881259,459.70306,86.62225,0.6406297,503.23788,84.392334,0.97256696,472.5409,103.822464,0.5341433,510.563,114.60283,0.91546977,471.67365,112.60953,0.9897015,493.10092,112.81296,0.9964557,485.9296,161.1966,0.98895943,503.76675,160.5104,0.9964353,486.36774,208.56499,0.9769687,500.22443,211.07938,0.9889131,0.97427224,-0.3259715,0.85951339,-0.32277811
40,1333.3333333333333,494.99518,34.939774,0.30041358,493.82462,30.449997,0.050103545,494.88324,30.150314,0.35686237,476.2636,30.25444,0.19088422,492.63004,30.609985,0.8772833,462.92972,51.61223,0.90702254,495.98105,51.05683,0.98890126,460.3704,86.15677,0.60506743,503.9664,84.52217,0.9725346,473.2081,102.880905,0.49536923,510.58633,114.81854,0.9120412,472.48737,112.44918,0.9895629,494.0818,112.754944,0.9966042,485.4153,160.93411,0.9897737,504.18848,160.54134,0.9968726,486.3226,207.97638,0.9802269,502.78055,211.06042,0.990824,0.99746526,-0.33186699,0.87474341,-0.34586878
41,1366.6666666666667,495.20728,35.493362,0.29427952,494.15472,30.999054,0.051327787,495.15808,30.623085,0.3473036,476.69083,30.77037,0.20501506,493.26334,31.001831,0.87286955,463.50827,52.215668,0.9092723,496.7161,51.437622,0.988431,461.1627,86.85764,0.6022033,503.98953,84.706276,0.96957874,475.43823,103.45532,0.4827818,510.78397,113.82591,0.9013134,473.3421,112.97156,0.98961616,495.38535,113.06862,0.9964923,485.35516,161.70691,0.99020517,505.70486,160.0543,0.99687994,486.69562,208.96426,0.9816429,506.2893,209.81705,0.9912964,1.01165599,-0.35716847,0.86590017,-0.3822243
42,1400.0,493.90015,35.012375,0.24346201,493.15085,30.575333,0.047638126,494.1284,30.180481,0.2609849,476.9762,30.930878,0.23622456,494.3178,30.980751,0.82594657,464.80792,52.854523,0.9133314,498.2958,51.852295,0.98553455,462.4461,87.56915,0.6425065,504.836,85.25513,0.96238613,476.17828,104.64677,0.5100376,510.80945,114.098785,0.8833877,474.007,113.29942,0.9905409,496.57303,113.31358,0.99633056,484.9275,161.79416,0.99098283,506.74,160.17586,0.9967219,486.47833,208.6828,0.9826497,508.59546,209.63657,0.9910806,0.98630783,-0.37215284,0.8617242,-0.30288083
43,1433.3333333333333,491.86896,34.617554,0.21945427,491.56488,30.296158,0.050239816,492.3505,29.86853,0.19659461,477.53836,31.242546,0.30230698,495.14413,31.118347,0.76738775,466.22964,53.485893,0.9335543,500.3307,52.155914,0.9847258,462.34726,86.33248,0.7328804,506.41815,85.163635,0.9600109,475.80334,101.8524,0.5931621,512.029,114.626495,0.8800879,474.87128,113.54714,0.9931594,498.0287,113.2868,0.9968548,485.0613,161.56961,0.99302614,508.37357,158.88431,0.9970208,486.9289,208.06714,0.9853725,511.83298,207.46509,0.99173623,1.00866181,-0.39647174,0.86368937,-0.33800812
44,1466.6666666666665,494.52524,34.862595,0.23973341,493.94232,30.520355,0.051984333,494.66714,29.983688,0.22617514,478.5841,31.406807,0.28835782,495.73502,31.138077,0.8029571,466.30496,53.890457,0.9370871,500.78766,52.288055,0.98626626,462.8324,86.88457,0.7279908,507.5471,85.10774,0.9613948,476.80362,101.8532,0.5835119,512.35956,114.07565,0.8812538,475.95865,113.90071,0.9930957,499.45862,113.42081,0.99687946,485.34866,162.68665,0.9929066,509.32388,158.85335,0.9969854,487.27356,208.779,0.9851462,513.50775,205.94403,0.99162114,1.00770661,-0.40040207,0.85288097,-0.35741411
45,1500.0,493.29916,35.776802,0.24202785,493.1101,31.480927,0.066155985,493.64493,30.84018,0.18362089,479.7023,32.361755,0.394751,496.9442,31.867172,0.7408993,468.18765,54.866035,0.957739,503.11133,53.003716,0.9847958,462.47952,87.323975,0.81922626,509.4931,86.14784,0.9530564,475.87888,103.37902,0.67643124,513.98285,115.13103,0.8646734,477.2097,114.83808,0.9946872,501.20734,113.964836,0.99686915,485.5276,163.3984,0.9939349,510.89224,157.56183,0.99664426,487.8997,209.76373,0.9858517,516.77234,203.19145,0.99062693,0.99993352,-0.4119474,0.83715966,-0.35962492
46,1533.3333333333335,493.44974,36.188934,0.23981097,493.38855,31.932304,0.06896331,493.89337,31.243027,0.16869546,480.48874,32.910706,0.431287,497.9209,32.311844,0.72294533,469.01953,55.37182,0.96399665,504.6332,53.46779,0.9853381,463.01035,87.847946,0.8471774,511.09885,86.59509,0.95376575,477.1067,104.58349,0.7109726,515.3273,114.80939,0.8668631,478.1398,114.96022,0.9954181,502.69046,114.011604,0.9971103,485.90585,163.21747,0.9945083,511.93774,156.92969,0.99674594,488.15195,209.30319,0.9865303,518.5213,201.82346,0.99070144,0.99953987,-0.42865129,0.83224675,-0.3502904
47,1566.6666666666667,492.2492,36.54181,0.2543608,492.51047,32.317818,0.09221404,492.90594,31.638618,0.14094551,481.94293,33.423904,0.54344,499.05463,32.736343,0.64602643,471.0865,56.027252,0.97624004,507.04688,53.93344,0.98354316,463.36368,87.931915,0.90578246,513.2874,86.85358,0.9435268,475.84494,105.50647,0.79319495,516.5031,114.38399,0.8524014,479.1982,115.27377,0.99649626,504.05768,114.15169,0.9970892,486.11105,163.25165,0.99536824,513.1337,156.55121,0.9964059,488.69565,209.43259,0.987171,520.3381,200.7078,0.98952675,1.01406523,-0.4470747,0.82684255,-0.38050479
48,1600.0,492.33298,36.74704,0.25298652,492.56708,32.59983,0.09510009,492.97806,31.949959,0.1288471,482.8064,34.210464,0.5654421,499.79642,33.517258,0.6243675,472.63382,57.039825,0.9791622,508.1808,55.032623,0.9841376,464.06677,88.03501,0.9210308,515.97406,88.01172,0.94564855,475.3373,105.59033,0.8184622,519.54553,114.98688,0.85844755,480.42422,116.00578,0.9967579,505.0087,114.69222,0.9971596,486.0385,163.57523,0.9952722,513.46875,155.50607,0.99611974,488.85883,209.3759,0.98596084,521.89294,197.99625,0.98816943,0.98995225,-0.44216179,0.79982155,-0.38050479
49,1633.3333333333333,489.34634,37.117752,0.2659983,489.88644,33.03743,0.12295855,490.53235,32.333908,0.105688766,483.1367,34.844604,0.6627911,500.0552,33.914024,0.52975476,474.60492,57.991577,0.98555005,509.80682,55.632774,0.982313,464.44464,88.610596,0.9495637,517.6759,88.33075,0.9356895,476.07098,108.48878,0.8696759,521.1874,114.66725,0.8459959,481.9901,117.128,0.9974139,506.3988,115.39101,0.9971257,486.75165,163.83145,0.99584866,514.0249,154.1607,0.99570894,489.39926,209.48834,0.9863768,522.76746,195.0445,0.98682624,1.00527604,-0.44781164,0.82070141,-0.36945074
50,1666.6666666666667,487.97427,37.409096,0.25945532,488.5161,33.369537,0.13113128,489.58838,32.698845,0.08511315,483.8587,35.381035,0.6956268,500.9344,34.323494,0.45600992,476.45068,58.699455,0.98820996,511.2814,55.877556,0.9811265,465.4263,89.936775,0.9635123,519.29376,88.98464,0.93286836,475.23505,112.10039,0.90053374,522.499,115.93227,0.8493122,483.01205,116.98811,0.99781716,507.1679,114.98854,0.9972209,487.3501,163.5319,0.9961754,514.97595,153.48938,0.9955005,489.93817,209.21735,0.9861459,523.6962,193.81491,0.9855278,1.01210524,-0.45837439,0.78410024,-0.44658341
51,1700.0,491.2508,37.866623,0.27413717,491.57516,33.75093,0.13891785,492.5324,33.1596,0.089136854,485.87152,35.605103,0.7059872,503.0574,34.84513,0.4717782,477.98123,58.766525,0.9897681,513.04083,56.408524,0.9824714,466.37418,90.513275,0.96897686,520.6458,89.083664,0.93606037,473.93692,115.801216,0.9130225,522.7351,115.332535,0.8577448,484.02808,116.79497,0.9980197,508.3328,115.01016,0.9973646,488.19858,163.23299,0.9963527,515.9521,153.67029,0.9954852,490.407,209.39435,0.98610836,523.6496,194.01062,0.9849629,1.04353204,-0.44633776,0.82684255,-0.45395277
52,1733.3333333333335,495.8713,39.379936,0.29937097,495.841,35.178253,0.14043744,496.53592,34.5997,0.10935073,487.9315,36.332222,0.6826507,504.98312,35.702377,0.54162383,478.99603,58.77706,0.9898407,514.24677,56.43042,0.9852121,467.41602,90.736145,0.9681561,522.27734,88.22778,0.94575995,472.78973,118.27112,0.9127499,524.26776,116.564255,0.8753668,485.35297,116.60811,0.99798113,509.7316,114.969055,0.9974988,489.01953,162.72415,0.99612516,516.91486,153.83539,0.99548376,490.81406,208.68597,0.98511153,523.28326,194.12643,0.98439306,1.06079226,-0.39450658,0.88579746,-0.43012516
53,1766.6666666666665,495.75363,39.722794,0.31033358,495.86606,35.53411,0.15124552,496.6837,34.976723,0.1036097,489.48987,36.591385,0.70762795,506.4379,35.86682,0.51743823,480.93948,58.883476,0.99098736,516.5004,56.558167,0.9863391,467.99368,90.56505,0.9733157,525.1177,88.29792,0.9511024,472.3114,118.89226,0.9267173,526.8091,116.77951,0.8893335,487.24496,116.641815,0.9981446,511.73276,115.041725,0.9976553,490.18304,162.12137,0.996117,518.095,153.89238,0.995398,490.93732,207.61708,0.9837922,523.6683,194.30327,0.9828721,1.10781782,-0.33309522,0.99977694,-0.34169281
54,1800.0,496.36664,38.72682,0.37607786,497.11087,35.37188,0.19105925,498.4296,34.62684,0.14400573,491.9458,37.677315,0.67487764,507.84528,35.980225,0.4744203,485.11185,60.204758,0.9863602,517.19055,57.601913,0.97747016,472.03217,92.09653,0.9599874,528.0303,89.59274,0.93012434,471.13327,118.81795,0.9011185,526.7355,117.61547,0.85996777,489.76746,116.50058,0.9952246,511.87003,114.3106,0.99430037,489.93042,162.30183,0.9899541,519.527,154.90643,0.9890899,490.75345,205.78108,0.9625583,527.0213,196.2106,0.9624441,1.20005239,-0.35864234,1.09754382,-0.32695408
55,1833.3333333333333,496.55182,39.049194,0.37920487,497.34857,35.69838,0.20744802,498.67822,35.08017,0.13108292,493.37512,37.855637,0.694941,508.7584,36.33647,0.42343128,487.33875,59.674942,0.9877822,518.45746,57.85318,0.97512895,473.77258,90.390656,0.96771896,529.41486,89.96319,0.92440283,469.99078,116.58451,0.9182147,527.7554,117.3096,0.8581922,491.941,116.12795,0.9956864,513.26794,114.33016,0.9942609,490.98837,161.16866,0.9906061,519.9217,155.31082,0.98865986,491.45007,204.45624,0.9632077,526.6559,196.92537,0.9604596,1.15259775,-0.33727119,1.04792345,-0.34144716
56,1866.6666666666667,497.35577,39.55242,0.38205037,498.0702,36.217453,0.21703568,499.43906,35.628227,0.12658608,494.41052,38.042046,0.7034588,509.67056,36.546738,0.40373263,489.0283,59.21601,0.9886596,519.3573,57.571144,0.97446114,475.48856,89.442856,0.9713334,530.0785,89.65884,0.9224515,470.06717,115.171974,0.9255983,528.15753,116.68283,0.8578482,493.7946,115.80642,0.9961952,514.54126,114.07093,0.9946601,491.9217,161.09396,0.99173695,520.0594,155.629,0.9894846,492.1897,203.89996,0.96732414,526.0243,196.74316,0.96368444,0.9926717,-0.27610547,0.93910252,-0.16507374
57,1900.0,497.85797,40.515305,0.40105242,498.5478,37.144714,0.23874097,499.99234,36.659035,0.12608524,495.52585,38.44062,0.7234413,510.65146,37.148148,0.3833466,490.71848,58.76059,0.9902001,520.5101,57.669548,0.97474605,476.89877,88.35956,0.9766236,531.4111,90.269745,0.9233987,470.11813,113.750244,0.9382182,530.3581,117.58327,0.86411774,495.42343,115.21567,0.9966336,515.6835,113.70656,0.9949287,492.67078,160.12938,0.9923497,520.1791,155.36136,0.98954517,493.18317,202.63185,0.96831346,525.55865,196.19386,0.96310556,0.96968169,-0.24343463,0.93075057,-0.12134885
58,1933.3333333333333,497.825,40.73507,0.4016777,498.59692,37.356552,0.2571575,500.15744,37.008728,0.116883904,496.92224,38.41153,0.7368628,511.76645,37.24996,0.33718833,492.6717,58.188713,0.9901182,522.10675,57.242424,0.97025025,479.2387,87.39299,0.97825193,532.35156,89.49852,0.9117137,471.28363,111.70789,0.9430318,530.1805,116.34413,0.8542655,496.9088,114.16129,0.99647933,516.8478,112.90834,0.99426115,493.34686,158.11607,0.9920196,520.1862,155.3252,0.98824036,494.12158,199.5109,0.96677643,524.6021,196.24402,0.95931125,0.91958137,-0.23704785,0.88456923,-0.08351945
59,1966.6666666666665,497.84796,41.652603,0.34758973,497.8263,37.583252,0.22098336,499.4541,37.506027,0.083331436,496.7413,37.97509,0.7497847,512.82806,37.38681,0.3570098,491.8488,57.404022,0.99249834,524.15204,56.06089,0.98139566,480.3009,86.68567,0.98400927,532.1212,87.86656,0.9383445,473.60938,110.509026,0.95631623,529.4057,113.94902,0.890297,496.8629,112.80791,0.9984517,518.8782,112.200966,0.99747413,494.36505,155.86353,0.99668944,520.7443,154.62161,0.9950079,494.74594,197.95769,0.9846882,522.81067,195.27527,0.98106796,0.98353912,-0.40310417,0.89095601,-0.10513625
60,2000.0,496.6022,41.58638,0.38019067,496.93655,37.56949,0.2684738,498.62302,37.462677,0.0849719,498.25073,37.993042,0.7837521,513.22345,37.18595,0.3178622,493.44186,57.625687,0.99316096,525.33875,55.807785,0.97908735,481.11835,86.79553,0.985443,532.58765,87.209816,0.9263654,475.43295,110.43844,0.95972323,529.0388,112.69844,0.8768644,497.77646,112.551506,0.998425,519.4723,111.735054,0.99715084,495.00818,155.72696,0.9967235,520.95416,154.60352,0.9945463,495.52365,197.84328,0.9847631,523.3837,195.4986,0.98000425,0.95965088,-0.35544895,0.87891938,-0.14861549
61,2033.3333333333333,495.53278,41.75921,0.42178497,496.08264,37.750404,0.32227024,497.7018,37.710052,0.09333566,498.85223,38.086685,0.80944794,512.835,37.260918,0.30326712,494.23462,57.67788,0.99376994,525.83417,55.66079,0.9778476,482.9169,87.60203,0.98645025,533.1541,86.7498,0.9172269,478.16156,112.8323,0.96228236,528.91754,112.45375,0.8681466,498.9029,111.75356,0.9984652,520.2455,111.090454,0.9970162,496.44592,154.2635,0.99697685,521.0586,154.48918,0.99462163,498.0769,195.9044,0.98633844,523.7048,195.62999,0.9813074,0.95456443,-0.32130423,0.88653439,-0.14836985
62,2066.666666666667,494.96158,42.385574,0.47208837,496.30508,38.473785,0.37765047,497.7429,38.41867,0.1193755,499.0679,38.566666,0.8316129,512.3961,37.51854,0.2893968,495.7059,58.424026,0.9941115,525.70605,56.29071,0.969274,485.23895,88.60105,0.9857525,533.1607,87.08678,0.8852458,479.68317,113.82151,0.95633686,529.3476,112.72087,0.8206944,500.28256,111.56131,0.9977984,520.25134,110.27283,0.9952626,496.7469,153.62982,0.9952081,519.80457,153.95316,0.9908612,499.71225,194.59169,0.97856605,523.4958,196.26935,0.96903205,0.94839263,-0.33456909,0.87425212,-0.15230017
63,2100.0,494.82483,42.629852,0.48702347,496.22095,38.753754,0.39234835,497.58734,38.748245,0.12814103,499.15683,38.740402,0.8308262,512.01697,37.787506,0.29161206,496.03296,58.112267,0.9937636,525.48004,56.264908,0.96856457,486.7514,87.78458,0.98482925,533.16486,86.37167,0.8836594,482.43475,113.3938,0.9549563,529.7714,111.54637,0.8202365,501.27612,110.39864,0.99758494,520.8442,109.30944,0.9948925,497.20425,152.1436,0.99480706,519.4199,152.99147,0.99022335,500.87115,193.01337,0.97723085,523.5829,195.37944,0.967351,0.96422531,-0.39524351,0.87695422,-0.06681556
64,2133.3333333333335,494.636,43.165237,0.5130441,496.02924,39.16744,0.4315283,497.18753,39.102673,0.14340569,499.19342,39.016148,0.85262734,511.6167,37.926815,0.32267514,495.7606,58.765976,0.99466586,525.6292,55.96559,0.971068,486.83554,88.82026,0.9846073,533.5245,86.47235,0.8731972,483.91345,114.1302,0.9471993,529.7385,111.68299,0.7876432,501.75134,110.63101,0.99789184,521.3724,109.13066,0.99536914,498.5078,152.35413,0.99533576,519.2364,152.43124,0.9909061,502.63916,192.56989,0.9796871,524.2104,194.2237,0.9700289,0.95631423,-0.46230472,0.83691401,0.01965164
65,2166.6666666666665,493.27106,43.19037,0.123905025,493.7622,39.447235,0.14188205,494.54428,38.89019,0.027786812,496.25818,39.85753,0.907524,510.6067,38.045258,0.3924811,494.67035,58.595802,0.9928888,522.98834,55.470886,0.9875969,489.90356,89.3127,0.9673458,533.71985,84.25075,0.87400746,487.34753,116.17816,0.8494516,530.56146,110.955284,0.64669377,504.1482,109.24241,0.99798965,522.71625,107.884415,0.9972715,500.95914,151.172,0.9959669,519.322,150.24931,0.9929992,504.92923,194.75288,0.9871967,521.4554,192.15121,0.98062587,0.88590859,-0.3746093,0.79957591,-0.07197411
66,2200.0,493.35468,43.07419,0.56077945,495.00256,39.24852,0.4941937,495.8577,39.26071,0.17316535,499.3154,39.11223,0.8458307,510.08475,37.943756,0.3043813,497.40485,58.336273,0.99268204,524.5936,56.0001,0.962529,491.66736,88.78474,0.9798799,532.81464,85.33548,0.84894437,487.90244,115.267654,0.9422023,528.1264,109.42001,0.77883756,503.98862,109.11499,0.99657094,522.01636,108.105194,0.99273324,499.63663,150.67747,0.99344194,519.33026,152.73666,0.9876704,504.14624,190.51315,0.9748598,523.7159,194.84355,0.9640129,0.90657163,-0.4794999,0.76739635,-0.05527022
67,2233.3333333333335,492.2959,43.71924,0.14133187,492.8798,40.02707,0.1745438,493.4857,39.413696,0.02810693,495.8359,40.512085,0.9195466,509.64185,38.583885,0.33366325,495.5639,59.005035,0.9926524,522.35077,55.77855,0.98313254,492.92892,89.01687,0.9673523,533.18207,84.14562,0.8178547,490.25345,114.11915,0.84865874,527.4715,109.99335,0.5701182,505.05472,108.87792,0.99747676,522.87933,107.412125,0.9960181,501.68246,150.19147,0.99507743,520.1443,149.17546,0.9900872,505.165,192.55988,0.9847536,522.6173,189.67647,0.9742847,1.14274546,-0.85877646,0.73841019,-0.15205453
68,2266.6666666666665,491.34207,44.276825,0.17012164,492.0305,40.601387,0.22253387,492.53186,40.01631,0.03112373,495.468,40.970757,0.9333132,508.90253,39.07183,0.30267248,495.75696,59.36812,0.9933395,521.7415,55.973236,0.98130417,493.6407,89.21095,0.9708818,532.6825,83.27784,0.7816685,490.22592,114.14406,0.8623792,525.31903,107.79503,0.5333854,505.11307,109.06996,0.9973162,522.48645,107.54597,0.9952614,502.60284,149.68456,0.9947454,520.67096,148.66208,0.98817843,505.6756,190.90141,0.98364073,522.9198,187.93,0.9701295,0.73532456,-0.0135105,0.65071477,-0.3421841
69,2300.0,490.44858,44.660065,0.19033991,491.18198,40.992996,0.25793383,491.6679,40.421066,0.033648744,494.88202,41.362015,0.94158405,508.06873,39.47174,0.29053625,495.38705,59.833374,0.9935777,520.9163,56.449905,0.9796092,492.89252,89.578445,0.9711855,531.6881,83.55529,0.7459946,488.83517,115.34861,0.8625518,524.30945,108.478546,0.49492982,505.14255,109.12056,0.997044,522.1362,107.62248,0.99441576,503.02722,149.15451,0.9943837,520.5304,148.17584,0.9864884,505.8266,190.00491,0.98312885,522.38324,187.03012,0.96768594,0.74151737,-0.09531043,0.72784744,-0.1048906
70,2333.3333333333335,489.37106,44.98941,0.6214171,491.2209,41.118607,0.6221814,491.32233,41.173744,0.20832951,497.1298,40.398987,0.8723076,505.2036,39.185867,0.2705052,496.68478,59.15735,0.9917203,521.4123,56.444855,0.9380328,493.24414,89.27809,0.97553295,529.95087,84.09337,0.7326957,486.85803,115.496,0.9278199,521.70215,106.97072,0.66241056,504.95844,108.894714,0.99471927,521.3124,108.077,0.9865557,502.24756,147.70073,0.99160683,520.03534,151.34279,0.98131335,506.69455,185.62459,0.97359926,523.6502,192.42691,0.9578989,0.9671021,-0.4686915,0.8428095,0.07271105
71,2366.6666666666665,488.21014,45.97915,0.30292457,489.32477,42.27265,0.43655792,489.40454,41.794792,0.04662356,494.13663,42.19905,0.963619,506.14682,40.47573,0.23278277,495.23422,60.251648,0.99501145,518.753,56.91411,0.97471833,491.97946,89.974075,0.97697407,527.93884,83.23863,0.61674553,486.90552,115.42082,0.8871077,518.28534,106.222466,0.39526597,504.93475,108.81954,0.99693215,520.874,107.36645,0.9924919,503.2807,148.50055,0.99510694,520.4751,147.61765,0.9845589,506.06073,189.7123,0.9861903,523.3363,186.69531,0.9677623,1.05082,-0.66299704,0.81505157,-0.01866905
72,2400.0,487.68964,46.083298,0.29576328,488.8456,42.35189,0.43849814,488.87042,41.94229,0.042033613,493.57797,42.38852,0.9609632,505.80963,40.67015,0.19387777,494.4966,60.38118,0.99452037,517.5945,56.74716,0.96780425,490.9981,90.59812,0.97716266,524.72943,82.180435,0.55376387,485.77798,115.913574,0.88982195,513.1796,102.70302,0.35454637,504.21463,108.80092,0.99683654,520.13824,107.312706,0.99159276,502.8352,148.29875,0.99538535,520.2298,147.4606,0.98417944,505.7223,189.65521,0.9872895,523.9432,186.7508,0.9685346,1.05018516,-0.67822706,0.7919609,-0.12527917
73,2433.333333333333,486.8252,46.420616,0.5516185,487.96707,42.597374,0.6011451,488.4394,42.57982,0.13471575,494.57825,41.737625,0.8762717,503.35352,40.45385,0.20401157,493.58182,59.50911,0.99155664,519.1804,56.242004,0.9233562,490.13773,90.30899,0.97966766,524.9886,83.57698,0.66834116,484.6031,117.43692,0.93988615,511.8318,105.24771,0.62120533,502.47714,109.43845,0.99568695,520.0491,109.0585,0.98672765,501.227,147.91913,0.99425644,519.9058,151.77484,0.98417044,506.75327,186.69896,0.98275536,523.955,191.59976,0.9688127,1.01837744,-0.64678444,0.77820475,-0.11471642
74,2466.666666666667,485.73715,47.903915,0.56584984,486.80353,44.06472,0.612098,487.1906,44.057312,0.1427747,493.1562,42.36537,0.87769127,501.838,41.147644,0.21128602,492.68762,59.433678,0.99182135,517.75183,56.122528,0.9259401,489.49347,91.110245,0.9801822,524.62054,84.337975,0.67722183,484.42322,118.378876,0.9410849,512.36237,106.656906,0.6288538,502.4919,109.719635,0.9956409,519.66986,109.31283,0.9866527,501.08652,148.33438,0.99399817,519.13293,151.7016,0.98351353,507.45892,186.61214,0.981874,523.7629,190.69868,0.9673264,0.97136991,-0.66324269,0.68780723,-0.17489955
75,2500.0,483.38602,48.059723,0.5828,484.58792,44.233856,0.64503527,484.94736,44.18364,0.14810048,491.81146,42.599625,0.8885356,500.08096,41.192955,0.20420298,491.68445,59.98365,0.99200636,516.4476,56.156647,0.91861445,488.5676,91.6906,0.9799673,523.83844,84.17386,0.6400426,483.89536,118.605316,0.93883866,511.54037,106.46905,0.59332913,501.39505,110.333954,0.9952427,518.279,109.644775,0.98460454,500.69934,149.07677,0.9934341,517.69147,151.67609,0.98102957,507.99844,186.64159,0.9805879,522.8155,189.57614,0.9639515,0.92849564,-0.66324269,0.61927215,-0.196762
76,2533.333333333333,481.62967,48.926712,0.58377486,482.97357,45.15384,0.6480357,483.27554,45.077118,0.15141009,490.7648,43.623146,0.8860976,498.39508,42.081467,0.20067616,490.92874,61.02047,0.99144465,514.685,57.021393,0.91449225,487.9082,92.89235,0.97840023,523.327,85.38913,0.6299682,483.76047,119.13015,0.93466216,512.4219,107.60933,0.58159465,500.6899,110.604965,0.99486923,516.6494,109.80611,0.9835903,500.34384,149.21677,0.992943,515.2823,151.41148,0.9798678,508.8281,185.8075,0.9797753,521.21436,188.33736,0.9627545,0.91069882,-0.68731594,0.57137129,-0.17465391
77,2566.666666666667,480.1875,49.998947,0.407791,481.70822,46.194473,0.5767243,481.62485,45.71678,0.058645487,487.9337,45.96895,0.9694854,499.23767,43.9946,0.17909254,489.44125,63.67224,0.9959637,511.77606,59.45661,0.97351724,487.01083,94.028366,0.98382413,521.0834,84.53909,0.5923345,482.14005,117.57143,0.92132175,508.95496,103.49114,0.408568,499.60107,110.26582,0.997195,514.50757,108.42778,0.9922404,500.7662,148.8483,0.99577785,513.02386,147.58832,0.98498267,510.71976,188.3095,0.98764986,520.8924,184.77383,0.96840847,0.8648293,-0.60379649,0.59225115,-0.1805494
78,2600.0,480.00754,48.2108,0.33752483,481.47247,44.75457,0.4890947,481.95508,44.24823,0.04875357,487.60352,45.815315,0.9558019,499.2253,43.692223,0.15979199,489.57272,64.22759,0.9939268,510.29715,60.25383,0.9603871,487.0213,94.53589,0.97965974,518.69324,85.85816,0.5499136,480.55618,117.46512,0.9088593,509.3322,103.96652,0.38257816,499.31638,110.2801,0.99632996,513.44226,108.59825,0.98976105,498.59302,148.35735,0.9950423,513.7352,147.29138,0.98251843,507.52765,186.45433,0.98679614,523.62103,183.27203,0.9665118,0.89860422,-0.5492632,0.68878981,-0.17711036
79,2633.3333333333335,478.71716,51.32109,0.71026325,480.68683,47.494644,0.7732904,479.1295,47.42003,0.25551894,488.9965,45.48919,0.9105044,491.9267,44.05677,0.25761485,488.42758,62.72821,0.9926507,509.5711,58.204514,0.9228594,484.15048,93.34953,0.9768787,520.08923,84.46308,0.60562557,480.8899,117.56381,0.9272925,508.70862,105.053406,0.5491915,499.20557,110.75801,0.9942577,513.3527,109.59989,0.98139656,498.00708,148.08527,0.9926333,511.81073,148.20749,0.97859734,507.58237,183.93765,0.98126364,520.5066,183.22801,0.96514034,0.89717658,-0.15745873,0.85410919,-0.22501122
80,2666.6666666666665,477.30377,51.064407,0.67890817,479.37238,47.69876,0.72264427,478.4127,47.368996,0.2406057,487.27902,46.644142,0.87585634,491.11267,44.591652,0.22598821,487.84784,63.646584,0.9885749,506.89188,58.808746,0.9151427,483.5334,94.019394,0.9704798,517.68524,82.21604,0.6514353,480.3963,117.62033,0.9218297,505.62634,100.70668,0.6000367,499.20563,111.44732,0.9918325,511.88165,110.15044,0.97797775,497.352,148.40683,0.9896054,509.80646,147.47299,0.97445935,509.23816,184.04846,0.9756919,520.499,182.29202,0.9596296,1.11688733,-0.41857983,0.99437274,-0.28887904
81,2700.0,475.4502,51.11332,0.7008787,477.14072,47.271866,0.7786652,475.69034,47.19712,0.24698368,484.6864,45.634476,0.92223835,488.55142,43.976933,0.2729653,484.84592,63.40941,0.99423826,506.44446,58.129234,0.9249789,482.5544,93.13191,0.9803934,518.4715,83.99384,0.5836222,477.0652,116.982025,0.92547417,506.90897,104.147224,0.50662315,497.01266,111.90466,0.9955712,511.15933,110.355934,0.9841158,496.3745,148.45358,0.99368346,507.60297,147.90668,0.97992146,508.60446,183.1857,0.9829653,517.81085,181.46481,0.9662484,1.06694023,-0.3692051,0.93910252,-0.34660572
82,2733.3333333333335,474.68143,51.512024,0.8026811,476.97897,47.792435,0.8547159,474.5734,47.59249,0.35649183,485.71863,46.142715,0.93038994,486.2014,44.334503,0.29457334,485.85834,63.858765,0.9949327,503.807,58.582405,0.9350681,482.35318,93.36147,0.9828571,515.8786,83.84453,0.6237004,475.96503,115.06354,0.9429494,506.0281,104.99716,0.5740059,496.9205,110.79338,0.99535334,508.3305,109.222824,0.98359966,496.88095,148.14487,0.99365884,505.82547,147.19029,0.98003185,509.11307,183.66473,0.98337317,514.62726,181.43056,0.96745056,0.99511723,-0.28961597,0.8482137,-0.43233597
83,2766.6666666666665,473.44397,51.201706,0.8322258,476.0704,47.900894,0.87567157,473.80646,47.419357,0.39027014,485.01163,46.954147,0.9260553,484.71484,44.644577,0.25081676,486.2098,64.43824,0.99436694,500.20346,59.524536,0.9266854,482.60034,94.55539,0.984263,510.1577,84.53391,0.6319781,475.21915,116.302216,0.95323706,497.7151,105.37416,0.6060773,496.90167,110.69568,0.99387026,505.73004,109.1463,0.9784061,496.06314,148.02182,0.9911752,503.02063,146.51007,0.9717576,510.11145,183.78488,0.9770433,512.52765,180.79346,0.9547953,0.90329764,-0.27438596,0.76862458,-0.38713721
84,2800.0,471.36145,51.995163,0.8021464,473.2954,48.139305,0.8845986,471.35278,48.00711,0.3133683,482.28522,46.423683,0.94916797,483.52948,44.875587,0.22660676,484.68427,64.39,0.99635786,500.2609,59.611115,0.90514237,482.80273,94.21678,0.9884792,508.3683,87.17117,0.48051953,473.38098,114.997375,0.9519269,494.74927,108.186935,0.4441311,495.5439,111.72902,0.9956938,505.19226,110.01501,0.9781466,495.48935,148.65582,0.99325985,499.3895,147.44533,0.9695551,509.50415,184.15234,0.9800261,506.26724,180.66656,0.95048857,0.91003765,-0.29502017,0.77746782,-0.36969639
85,2833.3333333333335,470.22345,52.438538,0.82044077,472.1607,48.43234,0.8965176,469.972,48.477867,0.33204117,481.2569,46.575844,0.95065886,481.53543,45.552963,0.21885784,484.37042,64.74669,0.99663454,497.70782,60.738464,0.9036654,482.87686,94.57076,0.98989373,504.92444,88.49685,0.48165977,472.2622,115.8301,0.95808566,490.88116,109.705,0.45498177,494.50723,112.269806,0.9956397,502.58676,110.81114,0.97683233,494.52777,148.72551,0.9927072,496.63876,147.95712,0.96544045,508.8741,184.73618,0.97723764,502.61868,181.56085,0.9418224,0.9579473,-0.34439491,0.80571704,-0.38713721
86,2866.6666666666665,470.08304,52.06134,0.85835904,472.53775,48.62629,0.90267915,470.1958,48.327286,0.42065835,481.3511,47.103798,0.92936504,480.01245,45.50631,0.21282823,485.5173,64.30428,0.9946603,493.3163,61.101654,0.90544254,483.43173,95.34208,0.9869249,498.69778,88.862854,0.57387745,471.32672,116.72142,0.96142554,482.59488,109.698456,0.58082086,495.17438,111.64964,0.9923815,499.68478,110.489395,0.9689497,495.1546,146.86101,0.9877681,495.2382,146.20683,0.9546008,509.4462,183.33386,0.9663539,500.89294,181.16437,0.92707556,1.02360505,-0.41538644,0.83028159,-0.43110775
87,2900.0,466.33978,52.58852,0.8396462,468.18683,48.47797,0.9138433,466.08902,48.780216,0.32449833,478.14163,46.143925,0.9549843,477.40146,45.87993,0.16910599,484.54218,64.01819,0.9972161,492.06412,61.08677,0.88812584,485.1873,94.66458,0.99299884,496.5061,89.29207,0.4542421,470.40738,115.86533,0.97092706,480.7761,109.11923,0.4573271,493.845,112.57013,0.99529666,498.3708,111.27274,0.97044283,492.17783,147.93265,0.9906279,492.9657,147.06175,0.94735104,507.53513,185.02185,0.9660985,500.1029,180.82602,0.90478486,1.05935159,-0.35987057,0.83273804,-0.54705239
88,2933.333333333333,465.54083,53.23616,0.8651951,467.5924,49.313118,0.92211944,465.15268,49.58452,0.37225792,477.3532,46.133896,0.9504264,475.40646,45.962242,0.16918334,484.89722,62.963425,0.99704,488.85074,60.57415,0.8916498,485.62274,94.103546,0.9931685,492.73987,88.6136,0.49524638,470.21353,114.62542,0.97567785,477.4845,108.38978,0.5231344,493.49817,112.319336,0.9943327,496.00546,111.214005,0.9664452,491.0512,148.59967,0.98836154,492.32938,147.57347,0.93818575,506.28848,184.79694,0.9581388,499.96375,180.35983,0.887793,1.11764116,-0.30730244,0.91601184,-0.56179112
89,2966.666666666667,464.35425,53.631546,0.8701224,466.539,50.05519,0.9120995,464.43024,50.166176,0.39948577,475.83563,47.232407,0.93615514,474.28394,46.606422,0.17488106,484.04343,63.34935,0.9963134,487.00473,61.686874,0.90929437,486.01096,94.41489,0.9922954,492.43225,90.170876,0.6020324,471.5618,115.77216,0.97633624,477.46942,110.47258,0.6250918,494.51767,113.15378,0.9940672,496.39902,112.40283,0.97179157,490.1996,149.24896,0.98790467,490.9485,148.97304,0.9476881,506.1011,184.51428,0.95892054,499.58008,181.79929,0.90285957,1.10631078,-0.15647615,0.91257281,-0.60551601
90,3000.0,461.71802,54.07997,0.8543442,463.79108,50.55229,0.9025864,462.16144,50.722893,0.3483187,473.21625,47.896698,0.9351593,472.45242,47.31279,0.14567898,482.93875,64.2045,0.99661416,484.55228,62.504654,0.9037473,485.47256,96.446976,0.993646,488.68832,91.6296,0.60170853,470.0475,119.24115,0.9801396,475.31638,114.13829,0.63197875,494.7721,114.17566,0.99507636,495.7357,113.447136,0.97485036,488.52487,150.29211,0.9895471,488.454,150.46109,0.95124066,505.91312,184.93987,0.9625097,497.72382,182.76283,0.90691304,1.05803087,-0.13510499,0.85214403,-0.61239408
91,3033.333333333333,459.89392,54.317688,0.87040514,462.20093,50.75647,0.9019357,459.86597,51.264473,0.40107605,471.62708,48.74138,0.9230971,468.08026,49.031464,0.15713906,482.52744,65.383194,0.99647623,478.40933,64.94643,0.9198692,486.0185,96.04361,0.99343103,480.12015,92.62242,0.6710357,471.24255,118.091385,0.9809662,469.6044,114.902725,0.69381446,495.20023,114.23568,0.9954443,492.59854,114.122284,0.97933275,486.22546,149.40144,0.990146,485.24512,150.41798,0.9584624,504.309,183.58228,0.96428144,497.0815,182.38654,0.91630447,1.1609052,-0.07909783,0.84993322,-0.78680234
92,3066.666666666667,457.16238,57.346542,0.7864723,458.67303,53.58186,0.84871745,457.30743,54.22479,0.24404882,467.68033,52.116657,0.92454904,466.49203,52.752274,0.120638184,480.61978,68.97897,0.9972222,476.5805,68.84349,0.9119073,487.5009,98.637535,0.9953343,478.56036,96.61122,0.64348245,471.07904,120.490326,0.9827498,468.6192,117.356316,0.64035374,494.7853,115.78064,0.99698275,492.16766,115.57946,0.98341596,483.7433,151.13818,0.9916735,481.93546,152.22287,0.95749635,500.83536,183.16528,0.9607842,494.52084,181.62454,0.8964375,1.15719544,-0.06509604,0.8617242,-0.76960716
93,3100.0,455.08096,61.89836,0.82131386,456.88287,58.177887,0.85402244,455.1217,59.036392,0.32183808,466.63425,56.446205,0.90879023,462.86752,57.7462,0.14490226,480.98862,73.09986,0.99683833,470.1466,73.168625,0.93701625,485.0949,104.023445,0.99417984,468.06662,101.392685,0.7402453,469.4671,126.3793,0.98016745,463.0361,123.41365,0.71500164,494.9511,117.09613,0.9971379,487.89017,116.899704,0.98774534,481.58417,151.14398,0.99257505,477.36392,151.55734,0.9698178,498.72003,182.14351,0.96748525,491.91223,180.06818,0.9246967,0.96236303,-0.01498437,0.66889253,-0.69173756
94,3133.3333333333335,453.44098,66.97989,0.8513665,455.9078,63.427452,0.90257704,452.96173,63.693657,0.30615655,466.09357,63.741295,0.92282563,458.41473,64.064575,0.05326487,481.37842,79.898636,0.99218386,466.28616,78.576904,0.95895946,486.0865,111.117355,0.9894298,467.68256,105.370544,0.7467754,470.3514,131.3778,0.9785876,461.81198,122.64816,0.7713633,496.7309,120.17731,0.9942994,486.45496,118.98656,0.9863875,479.03632,152.8921,0.99033207,472.62955,151.31305,0.9675491,495.1081,184.94876,0.9686254,491.749,180.91597,0.92307293,0.74576653,0.21076379,-0.68805288,-0.19577942
95,3166.6666666666665,452.13184,74.425995,0.8903385,454.65463,70.86636,0.9223419,451.13474,71.440094,0.43031383,464.5423,71.35732,0.9177941,454.5826,72.33974,0.07601688,481.61038,87.15489,0.9931376,459.81036,86.81868,0.9730925,485.6015,120.33296,0.98943067,459.91586,114.853485,0.8289837,468.4439,141.82309,0.9785281,456.7357,131.46434,0.83027065,498.6548,122.256424,0.99378914,483.84097,121.738785,0.9874564,479.94492,153.86292,0.987394,468.45633,152.89038,0.96392894,494.18002,184.76736,0.9570849,488.49664,181.66275,0.90657645,1.50054947,-1.34269797,0.53059415,-0.40899966
96,3200.0,451.2188,82.9413,0.8562114,453.35275,79.40762,0.8837943,450.47128,80.049126,0.38860005,463.18448,78.68326,0.8708928,454.82224,79.89426,0.078845486,480.47797,91.51033,0.98982507,460.92145,92.0533,0.9707026,487.68845,120.486496,0.9839544,460.12296,118.225136,0.8485648,473.25363,136.05707,0.9710254,453.4606,131.9862,0.84748626,498.08826,124.66521,0.99357784,484.86737,124.47931,0.98909074,479.61877,155.0513,0.9884722,468.67142,154.45694,0.97263247,493.5021,184.17601,0.9640836,485.39917,181.54707,0.93118274,2.30209055,-2.0818451,0.89390375,-0.40801708
97,3233.3333333333335,451.4674,91.59926,0.90048707,454.25674,87.780205,0.9205316,449.82574,88.46866,0.50800186,463.9457,88.15664,0.905959,452.78815,89.09188,0.12383385,477.83185,102.48578,0.99172103,459.61078,102.28886,0.97755027,478.53488,132.6914,0.98196626,455.73007,128.50151,0.84189904,461.3631,156.34084,0.9645547,446.1751,150.13132,0.82669306,499.571,130.93073,0.9920826,486.2026,130.50636,0.98687965,477.01944,157.53918,0.9859688,463.19434,156.59816,0.96617657,497.79474,182.4234,0.96311396,483.4556,179.41449,0.92791665,2.63684189,-1.68389949,1.54584675,-1.31444875
98,3266.6666666666665,448.42603,101.76083,0.85629314,450.48672,98.56359,0.88173074,448.2839,98.92145,0.39500302,459.62717,96.26616,0.91131,453.16803,96.22739,0.15576114,472.95587,110.236374,0.99643314,461.38605,106.39934,0.9440593,470.43085,144.32802,0.9937378,451.2004,130.20566,0.77878475,454.42703,176.2023,0.9787567,440.682,157.2272,0.74982196,497.51968,135.9962,0.99495256,489.2425,134.49467,0.98151416,473.5543,161.17204,0.9853537,465.65665,161.11763,0.9459978,493.83533,182.92877,0.9417943,482.39563,181.17807,0.87464106,1.62531789,-1.23485962,0.67503367,-0.81308641
99,3300.0,447.3244,111.684166,0.9010853,449.45486,108.52843,0.9108767,446.24084,108.74432,0.5451757,458.46222,105.67208,0.9118752,449.5662,105.69858,0.2407872,470.9857,117.357376,0.9955954,459.86728,112.35106,0.96511924,468.79398,150.83247,0.9897573,447.52332,133.2289,0.83763766,455.2983,182.38148,0.968739,435.57645,160.45883,0.7932046,499.336,136.78622,0.9930473,492.81537,134.77924,0.9815839,470.53867,159.91946,0.98358613,468.84827,159.80432,0.9552511,485.20737,183.87766,0.93958247,485.29913,182.02594,0.89302784,1.00390507,-0.8347032,-0.45763745,0.31884778
100,3333.3333333333335,443.02588,120.895294,0.8875031,445.4239,118.13872,0.88678074,442.63837,118.23792,0.52947104,454.7384,115.08866,0.88466626,445.77466,114.21672,0.22896117,467.16638,125.76083,0.9951952,454.76987,120.13519,0.9630899,463.88574,161.51668,0.98979133,442.19098,143.22116,0.8541458,449.9109,190.14449,0.9722021,434.0309,170.5779,0.8279702,498.4187,140.41676,0.9936399,490.2917,139.0253,0.9840725,472.7704,166.7048,0.9840984,471.58698,166.92291,0.95909727,492.34918,187.6362,0.94642395,493.7421,187.43388,0.9080316,0.83283876,-0.76150086,0.17882988,0.28593129
101,3366.6666666666665,440.2136,125.95694,0.83140445,442.09326,123.105835,0.8401855,440.03833,123.41246,0.3864742,451.18784,121.01071,0.8641001,443.53384,120.719635,0.15540117,465.66797,131.88321,0.9942947,452.52768,128.31787,0.94500095,463.32465,167.86009,0.99077153,440.54852,155.09454,0.82263523,445.9595,200.70137,0.9737654,431.7524,189.30261,0.7982091,497.99167,146.77724,0.99291754,488.54575,146.0742,0.98009586,471.59296,167.89923,0.9810699,464.991,170.12717,0.94545287,489.25977,190.13559,0.9340627,482.34946,192.40393,0.87818724,1.13773713,-1.08305074,0.33456909,0.09752124
102,3400.0,440.29773,135.67346,0.7354272,441.4621,133.084,0.6972959,440.32053,133.02078,0.2689662,448.2776,129.45987,0.7448135,443.47626,128.40195,0.13618569,460.652,135.27716,0.9852195,451.4353,131.63167,0.9403837,456.02628,174.0933,0.98227674,439.90292,158.37236,0.8597176,433.0481,208.02748,0.9628837,426.91992,190.29764,0.8439549,498.18933,146.12173,0.9886003,490.93784,145.8739,0.97718996,473.1518,170.78696,0.9747267,463.64926,175.59738,0.94727373,489.3105,192.11539,0.9186558,476.75925,198.16602,0.88171744,1.3267065,-1.30560551,0.12355966,-0.20069232
103,3433.333333333333,440.35977,145.51268,0.7536509,441.12717,142.82797,0.7119038,439.12317,142.66931,0.35199168,446.85394,137.67746,0.7282375,438.6581,137.03403,0.18899526,459.72632,141.74721,0.9857722,445.8632,137.81133,0.9460454,454.14624,184.15758,0.9805016,435.44427,170.75381,0.87059134,430.85556,220.3248,0.95212394,423.01746,204.79306,0.833589,494.1779,149.43837,0.9874192,483.1091,148.36969,0.97678477,470.5435,173.17221,0.9737283,454.76462,176.09256,0.94889545,480.30908,200.14023,0.91342974,462.0934,204.14801,0.8742364,1.05491132,-1.05406458,0.04004021,-0.0135105
104,3466.666666666667,434.22662,154.48181,0.72337455,434.05148,151.81184,0.70953673,433.4682,151.3482,0.29727057,439.1202,145.11319,0.7461641,434.7928,143.96521,0.15654397,456.01144,148.87679,0.983748,443.8716,141.37518,0.91785175,454.93842,192.71082,0.9777916,434.07587,172.20891,0.80403775,435.2539,228.33057,0.9438461,422.27286,211.82437,0.76287645,494.2974,156.62411,0.9734023,485.38016,153.69144,0.94528687,468.30124,177.78534,0.9357354,457.57736,175.97829,0.86288244,481.89636,201.57283,0.80079746,468.04468,198.10652,0.70659316,1.24841104,-1.23608785,-0.11496207,-0.1319116
105,3500.0,426.3935,159.75743,0.65939724,426.6979,157.35654,0.70914596,425.94025,156.78873,0.18910702,434.24142,152.25128,0.80042326,429.1915,150.98343,0.07924286,455.79288,157.61105,0.984845,439.22928,150.40163,0.8588028,458.70477,197.65692,0.9844312,431.14798,178.64009,0.7106819,439.6476,226.87552,0.9616053,420.0545,215.2922,0.7035532,493.7364,165.89517,0.9717305,481.86255,162.16248,0.9216153,464.48306,188.60425,0.91048795,448.1351,183.77092,0.75928956,478.53122,205.31229,0.718804,458.4913,197.51996,0.5540277,1.37989707,-1.25917852,0.07197411,-0.55982596
106,3533.333333333333,425.80032,166.48557,0.8216117,425.9118,163.19002,0.8447936,423.24484,163.75208,0.40872452,433.06488,156.10507,0.83769304,422.80646,157.93027,0.15013333,455.601,160.37271,0.9885005,433.92996,156.49796,0.8996556,462.96732,197.5892,0.9835618,428.2888,182.2076,0.73771405,442.86258,226.86798,0.9591384,420.62805,216.78525,0.7194315,491.76746,168.33112,0.9709789,476.60522,165.94879,0.92331034,466.0135,192.50903,0.9034668,447.10724,189.01881,0.75411516,479.1858,205.41345,0.70884025,455.95355,197.45836,0.54817873,1.5502023,-0.90151876,0.23360881,-1.23928124
107,3566.666666666667,418.67975,171.00922,0.8080283,418.94122,167.75795,0.8420111,416.45248,168.11023,0.38076958,427.32974,159.63074,0.8471067,417.60846,160.9039,0.13530977,452.6696,163.61446,0.9872722,430.592,157.93575,0.89041275,463.20728,201.75793,0.9814439,426.7233,182.89957,0.7253467,441.3548,227.43767,0.9556823,421.26794,216.54306,0.7096236,490.22745,174.53882,0.9650575,475.14102,171.11064,0.91106695,460.92874,200.37155,0.879045,445.0641,196.15875,0.71181643,472.17188,209.99854,0.64370376,455.2369,202.35153,0.4793979,1.25681493,-0.44756599,0.65292558,-0.97619498
108,3600.0,415.2554,176.35735,0.77541375,416.00403,173.71445,0.8231686,413.90427,173.07188,0.32442677,425.0317,165.41914,0.8460732,415.98392,164.27594,0.11450028,450.18787,167.03027,0.9863712,428.6453,159.89963,0.8767348,462.12045,203.30699,0.98172945,426.26413,184.53552,0.7113447,441.56955,226.86737,0.95705813,419.8611,216.62073,0.7010449,488.82364,176.69318,0.9657817,474.10895,172.49364,0.9104753,459.055,204.22766,0.8833331,442.4415,198.76582,0.7144299,468.6351,213.15501,0.64643,453.82333,205.22174,0.47824442,1.16779142,-0.48171071,0.71679339,-0.78606541
109,3633.3333333333335,411.40936,179.03496,0.74516076,411.06982,176.6452,0.7790809,410.28406,175.8046,0.30748653,417.55914,167.61343,0.8076758,412.17374,166.00894,0.13071084,442.9391,169.31566,0.9854254,425.06488,161.0959,0.8825363,457.15442,207.22018,0.9796169,425.71878,186.59842,0.7302486,435.9306,226.06668,0.9523955,419.29785,216.4619,0.7171803,484.0012,180.93619,0.96582305,471.99625,176.72421,0.9166414,456.8616,204.61615,0.88688827,445.12735,199.81323,0.7396266,466.28592,208.09714,0.6711283,456.25793,201.74371,0.51882905,1.08368069,-0.21223766,-0.04642699,-1.06167959
110,3666.6666666666665,405.84714,178.89966,0.68902993,405.0842,177.30038,0.77181894,405.8852,175.02332,0.20908126,411.22482,169.66171,0.8480448,411.2857,164.69359,0.096824236,435.30753,174.33014,0.9872593,428.6125,158.23701,0.83909917,443.69736,215.0266,0.9823794,429.1125,182.16403,0.6337666,422.78217,224.21191,0.95670736,421.50912,211.18251,0.6517808,479.22348,182.75119,0.9585445,474.77887,174.87344,0.88022894,448.193,203.69554,0.87479,448.12744,193.93768,0.67669576,453.631,209.0499,0.63994884,453.61356,197.96222,0.4550179,1.41754758,0.40949095,-0.37804833,-1.3033947
111,3700.0,405.31058,182.53223,0.7123043,404.30417,180.9378,0.8079226,404.85764,179.2869,0.21067725,409.5303,171.35815,0.8819814,412.58734,167.5814,0.10842963,430.67752,173.07646,0.9850389,432.11728,161.64568,0.82046586,436.40573,220.91597,0.97688246,437.65015,196.98975,0.5242619,418.1729,222.33478,0.9464419,421.273,215.77766,0.5593498,476.95538,181.26042,0.9221779,479.29773,175.94226,0.7797179,443.6832,206.1105,0.7890519,450.89374,198.71422,0.50974077,452.11914,213.67924,0.50836164,461.33453,203.87912,0.3255625,1.21996775,0.52469866,-0.40089336,-1.02581536
113,3766.6666666666665,83.79381,118.05142,0.09368213,83.51173,116.85585,0.031811282,84.11168,116.951385,0.08009596,79.49071,115.42998,0.088777214,85.42724,115.73071,0.32601058,77.830124,114.93384,0.8343811,84.640686,114.93136,0.90880036,87.34341,119.44204,0.7321582,96.2264,118.12109,0.91363317,101.45106,119.16727,0.69729936,104.63134,117.71985,0.8579438,70.041985,123.55087,0.96989363,74.419785,123.44066,0.9798116,77.11295,130.2344,0.9487603,80.33983,130.02808,0.9676211,73.4895,142.90411,0.9190722,77.50061,143.1534,0.9414551,0.9141325,0.18030375,-0.19700764,-0.87425212
114,3800.0,6.7622185,165.74477,0.11967147,7.054804,163.68686,0.068864115,6.2802134,163.50568,0.07322716,6.3188324,164.192,0.1321351,6.082164,163.39828,0.14918412,7.1276054,171.83377,0.62439907,4.8017817,172.37585,0.44427985,23.829319,173.2255,0.5892616,24.061428,176.65997,0.374024,37.50292,168.03633,0.5445214,37.063915,167.39777,0.37048274,5.0767517,199.63312,0.5492778,3.0287113,200.91151,0.46674415,17.149775,205.35634,0.28783494,17.095098,207.10155,0.24917565,20.444754,216.12958,0.16862892,19.853855,218.23279,0.15004797,7.70906896,-7.38557579,1.17639601,-1.87059002
116,3866.6666666666665,70.4136,115.27624,0.07411617,70.62336,114.56415,0.04951674,70.20166,114.46186,0.062050264,67.2353,113.08012,0.22088614,73.39321,113.0954,0.29280803,64.73797,112.465706,0.8764618,75.31744,112.91915,0.878765,62.12268,118.00709,0.6958344,81.56892,119.34715,0.72772926,64.033905,126.64157,0.5482453,83.480804,127.214874,0.5690778,64.78533,120.3338,0.962627,70.03031,120.52243,0.9636616,67.94849,132.29004,0.93861955,72.47383,132.44032,0.9433545,68.65265,144.10275,0.9131389,71.684105,144.85794,0.9189397,2.55264797,-1.21962961,2.13834355,0.67527931
117,3900.0,406.6079,202.31796,0.14370656,402.36798,202.20563,0.09007876,407.82013,202.10794,0.09974006,398.54272,206.92374,0.24174337,415.18433,206.71924,0.2889668,411.1512,217.07642,0.59059596,435.59317,207.28021,0.7670058,411.44458,212.17819,0.41228646,473.31546,186.4418,0.7196463,404.0932,198.68076,0.42202988,493.8715,167.88022,0.6916272,456.8484,206.2417,0.68834156,471.8484,203.05237,0.7964659,464.7735,186.33885,0.68750083,476.08292,176.61386,0.80293626,488.87674,186.12778,0.68450475,494.10403,175.50317,0.77012336,0.73062713,-0.11864675,-0.04544441,-0.71949549
118,3933.333333333333,411.38837,213.82184,0.14958407,406.2792,213.46323,0.10218929,410.6876,214.69153,0.08068671,403.13873,221.01009,0.20717797,416.61856,224.60109,0.17239493,414.73926,231.1563,0.5756641,435.47144,227.18277,0.6279096,424.7788,219.95102,0.51664186,452.18167,202.17635,0.6031715,420.70355,199.56624,0.551116,449.2131,185.24304,0.6407553,454.40686,212.55563,0.62102634,468.92807,213.17484,0.66629833,469.41235,179.11417,0.6012035,482.39203,180.0294,0.6552341,479.58405,185.14606,0.59341216,483.09863,186.94241,0.63749415,1.61536243,-0.43282726,-0.42128193,-1.49819154
119,3966.666666666667,413.6517,211.78122,0.26072314,408.3904,210.81134,0.17347942,410.4612,213.82805,0.17669179,405.0119,217.75269,0.24649453,413.1766,225.47499,0.28082144,416.67944,228.82294,0.6084844,437.47968,224.35065,0.7389564,418.51538,224.96463,0.46555215,460.87067,194.32411,0.6901885,416.18475,210.257,0.49617827,474.9276,175.38368,0.6860126,461.73047,211.80818,0.6338431,474.56326,213.04872,0.72301877,465.37668,172.28394,0.6408786,480.47025,176.22266,0.72936934,479.29785,174.21764,0.68544745,482.11365,177.97964,0.7453388,1.58473734,-0.50774912,-0.90397522,-1.1985041
120,4000.0,410.8014,212.23378,0.27805522,407.24347,211.2392,0.19786362,409.48965,212.70119,0.14745444,407.30817,216.59804,0.32403883,415.36804,220.48825,0.22680481,417.1157,225.66173,0.7296394,437.41006,220.80591,0.80647767,420.48428,218.83585,0.64757437,450.75977,197.38022,0.77151823,423.505,203.85333,0.65921974,446.76706,185.89383,0.7682744,460.66464,209.17564,0.7609326,474.00204,209.69576,0.8145128,467.63675,173.00406,0.70148945,479.1015,174.49112,0.7656512,479.48096,167.75037,0.6936133,482.92834,170.44263,0.74484676,1.27993025,0.05453329,-0.41784289,-1.20857556
121,4033.333333333333,408.6717,218.79974,0.56637084,405.02658,216.99567,0.46427962,406.01523,219.80441,0.37197223,405.9596,219.61424,0.51567477,410.97876,226.47168,0.38547763,415.38843,226.3817,0.8581769,438.29474,222.50874,0.9135133,415.255,222.03403,0.7388748,452.13187,197.39568,0.85708946,418.32657,211.21832,0.7225298,447.55856,188.08524,0.8338748,464.94943,202.67644,0.8341132,479.55997,204.02353,0.88240856,467.26282,163.2378,0.77185756,480.2627,166.41634,0.83266616,487.25497,150.8252,0.77277553,487.82217,154.43777,0.8200359,0.91009653,-0.56523016,-0.6384325,-0.31811084
122,4066.6666666666665,406.29514,218.41284,0.56283855,403.88315,216.51205,0.5202225,403.19565,219.15062,0.35598665,408.54126,220.39171,0.5581113,408.725,226.89061,0.3091236,419.79443,228.93716,0.81514716,437.9337,224.70946,0.86619884,415.76572,224.60701,0.6663322,452.5512,199.87706,0.771351,412.76102,216.67511,0.6550908,446.55978,192.18466,0.75799024,469.91608,204.75046,0.7511163,481.20306,205.37392,0.8080669,469.95953,161.1878,0.7162558,479.86835,163.21988,0.7768656,485.81635,151.54398,0.7531379,487.63498,154.79706,0.79797137,0.81150926,-0.46156778,-0.63892379,-0.19307732
123,4100.0,409.30026,217.64366,0.48574376,406.12186,215.64854,0.39170647,407.72662,218.52252,0.29737908,408.68887,219.52866,0.4773645,414.85083,226.49057,0.3170927,419.7695,226.66904,0.80177355,440.7539,230.0004,0.88284427,428.28436,212.10515,0.6699961,461.41614,208.28395,0.8170721,435.38986,198.9108,0.68026394,457.56775,193.59471,0.79986763,466.07782,204.37878,0.7687312,480.4291,208.00749,0.8317678,469.3551,159.74109,0.71385884,479.96503,164.02716,0.7871964,487.85223,151.82584,0.7277456,490.93698,156.40448,0.78368133,1.19233576,-0.00687807,-1.15920083,-0.27905322
124,4133.333333333334,410.25958,216.65222,0.45264533,407.53406,214.81201,0.38397056,409.2029,218.12201,0.24904342,412.4652,217.29807,0.5315102,418.0952,224.88628,0.2937962,427.75266,222.45332,0.8640362,443.83093,223.73628,0.90852433,425.19662,210.59602,0.7714341,460.0411,205.218,0.8470032,419.9453,196.57896,0.7776303,452.69583,197.65408,0.8433653,472.74597,197.88498,0.8811113,483.59814,199.18942,0.9127315,466.23373,155.4776,0.8647144,475.89062,154.47125,0.89827484,494.37653,142.54156,0.86096966,496.52243,140.40088,0.88849336,1.39589419,0.06583298,-1.34490878,-0.36797687
125,4166.666666666667,408.84482,223.03812,0.53566754,404.73636,219.10489,0.4491267,404.16803,224.74985,0.36165375,408.254,219.45354,0.4959926,408.26627,232.91833,0.3847346,426.81146,224.3265,0.86052114,439.18433,233.15816,0.9103351,443.50928,212.71373,0.7357275,466.81967,216.71771,0.83434933,444.30798,197.3223,0.76146704,460.56442,198.0834,0.84243155,474.19794,187.83118,0.864093,484.16666,192.80673,0.90080416,471.04623,155.48352,0.8526112,481.59775,160.17586,0.89075994,501.23273,136.53911,0.8461483,499.91803,138.67236,0.8766229,0.95973274,-0.0729567,-0.94033074,-0.17760165
126,4200.0,477.80692,182.6639,0.11060024,476.57144,181.6881,0.033757888,478.11237,182.13435,0.0945312,470.002,178.46844,0.060200036,480.54846,179.12802,0.27134356,468.7653,170.12907,0.7421682,482.08176,170.5486,0.81798244,485.97797,154.28218,0.7312278,503.8648,154.2327,0.892627,514.4779,135.3865,0.7757263,516.4796,132.6612,0.8840911,468.25183,162.97778,0.9586608,475.3026,163.9475,0.96961886,490.86566,181.9557,0.9351879,495.7411,182.1514,0.9584377,494.23077,194.76665,0.86020684,498.20816,195.1735,0.8958172,1.06017524,0.08302816,-1.0449757,-0.15844131
127,4233.333333333333,402.7224,224.38396,0.71503687,402.89142,221.42763,0.75606096,402.34567,222.8742,0.27801448,409.717,222.84457,0.81162256,409.56955,225.92116,0.15459682,422.34766,226.3158,0.95015156,425.4928,231.94643,0.83420753,432.93774,211.85098,0.91905314,432.49622,220.62297,0.48166013,410.50726,205.95596,0.8986982,415.33945,209.73358,0.5983586,460.19128,220.63406,0.82940286,459.90518,224.18434,0.72027254,463.98282,210.35564,0.6013615,463.7523,213.77054,0.40348095,485.08173,194.0575,0.5300214,483.297,196.51968,0.3862455,1.27696879,-0.0994864,-1.25917852,-0.18767312
128,4266.666666666667,409.72473,221.33846,0.5270365,407.96484,220.53354,0.4784384,408.60468,220.84895,0.27901796,412.56818,224.7933,0.5449476,415.2646,226.4802,0.25884515,421.2426,229.16739,0.8615837,435.52792,228.90602,0.8283155,422.84644,216.63129,0.79616654,444.6813,213.18175,0.72470146,406.11612,204.06061,0.7875716,425.52463,198.82674,0.76384735,458.117,214.23396,0.79161304,467.57007,215.51747,0.7836715,478.82767,194.27902,0.7267935,486.5431,196.51463,0.72980946,473.72638,212.69528,0.60483015,480.68457,218.25107,0.6204274,1.04260514,0.18472537,-0.96047367,-0.3610988
129,4300.0,407.3486,221.11893,0.72780097,405.20218,219.38275,0.7054136,404.68735,221.96088,0.46781167,410.1328,222.27756,0.72033566,410.48056,228.74168,0.3626508,423.30106,224.412,0.92659354,437.36752,230.47446,0.9052183,430.13763,208.5513,0.8586588,460.84995,212.58481,0.7919063,415.8901,201.32478,0.83331865,455.02106,201.2742,0.7917807,470.6597,207.09108,0.8394147,479.4091,210.94644,0.83069706,473.75775,181.34372,0.74474883,481.1853,185.2969,0.7314329,485.47906,191.01024,0.6375814,491.0384,193.68607,0.64060235,1.00301629,0.23287188,-0.92780283,-0.3016526
130,4333.333333333333,412.39612,222.44449,0.66659284,410.24127,220.8336,0.63076735,410.58768,222.83995,0.37885097,414.82004,222.53276,0.6526108,416.25424,227.55789,0.28513473,429.50977,223.34882,0.9162638,439.1372,226.64813,0.8937908,432.62936,209.60295,0.8675132,449.479,206.92569,0.8021933,414.14786,198.06544,0.8506748,435.2776,190.43361,0.81331915,476.42685,207.12921,0.8620804,482.55832,209.4019,0.8562821,473.13464,182.93451,0.78914255,478.75482,185.15077,0.7770788,482.54492,191.1893,0.69180095,486.88516,192.14653,0.69596285,1.12510967,0.07983477,-1.10638706,-0.18816441
131,4366.666666666666,412.10144,225.74759,0.6441113,408.99915,222.35857,0.6040253,409.37006,227.37247,0.3769993,413.53073,219.03146,0.612376,414.38687,230.44304,0.29449853,435.97134,213.01897,0.9173334,438.6101,229.28207,0.9131662,444.91742,199.1319,0.8655402,446.63007,220.44121,0.8128088,424.31995,193.82715,0.86013293,425.22287,196.52074,0.8367786,492.2804,199.52509,0.92166734,494.8995,206.82384,0.92432773,472.61847,166.9301,0.93018365,475.70544,175.52975,0.9277182,495.76306,176.2876,0.90939474,498.21014,181.14334,0.91202,1.12067009,-0.00171952,-1.1174411,-0.08499332
132,4400.0,413.42603,225.85468,0.6869085,412.08823,223.94296,0.676947,412.28363,226.88057,0.41910723,419.94623,221.9126,0.66224957,418.87915,228.30338,0.2507254,440.69522,217.67856,0.8912052,442.92615,223.27774,0.8845775,444.546,204.8948,0.83219576,458.3337,206.0242,0.8040118,423.4917,199.76585,0.8366399,453.16708,190.66461,0.82484114,490.57443,206.19772,0.8457062,491.22324,208.54181,0.85883796,467.00003,173.02762,0.80992883,469.3092,176.3204,0.81658185,484.92447,182.09996,0.77488834,490.6753,184.80997,0.7884079,1.04118601,0.02751229,-1.04079973,-0.00687807
133,4433.333333333334,416.70764,228.25356,0.56016165,413.51544,225.38779,0.53390384,413.9034,230.12173,0.37146193,418.24225,223.50134,0.5091762,418.54434,234.72508,0.26249546,439.7169,220.02663,0.76760143,443.05762,231.31183,0.80371034,446.6884,199.22124,0.6509359,457.54248,209.4366,0.6882593,432.89874,192.81064,0.6744367,449.9535,191.4849,0.7167545,490.40033,206.4537,0.7165515,493.0008,211.56686,0.75879824,474.79883,168.54681,0.7357627,480.1816,172.59576,0.7646518,495.28967,180.764,0.76044106,501.04074,180.7088,0.78618026,1.21624299,-0.03930327,-1.21226024,0.09015188
134,4466.666666666667,423.90518,224.31903,0.6146685,421.92554,222.58426,0.6029166,421.94708,225.83823,0.3864606,428.85168,225.5947,0.59836894,429.24002,233.69385,0.2653794,443.4466,227.06836,0.8386867,452.93274,235.38187,0.81462437,451.0333,213.8866,0.7341193,471.64804,225.79044,0.6755657,438.96255,185.74507,0.7565944,464.65543,198.01727,0.7262491,477.23935,213.71054,0.7007566,482.97107,217.61905,0.70153403,481.60193,172.73401,0.66723466,486.93893,177.64511,0.6727355,488.90494,182.83072,0.6382807,492.70126,188.11769,0.6500892,1.16776946,-0.09211704,-1.13168854,0.27291208
135,4500.0,424.76282,225.09946,0.3042279,421.3896,222.58325,0.25028896,422.79727,226.13153,0.20138058,425.6678,224.2088,0.32565948,430.67133,232.29471,0.25253212,441.34302,225.7249,0.5367398,459.57422,232.06506,0.7213786,456.64426,210.88681,0.38044235,493.40433,216.95244,0.6434477,452.0363,205.371,0.45802367,489.52875,205.6465,0.66837525,481.67902,211.90482,0.5720057,493.59186,214.80072,0.68908024,478.79865,172.20233,0.6985102,488.79675,174.21027,0.79664516,492.6969,201.97351,0.75923663,501.0074,203.70454,0.8239539,1.13784317,-0.02603842,-1.11129997,0.24294334
136,4533.333333333333,450.40503,215.83125,0.1428143,447.238,215.04666,0.11719119,450.89725,217.17319,0.065736786,449.34134,218.84663,0.23463307,458.6614,223.65047,0.11049335,458.0141,218.91891,0.59561694,474.21368,222.53883,0.5443486,460.5091,205.5157,0.5900781,495.02844,210.25572,0.5065765,449.7669,191.85797,0.6244265,494.83215,202.7925,0.56869364,480.99518,208.77814,0.73040473,490.9211,210.8363,0.71541446,482.52267,171.75258,0.8028758,490.0563,174.04973,0.7936343,496.8941,197.1546,0.82391787,500.38144,199.52475,0.8241508,1.11729889,-0.06509604,-1.09435043,0.2156767
137,4566.666666666666,475.14093,205.15373,0.08038521,472.16254,204.45499,0.054102357,476.21,205.20363,0.038854975,469.90512,211.00333,0.14954384,481.75854,212.98138,0.10588513,469.63248,218.38702,0.56683254,487.77658,218.48834,0.48828855,462.55753,212.03824,0.5929146,494.95688,212.01564,0.46727407,446.27728,187.1397,0.6130055,486.55035,197.89958,0.53564006,476.8737,210.20563,0.720934,488.60156,211.06076,0.6842664,490.3989,179.5806,0.7565621,500.1201,182.11249,0.7327798,492.85587,197.63724,0.74792206,497.34723,202.659,0.7365454,1.05948564,-0.14886114,-1.0341673,0.17563649
138,4600.0,476.24646,210.0039,0.042283464,472.0693,209.2879,0.026915526,477.4314,210.5671,0.025846202,467.34125,215.48332,0.08253303,482.2863,218.68062,0.090255365,466.90466,222.10585,0.3350326,487.70334,220.86635,0.30512872,465.41553,202.61746,0.38074523,494.88037,196.67445,0.3344254,459.09525,189.15363,0.4401139,490.74207,194.19307,0.41414663,472.7869,210.6635,0.60235035,487.1912,211.21265,0.5816792,486.54865,174.65733,0.7336481,499.00214,176.58096,0.72577024,494.96378,200.07306,0.7894607,498.25983,203.60419,0.78759813,1.07135377,-0.14566775,-1.04178231,0.20314878
139,4633.333333333334,475.92337,198.33911,0.011403756,470.64685,196.36258,0.0073015885,476.8567,198.16928,0.0071432255,464.40085,201.71921,0.034105547,481.92288,206.49219,0.03854168,464.7897,211.42206,0.12061273,488.94614,209.86134,0.11456699,458.7089,200.81886,0.18753071,491.53378,192.61502,0.17231826,455.61124,184.9756,0.2628696,484.34964,191.69278,0.2601051,477.21265,209.02417,0.3626056,494.04828,209.73846,0.3550239,487.89227,161.79095,0.65099895,505.10187,163.56042,0.64894557,494.76294,206.04253,0.783127,501.5209,208.99591,0.785248,1.10373362,-0.21813315,-1.06069701,0.21346589
140,4666.666666666667,476.33084,188.0261,0.0029006451,471.0358,184.80035,0.0027960234,478.4764,186.94293,0.0013380897,471.77762,187.00223,0.023503302,490.0595,191.99948,0.00911126,480.88983,196.22624,0.034528434,504.9156,194.29314,0.03142491,472.1606,196.83015,0.07404499,520.04834,185.65189,0.0654654,461.2575,193.64027,0.13479976,518.5644,191.63924,0.12443699,495.96606,205.11322,0.20053127,511.74265,203.71811,0.1978329,483.54727,160.65555,0.5986332,500.0296,159.54117,0.5972998,483.7039,211.94945,0.8028003,492.61145,211.44688,0.810433,1.0527298,-0.36822251,-0.89562327,0.41292998
141,4700.0,486.70746,185.21286,0.0024043224,481.53146,182.35973,0.0024012108,486.94095,184.48627,0.0018924151,478.7116,184.46745,0.012782923,490.75015,190.04843,0.010673488,486.11093,189.60579,0.01422173,497.50403,191.4887,0.01323808,483.42847,187.47757,0.02737,505.16364,186.28683,0.025059888,478.35736,206.53519,0.048507754,504.59097,207.08855,0.04837873,495.2759,195.39507,0.093057044,503.8263,195.82877,0.089368686,491.1029,159.33603,0.4432032,504.80035,158.91547,0.43834975,483.05746,215.07387,0.7601409,496.7398,212.83539,0.76351964,0.98342129,-0.10341673,-0.89807973,0.38713721
142,4733.333333333333,488.68524,192.87866,0.011244731,484.21478,192.16148,0.009934205,489.33627,193.70032,0.009979584,479.78683,197.37749,0.035782546,493.31628,201.37122,0.03876664,483.3545,199.96356,0.05704813,501.34995,201.03961,0.05777396,484.23965,189.20236,0.06705549,511.2525,189.28746,0.072054096,484.87094,210.32559,0.09057927,510.86307,212.00552,0.10314453,491.91455,202.78073,0.22765546,504.56683,203.319,0.23266737,494.95297,161.67694,0.6060402,510.69077,162.55923,0.62406397,488.2375,212.24677,0.84124035,505.2905,213.06369,0.84872365,1.09874039,-0.35471201,-0.91281845,0.49816895
143,4766.666666666667,488.66904,196.03525,0.004844508,482.7826,193.54439,0.004851624,486.5643,196.73352,0.0066621844,475.578,198.33363,0.018362468,486.59348,206.68196,0.035188936,478.57358,205.3696,0.015318664,499.20554,207.7054,0.017361334,481.18076,195.27835,0.015004462,512.28674,192.87463,0.019975105,486.86066,212.52806,0.022147434,510.4202,214.35815,0.031011185,488.64743,202.42657,0.070802204,503.88483,203.78812,0.07741374,492.63837,167.81345,0.3904624,512.9355,169.67894,0.42506722,487.42645,211.1338,0.77850884,503.31076,211.66823,0.7929865,1.18690602,-0.50160799,-0.92780283,0.54435029
144,4800.0,488.69052,194.7121,0.0018384063,483.25232,190.87234,0.0018102903,488.23483,193.47673,0.0020767418,478.62082,193.67067,0.011024884,491.83755,200.29514,0.016909603,482.0613,203.73578,0.007839482,502.07388,204.78236,0.010581067,483.65912,202.17949,0.010213498,514.1667,197.13956,0.016499106,492.0291,222.1004,0.017916212,512.6746,218.92444,0.02763133,490.1741,201.59065,0.04309932,504.88446,202.36781,0.04983221,492.37762,167.50082,0.28329137,508.81564,168.77963,0.32568085,487.67175,211.00626,0.6702281,497.95837,211.81705,0.7028824,1.10725485,-0.42079064,-0.97791449,0.3043547
145,4833.333333333333,490.75214,191.92204,0.0015118655,484.77362,188.36209,0.0017711282,487.93845,191.59349,0.0019854694,479.39035,191.37834,0.008678783,487.29633,200.04617,0.0126207,485.1886,199.43935,0.0053069093,500.5633,200.53021,0.005028717,486.16956,200.21486,0.0076006264,513.16907,194.48685,0.008081332,491.17172,224.63943,0.012484936,509.2482,222.02089,0.015251535,496.58588,200.72939,0.035828285,508.1114,201.31204,0.036399655,498.59772,165.28944,0.30385652,515.8065,166.15,0.3178839,486.426,215.50426,0.74993575,500.16803,214.81548,0.75710404,1.09070041,-0.45297019,-0.95285866,0.27659676
146,4866.666666666666,492.2106,189.18913,0.0013100285,486.59998,185.66533,0.0016009399,490.0047,188.6227,0.0016106471,481.6823,188.88069,0.009338207,490.76456,196.87274,0.011128492,485.96487,197.96341,0.0056663635,503.11554,197.97147,0.0048114215,482.5248,200.79974,0.008443239,512.6836,193.84949,0.007662571,486.78452,222.38506,0.013329762,506.88583,221.69975,0.0144480625,495.543,201.16768,0.03846,508.05426,201.36115,0.037057325,499.42706,165.4003,0.3135758,516.6401,166.04388,0.31676784,487.65155,214.2514,0.7548187,500.69504,214.221,0.7559031,1.0418537,-0.46893714,-0.87744551,0.30926761
147,4900.0,480.7924,194.8999,0.002886129,474.73044,192.05783,0.0027319214,479.36697,195.12885,0.0032666405,467.45612,197.01862,0.019458212,482.6419,205.18893,0.02902423,467.85287,208.49956,0.01983731,499.64996,206.44882,0.021506138,458.961,205.0686,0.021781152,511.96445,193.85298,0.027456695,464.81702,207.77164,0.031060187,508.0652,212.85423,0.042018343,483.15442,206.1631,0.10451817,505.17218,206.001,0.11441623,489.14572,172.32175,0.4579254,516.0047,172.46666,0.49593925,488.1114,208.9693,0.7921664,505.4557,209.30109,0.8078273,1.05248858,-0.46230472,-0.85803952,0.39720868
148,4933.333333333334,489.15445,191.31537,0.0010572255,482.93246,187.99963,0.0012422659,487.50952,191.01097,0.0014497848,475.19577,192.32883,0.011386514,490.1313,200.4116,0.016926715,474.9947,202.84499,0.006509581,506.60223,200.87682,0.0065299845,466.4494,204.14737,0.007418201,517.851,192.66344,0.008505153,472.24622,215.17288,0.010319247,511.14554,215.90233,0.0133577,487.78992,200.07623,0.042682324,510.07523,199.69843,0.044942122,492.30212,172.61752,0.31892958,520.41693,172.46579,0.34245062,485.97177,210.79477,0.74879277,507.07645,210.31633,0.7607712,1.06008588,-0.6006031,-0.77329184,0.40629756
149,4966.666666666667,488.4139,198.9285,0.00094150077,482.16324,195.77968,0.001042852,488.04715,198.44174,0.001244509,473.55112,200.27505,0.013050568,493.23154,207.10501,0.021984285,469.33148,210.3132,0.007564523,508.5703,207.69818,0.009891738,456.2967,211.89491,0.007553841,516.73065,199.62071,0.011424885,464.07407,209.58168,0.0103421165,507.47195,214.31895,0.015532379,481.27374,200.80925,0.04671198,508.3824,200.357,0.053727914,480.88754,183.05157,0.30892354,511.96786,182.58914,0.34682703,480.83676,210.66951,0.69886184,502.3946,209.76668,0.7256217,0.99675089,-0.71212613,-0.62000909,0.31933907
150,5000.0,490.11908,200.2699,0.0016454909,484.58136,197.672,0.0016799128,490.23608,199.7822,0.001916127,476.00043,203.19513,0.019534215,495.23093,208.84666,0.028781908,469.7093,215.25383,0.01740354,507.37207,211.79266,0.019486118,453.03238,215.9418,0.016211258,511.30856,202.68126,0.019553695,459.23303,208.12909,0.01984752,502.96835,212.75732,0.02476929,478.17706,206.48264,0.094530016,504.58313,205.7473,0.09938064,479.25815,192.09912,0.4017048,510.75827,191.32849,0.4211403,479.74072,209.15378,0.72667843,503.00232,208.47906,0.7394302,1.05120409,-0.78753928,-0.63229136,0.29158114
151,5033.333333333333,494.45593,201.21008,0.006519871,490.09344,199.33554,0.005724262,495.0247,200.89334,0.007917592,482.15594,205.59799,0.035148524,498.52057,209.83191,0.058682263,476.0781,217.35088,0.040542148,507.82648,213.95607,0.048226997,465.11377,210.76837,0.03207652,517.1608,199.3953,0.04427453,469.5806,212.55606,0.04000705,518.97174,214.01111,0.05492823,481.11707,207.67513,0.14371003,503.32388,207.10794,0.15792318,489.7162,186.39204,0.45643476,512.99677,186.70442,0.4958818,494.2618,208.95844,0.74647677,509.0039,211.47375,0.76384723,1.07345722,-0.74184923,-0.7298126,0.26333191
152,5066.666666666666,512.8392,208.68831,0.022652317,509.58646,207.05487,0.011745387,515.0108,207.43057,0.030129012,498.2942,210.46933,0.04319302,515.5908,211.72382,0.16142698,486.89697,217.90758,0.12764126,510.5087,216.31445,0.18769284,484.09973,213.09491,0.09447628,516.955,208.13622,0.17193627,491.0605,223.27805,0.10825547,523.97,222.52972,0.17259516,473.1047,214.65868,0.23721106,490.26767,214.97382,0.2713115,493.59427,189.29773,0.40308222,511.5388,190.26318,0.46169192,497.0331,211.4477,0.58034724,511.94733,214.37802,0.6109471,1.08653979,-0.75339456,-0.7379189,0.26161239
153,5100.0,526.089,220.1591,0.05992769,523.08716,218.86946,0.02340455,528.0658,218.79642,0.09380269,508.49194,220.12805,0.04649453,523.3913,220.36133,0.32286093,492.1535,221.82428,0.2191829,511.94357,220.92369,0.3129622,501.45496,206.73529,0.14946419,518.4263,203.62952,0.2777266,520.3493,226.677,0.17113383,530.71857,225.56667,0.26708812,466.50842,217.22357,0.2946549,481.1405,218.05608,0.3271473,491.74185,194.58713,0.36903358,506.74692,197.08955,0.42087835,494.10715,210.61273,0.48196796,505.70218,214.2249,0.50450104,1.08746348,-0.78066121,-0.72146066,0.22943284
154,5133.333333333334,522.0776,200.31976,0.012050747,518.206,198.80194,0.007038365,521.9387,200.4737,0.019245876,507.862,204.67554,0.023580108,520.4551,208.74033,0.106525265,500.01746,213.03801,0.041403186,522.78204,210.66638,0.071187906,504.98416,202.08551,0.030552829,535.4499,193.54382,0.07259965,519.8389,224.7253,0.04041869,539.288,223.07413,0.07885568,488.2426,209.46426,0.12969013,505.1287,208.59793,0.16662273,492.3791,183.9351,0.36908612,512.97705,184.39856,0.44835484,495.58795,211.29135,0.66355187,513.7455,213.46162,0.69979364,1.11408876,-0.84600289,-0.70426548,0.17170616
155,5166.666666666667,497.2453,188.92325,0.004764389,493.6385,187.52408,0.0042354027,497.49625,188.96037,0.0050980067,488.8525,194.46143,0.025768243,500.50272,197.83875,0.03580807,486.86172,204.0773,0.030485362,508.87463,201.34738,0.035626546,480.25693,198.92873,0.034218006,532.22235,188.11333,0.045919705,480.70435,216.7024,0.045791794,541.09094,207.03609,0.06050101,489.28613,206.7911,0.13296607,503.3601,205.84586,0.14380603,491.98865,177.05112,0.40280232,506.9164,175.76474,0.43538454,493.24295,210.34503,0.6999231,506.7689,209.70464,0.71686095,1.05783828,-0.84133563,-0.63523911,0.08744978
