frame_id,timestamp_ms,nose_x,nose_y,nose_conf,left_eye_x,left_eye_y,left_eye_conf,right_eye_x,right_eye_y,right_eye_conf,left_ear_x,left_ear_y,left_ear_conf,right_ear_x,right_ear_y,right_ear_conf,left_shoulder_x,left_shoulder_y,left_shoulder_conf,right_shoulder_x,right_shoulder_y,right_shoulder_conf,left_elbow_x,left_elbow_y,left_elbow_conf,right_elbow_x,right_elbow_y,right_elbow_conf,left_wrist_x,left_wrist_y,left_wrist_conf,right_wrist_x,right_wrist_y,right_wrist_conf,left_hip_x,left_hip_y,left_hip_conf,right_hip_x,right_hip_y,right_hip_conf,left_knee_x,left_knee_y,left_knee_conf,right_knee_x,right_knee_y,right_knee_conf,left_ankle_x,left_ankle_y,left_ankle_conf,right_ankle_x,right_ankle_y,right_ankle_conf,acc_x,acc_y,acc_z,acc_mag
0,0.0,535.4405,112.30861,0.93880695,538.33093,107.78262,0.95197946,533.23883,108.95755,0.58000284,548.2278,104.6981,0.9502257,537.3835,106.94545,0.21567951,564.3535,118.952034,0.9971723,551.388,121.56529,0.95652777,574.53845,145.53098,0.993505,554.5825,144.83842,0.7621449,547.6737,163.97896,0.98516613,542.3641,162.67424,0.7792945,577.3169,168.08875,0.99304813,569.16583,166.311,0.9729955,534.8507,178.01785,0.98541564,529.4032,177.43633,0.94293946,541.04083,223.11992,0.9448066,541.62463,218.86545,0.8801047,1.07872548,-0.07443057,0.99879436,-0.40064771
1,33.333333333333336,534.27216,112.46415,0.93255997,536.9099,107.99154,0.9467275,532.14703,109.15888,0.5495245,546.58374,104.939926,0.9475337,536.5574,107.21575,0.20425318,563.18024,119.06594,0.99713093,550.5737,121.41774,0.9555598,573.062,145.79045,0.9937285,552.7143,144.37807,0.7660323,545.96735,164.29694,0.9856507,539.8651,161.58916,0.78471756,577.1382,167.19897,0.9933651,569.3084,165.33203,0.97417223,535.1597,178.1139,0.9859903,530.36127,177.07463,0.9450305,541.10474,223.35509,0.9459895,541.9934,218.20544,0.8826834,1.13401727,-0.11692723,1.04743215,-0.41857983
2,66.66666666666667,533.5474,112.959915,0.9317849,535.9987,108.46499,0.945497,531.3211,109.68405,0.54737014,545.2982,105.2422,0.9462002,535.60583,107.654205,0.20572205,562.22687,119.22392,0.99711585,549.9396,121.572784,0.9561004,572.3193,146.07735,0.99374545,551.79565,144.43672,0.7705188,545.54913,164.74686,0.98571694,538.7703,161.62398,0.7891273,577.57886,166.79741,0.9934228,570.0384,164.97572,0.9746713,534.875,177.80544,0.9862271,530.7554,176.68573,0.9463282,541.0744,223.37788,0.94696885,542.32733,217.8309,0.8853156,1.08014434,-0.09973205,0.99289887,-0.41342127
3,100.0,532.229,113.50259,0.9046634,534.13635,108.965996,0.9197555,530.183,110.4652,0.46471682,542.7251,105.76764,0.9287589,534.7964,108.83055,0.17779413,561.2712,119.22616,0.99613154,548.6272,122.49747,0.9484512,572.24176,145.6557,0.9926322,549.8722,145.36879,0.7707071,545.2629,164.54831,0.9840842,537.7357,161.9756,0.79144514,578.0605,166.61447,0.99257624,570.36523,165.2036,0.9732569,534.27747,176.98468,0.98475164,530.4113,176.40456,0.94414806,540.93567,223.32861,0.9424699,541.6832,218.05815,0.88038975,1.08204452,-0.21076379,0.91945088,-0.53010286
4,133.33333333333334,530.4337,113.96954,0.89308673,532.05597,109.39453,0.9119076,528.5357,110.99245,0.42277548,540.5526,105.971405,0.92754906,533.86316,109.27229,0.16287409,559.3985,119.01923,0.9961313,548.07733,122.81566,0.9439462,571.00006,145.39867,0.9930708,549.36005,146.46042,0.76025844,544.9291,164.5297,0.9847482,536.5545,162.79852,0.78514194,576.818,166.36855,0.9926939,570.0303,165.32436,0.97255015,534.53284,177.33058,0.9845478,531.25,177.40941,0.9413582,541.39923,223.30637,0.9400862,541.56775,218.61938,0.8729365,2.06450468,-0.3043547,1.76299732,-1.03023697
5,166.66666666666666,527.8208,115.21367,0.9182441,529.8464,110.65117,0.9366302,525.6759,112.317055,0.48656058,539.04987,106.98616,0.94266224,530.311,110.58597,0.16966663,557.7245,119.40239,0.9969356,545.3313,124.5181,0.94740725,569.3765,144.98793,0.9941491,547.55695,148.31337,0.752689,543.31744,165.54678,0.9866911,535.4044,164.90898,0.7804072,576.4905,166.01912,0.99353653,568.8231,165.61656,0.97369754,534.4216,176.84534,0.9863797,529.71826,178.15811,0.94387436,541.7275,222.18585,0.94684964,540.9851,219.07935,0.8806736,1.16437019,-0.12036627,1.07936606,-0.41980806
6,200.0,526.8251,117.75696,0.90578294,528.2918,113.20386,0.92911774,524.53986,114.77302,0.43951437,536.5406,108.43033,0.94184726,529.6334,111.74271,0.16696304,554.7716,119.812,0.997033,545.7885,123.97064,0.9437875,566.5067,145.72449,0.9945326,548.83466,147.75655,0.7362767,541.33673,167.8671,0.9867312,533.0387,166.391,0.7659649,575.0992,166.85867,0.99373204,569.9854,166.20932,0.97316855,533.8019,178.71744,0.9864867,532.18835,179.07916,0.9417094,541.46814,222.94409,0.9469587,543.4619,218.00346,0.87796086,1.32852308,-0.26996434,1.06094265,-0.75265763
7,233.33333333333334,524.37775,120.059906,0.90627563,525.6842,115.45368,0.9295993,522.1159,117.211136,0.44334412,533.63824,109.872345,0.9411315,527.2139,113.59543,0.16575286,552.4039,120.16597,0.99695694,543.5292,125.36134,0.94180423,565.7174,146.6867,0.9945287,547.3403,150.25931,0.73365694,540.73596,169.60033,0.9868003,531.095,168.68896,0.7649473,573.7909,167.3712,0.9934068,568.66425,167.34125,0.97173315,532.6776,178.30951,0.9855262,529.80817,180.24898,0.9374815,542.04205,222.04805,0.94340914,541.50433,219.24374,0.8695437,1.29771842,-0.27168386,1.06954024,-0.68289432
8,266.6666666666667,521.7789,119.99189,0.9218972,523.3275,115.453224,0.9376014,519.4171,117.18889,0.5157741,531.29785,110.9329,0.94076717,523.807,114.56222,0.19662237,549.6819,122.61206,0.9969614,539.7867,127.648026,0.950687,564.0717,149.55139,0.9939488,543.3871,152.07394,0.76197606,539.90137,170.94542,0.98568463,528.67706,168.31645,0.78351355,571.9128,168.391,0.99306023,566.09094,168.60754,0.9728035,532.55457,179.26756,0.98436904,529.3489,182.10101,0.93837667,542.4103,222.12225,0.93914497,541.6568,221.00494,0.8672519,1.23468766,-0.49644943,0.62418506,-0.94254155
9,300.0,518.6501,121.08746,0.9277336,520.25415,116.44529,0.9324254,516.2527,118.35559,0.58941835,529.0021,110.91618,0.9142706,520.7325,115.0652,0.22117946,548.90375,122.44733,0.9937483,536.41034,127.19939,0.94870454,561.8495,151.97153,0.98718166,538.77185,152.90472,0.7901442,538.0877,172.03706,0.9770951,525.7228,169.2413,0.8140777,571.69885,167.14612,0.98327464,564.43475,167.33408,0.9548604,532.1945,181.27336,0.96300393,529.59674,184.45772,0.8991088,540.96387,223.10165,0.87834597,540.5605,223.83072,0.792391,1.06243178,0.01252792,1.01476131,-0.31442616
10,333.3333333333333,515.4261,121.68881,0.88590276,516.3547,117.50916,0.8903175,513.71564,119.01005,0.46767437,523.8734,112.928,0.8878632,519.2274,115.95439,0.1905003,544.3391,124.35269,0.9921015,534.1712,127.782715,0.9390317,558.1804,153.34485,0.9858,536.67065,153.13605,0.78440404,538.16833,174.97359,0.97411084,525.3085,170.53555,0.80649745,570.3843,166.768,0.9826422,564.8307,166.6771,0.9544587,532.0501,184.4256,0.9596597,531.3278,186.2628,0.89372486,540.84406,224.45271,0.86532557,541.46216,222.89795,0.77690446,1.58407838,-0.30582857,1.16681584,-1.02679794
11,366.66666666666663,511.83548,123.94293,0.8536645,512.2183,119.96459,0.87810725,510.38632,121.22073,0.35825312,518.8928,115.08099,0.9085866,516.9699,117.40097,0.16104773,537.793,124.942505,0.9948454,533.66455,127.91176,0.9335813,551.83075,152.50314,0.99142015,536.60657,153.42659,0.7492632,537.98517,176.8508,0.97963035,524.1551,172.4527,0.765997,568.7632,165.88167,0.9908528,566.8888,166.12274,0.9683225,531.27386,184.47894,0.9786744,532.1556,186.53601,0.92583543,541.9576,224.36032,0.9176449,542.0952,221.7964,0.8362363,1.26474161,-0.07369363,1.07887477,-0.65587332
12,400.0,509.82852,126.87259,0.84170645,509.98096,123.37599,0.8720728,508.89984,123.880615,0.3489578,516.0365,117.67751,0.8998346,514.3531,118.18651,0.14475314,534.4713,126.203125,0.99556375,531.1763,126.596375,0.9215489,547.29236,154.30423,0.9929725,535.40717,152.02856,0.7279518,535.6497,178.91817,0.98033375,522.808,171.52512,0.7357122,568.3859,163.84131,0.99256766,566.5595,162.83208,0.9711193,530.7503,183.94136,0.98165315,531.66144,182.28883,0.92775625,541.76184,224.28625,0.9264514,543.1609,217.26883,0.83944446,1.13933824,0.10022334,1.00493549,-0.52740076
13,433.33333333333337,505.19727,127.4565,0.85466987,505.38403,124.075165,0.89514655,504.43405,124.50093,0.3496247,511.87738,118.797,0.9237545,510.5028,119.2539,0.13578495,530.3788,126.81799,0.9966793,529.00336,127.789856,0.9205158,544.49274,154.36746,0.9945623,533.0102,153.61319,0.702216,536.5904,181.44223,0.9831534,521.3481,172.68237,0.7115765,567.21124,160.48918,0.994052,566.57465,159.84962,0.9732343,531.03033,185.62376,0.9850734,532.71643,184.09003,0.9321885,541.7289,225.44711,0.93540823,543.3385,217.81613,0.8461241,1.06766093,0.06656991,0.94131332,-0.49939718
14,466.6666666666667,502.37393,127.11728,0.89074636,502.949,123.62317,0.9175602,501.19025,124.076324,0.44320747,510.04526,118.5107,0.92860764,506.05786,119.09723,0.1670236,527.97705,127.1613,0.99700814,525.14996,128.37476,0.9354468,542.9128,154.91533,0.9944606,530.4025,154.45103,0.7368337,537.32776,184.02829,0.9830784,520.7786,174.57161,0.7389242,565.435,159.12729,0.99415565,563.6853,158.73047,0.9753116,530.7678,186.98558,0.9848622,531.57465,185.73021,0.9355059,541.0917,226.57288,0.93262964,542.5399,219.41205,0.84584147,0.94341902,0.17760165,0.88235842,-0.2827379
15,500.0,501.20984,129.1149,0.89589536,501.48584,125.545074,0.9145535,499.5866,126.17204,0.48078138,508.21164,120.10225,0.9174372,503.12567,121.20102,0.19056363,526.97614,128.33775,0.99681586,521.68805,129.3954,0.9431935,542.5394,156.30339,0.99382496,527.0419,154.90901,0.76827097,534.6695,185.62749,0.98166245,517.78937,174.99634,0.7646414,564.52704,157.31961,0.99423826,561.2053,156.72719,0.977996,530.82465,187.45903,0.985466,531.35486,184.9592,0.943663,541.5709,227.14693,0.9362624,543.3801,217.90036,0.8619082,0.93094978,0.23459139,0.84968758,-0.29944179
16,533.3333333333334,498.05716,129.80226,0.8840208,498.32007,126.160736,0.8992675,496.45297,127.098434,0.4635296,505.4493,120.83632,0.903449,499.89563,122.65065,0.1836621,525.1889,128.93327,0.996407,517.68695,130.81245,0.9436141,542.5387,156.37973,0.99326307,523.92596,155.94742,0.7877046,535.6545,186.32837,0.9808497,518.1695,175.8664,0.7817451,562.05,157.55879,0.99460006,557.23346,157.48622,0.980716,530.2394,188.02516,0.9867229,530.2731,186.34145,0.95204926,541.8542,227.25159,0.94242954,543.95087,219.1404,0.87963665,0.94787579,0.22673074,0.84624854,-0.36183573
17,566.6666666666666,494.84103,130.2921,0.8480619,495.13998,126.80655,0.86604565,493.57108,127.710464,0.39212105,502.68448,122.18463,0.88417697,497.32758,123.832214,0.15548848,523.05304,130.52888,0.9957105,514.3206,131.7363,0.9355169,540.8227,157.73366,0.99274254,520.83777,155.97849,0.78840137,533.38586,186.67328,0.9800397,519.64636,177.2893,0.78403395,560.01013,156.6189,0.9951626,554.05145,156.58258,0.9831586,530.15216,188.60576,0.98863846,528.60626,188.20483,0.96035403,541.63025,225.65247,0.9513704,541.4913,220.36621,0.8993901,0.88213234,0.13436806,0.84256386,-0.22402864
18,600.0,493.86435,132.5845,0.89001495,494.37567,129.01625,0.89402044,491.9196,129.9579,0.533882,501.94427,123.6167,0.8817458,494.05328,125.53644,0.22449057,521.37744,131.6927,0.99544597,510.88367,132.35222,0.9520269,537.4373,159.73965,0.99012566,516.1974,156.49274,0.8225686,532.66583,188.85437,0.9734298,515.80536,178.07585,0.8025519,558.243,155.65524,0.9949161,551.14233,155.4875,0.9853699,530.1287,189.87106,0.98924655,528.4652,188.53967,0.9688636,540.55664,225.75836,0.9585823,541.08856,219.49545,0.92316914,0.82722957,0.2210809,0.7649399,-0.22427429
19,633.3333333333333,491.95807,134.72345,0.8934305,492.44916,131.22777,0.88679403,490.07666,131.98941,0.5593349,499.98584,126.06213,0.86876094,492.14163,127.59723,0.2507497,519.5531,134.59213,0.99492055,508.55716,133.72183,0.96041495,534.6376,162.87003,0.9887084,510.37762,156.13318,0.85992986,530.4243,191.455,0.9713169,506.8209,177.42955,0.83822185,557.1328,156.50899,0.9943276,549.76227,155.65083,0.9861297,529.5177,190.8722,0.9874107,527.544,188.1354,0.9687676,539.4531,227.07016,0.94995004,539.36926,219.5716,0.9162457,0.74606989,0.14075484,0.70770451,-0.18963828
20,666.6666666666666,489.19177,135.31818,0.92437625,490.55453,131.35277,0.9239186,486.38965,132.6853,0.62704915,499.6093,126.67067,0.9037971,488.98343,129.51578,0.2934528,518.2005,135.44286,0.99391335,505.6108,136.94572,0.96480024,534.1725,162.005,0.98462915,507.0909,157.14041,0.8439005,529.129,192.69556,0.9665462,502.6245,179.64671,0.8275804,553.9668,157.15459,0.9900046,546.11035,157.72516,0.9770115,527.1945,190.49397,0.9787435,522.9863,192.20216,0.9515781,538.0817,223.71776,0.923661,534.23083,221.20248,0.8838362,0.70640765,0.16949535,0.67257721,-0.13387676
21,700.0,487.44904,137.98993,0.84850824,487.95367,134.29465,0.8471782,485.57782,135.49709,0.41215026,496.5569,129.20403,0.8621561,489.7569,131.8489,0.19177768,517.3945,136.66711,0.99215347,504.14084,137.3749,0.9490214,535.3357,164.64282,0.9857281,503.59695,158.75858,0.8314515,529.75024,198.36081,0.96907336,499.78928,183.14404,0.8228562,551.4194,157.19897,0.9907323,543.51666,157.28433,0.9772868,527.2309,192.89838,0.97926176,523.9097,193.55617,0.95030516,536.1251,226.9153,0.9196359,533.4565,222.86273,0.8742574,0.69111418,0.16212599,0.6708577,0.03610988
22,733.3333333333333,486.29788,139.5922,0.8703388,487.16037,135.8529,0.8688036,484.1762,137.16017,0.4611304,495.8747,130.2612,0.86728555,486.79523,133.18991,0.19256023,517.1041,137.62955,0.992867,499.62024,138.28004,0.95049876,535.69556,167.67073,0.9868646,497.64816,159.94112,0.83227485,529.5532,204.21664,0.9713054,495.36154,185.62642,0.82427007,550.5005,156.50662,0.99110794,539.99713,156.62833,0.977523,524.62494,189.06207,0.9806309,519.2092,190.21146,0.9515714,535.951,222.09657,0.92832834,532.40625,218.8493,0.88380176,0.80603946,0.16998664,0.7865567,0.04618134
23,766.6666666666667,483.8496,142.90862,0.8786356,485.15704,139.36186,0.8761256,481.72208,140.10797,0.49456862,494.72708,133.2114,0.8695792,484.08047,134.92056,0.21121606,515.4705,140.25731,0.9928188,496.77548,139.13327,0.9556078,534.53503,171.52362,0.98543245,495.81848,160.79868,0.8434382,528.076,210.6366,0.9673891,490.87976,186.54224,0.828279,547.93823,156.62047,0.99131984,536.9808,155.87943,0.9795035,525.6523,191.21469,0.98178536,519.8968,190.60065,0.95789766,534.56683,222.50092,0.9352622,534.2446,218.22778,0.8999198,0.86131033,0.25768207,0.81529721,-0.10366238
24,800.0,483.39462,143.89462,0.94062304,484.5592,139.10901,0.943546,479.36267,141.18327,0.7315074,494.119,132.79143,0.90886366,478.9692,138.01224,0.3297884,514.2075,141.81384,0.9946753,493.94196,143.58801,0.96276546,533.3354,170.20096,0.98503613,490.6255,163.48254,0.8246493,529.7658,207.7941,0.9618697,485.14102,188.01147,0.79490477,546.7124,157.19846,0.98703617,535.47687,157.89307,0.9688028,523.658,187.87874,0.9686733,522.60626,188.85559,0.9234726,535.16315,219.18501,0.8838731,538.7847,215.30666,0.8103325,0.95697347,0.1724431,0.93983945,0.05256812
25,833.3333333333334,481.09637,145.98709,0.939483,482.36127,142.1115,0.9391402,477.9118,143.35544,0.72161,491.5627,135.86592,0.9035733,477.62537,139.19177,0.31485766,512.82227,144.44392,0.9952028,489.44998,144.84904,0.9660137,531.9772,174.92613,0.9866654,482.64572,165.79755,0.8445416,527.551,212.09715,0.9663222,477.9212,188.24005,0.81855863,545.9236,158.73676,0.9900225,532.7496,158.91522,0.97589976,525.32587,195.09329,0.9740693,522.12445,193.92929,0.9365598,535.3389,221.17642,0.9033687,539.3213,214.86609,0.8426735,0.92320553,0.24368028,0.89046472,0.00098258
26,866.6666666666667,480.8646,148.32582,0.9469572,481.742,144.13971,0.951806,476.97986,145.80646,0.7384142,490.03098,137.28387,0.91812503,475.23624,141.80634,0.3107032,510.71722,145.3852,0.9960006,487.48615,147.41206,0.9577565,529.5597,174.83228,0.98889995,480.07898,167.65614,0.7872644,523.7162,212.93321,0.9687936,473.45416,189.7486,0.7642845,544.6342,160.49861,0.98797995,531.7731,161.53961,0.964324,524.51337,200.46303,0.96363884,523.9276,200.06317,0.89217275,536.3796,224.238,0.85501635,542.08923,216.95474,0.74260306,0.97507935,0.25596255,0.94082203,0.0108084
27,900.0,477.539,151.40384,0.934748,479.0358,147.42162,0.9346256,474.16364,148.69595,0.7245105,487.57294,141.06491,0.8906518,472.051,144.41219,0.31746873,507.85553,147.78233,0.9941041,481.77728,151.14401,0.95791256,527.5221,176.40918,0.9847498,475.00946,174.35242,0.81641525,521.4302,213.62413,0.9604353,467.26816,199.0076,0.78290707,541.585,162.25659,0.9852997,526.0618,164.1816,0.9639723,523.76526,202.39241,0.952908,514.91754,204.45256,0.8842312,536.5329,221.16113,0.821818,533.63184,219.11932,0.7166689,1.0119749,0.17195181,0.99584661,-0.05305941
28,933.3333333333334,476.10776,153.67844,0.9382673,477.97363,149.3923,0.9402693,472.39865,150.79498,0.74647844,486.7381,143.58481,0.89279777,469.44513,147.20486,0.32851774,506.05963,150.90303,0.9930575,478.31046,155.6932,0.9509944,523.2921,178.98079,0.9815482,469.99042,180.42526,0.7792812,516.45776,216.4093,0.95140076,461.04996,205.93192,0.7385589,540.14484,165.54834,0.97477347,523.39526,168.24693,0.93865526,522.57355,206.92834,0.9077827,512.5264,209.32932,0.7831478,537.33386,223.22412,0.67949724,533.5017,220.68546,0.5315752,1.00442032,0.20879862,0.93713735,-0.29502017
29,966.6666666666666,474.4022,157.36266,0.93160963,475.83954,153.31116,0.93195283,470.88226,154.43973,0.7143253,484.18655,146.6507,0.8896658,468.1946,149.83751,0.3166244,502.02533,153.04245,0.994522,477.15472,155.04926,0.9580341,516.26245,183.23195,0.9863279,466.7744,179.15343,0.8172242,511.49255,222.31714,0.9613553,456.94415,207.89194,0.77821916,535.5579,162.86075,0.98713976,520.287,164.579,0.9672985,522.60626,206.02223,0.95990425,512.73376,207.21182,0.8968965,536.8707,226.31213,0.84116393,529.6521,223.20576,0.73871666,0.92866888,0.14198306,0.84673983,-0.35397508
30,1000.0,472.59247,161.621,0.90852123,474.23022,158.22191,0.91654825,469.74677,158.47949,0.6265344,482.47467,152.28033,0.88331646,467.25922,153.01622,0.2532803,498.0195,158.92259,0.99463683,475.60217,153.31668,0.9428782,509.37543,194.3216,0.9888204,467.37625,173.08797,0.7865295,502.0914,227.27737,0.9677335,464.9284,191.46057,0.76959705,530.8944,161.13248,0.9896191,515.6998,160.20383,0.9693978,523.36926,204.7363,0.97048193,509.2869,204.7171,0.9133624,542.9884,223.47966,0.87967473,525.98517,221.251,0.7810434,0.86404944,0.02677535,0.73546245,-0.45272455
31,1033.3333333333335,470.40646,167.23714,0.89739615,471.48917,163.46661,0.89435184,467.5961,164.09308,0.624957,477.9311,156.56274,0.85005856,463.95605,158.30344,0.2797352,494.12817,162.12782,0.9924993,469.93613,162.38863,0.94431084,505.0269,198.70734,0.98408264,456.69662,191.88272,0.7869957,494.77075,233.97615,0.95426744,440.01053,223.62848,0.74340534,529.8097,166.22632,0.97997355,514.2413,167.85,0.95009595,517.7892,207.24396,0.9387231,504.4994,209.7303,0.84532255,538.418,224.67871,0.77017087,524.8948,225.0423,0.63599145,0.5992256,-0.18398843,0.49497556,-0.28322919
32,1066.6666666666667,464.6158,172.1348,0.8357344,464.97565,168.10437,0.79121524,462.27594,169.513,0.557592,470.4537,159.5921,0.7368094,459.04483,163.01797,0.29488745,488.70755,161.8413,0.9844136,461.749,167.3094,0.94902927,501.1702,196.11264,0.9703944,447.7692,199.44678,0.8494947,490.6757,233.82622,0.928355,429.17703,227.81427,0.79783875,524.87946,168.13998,0.9732945,507.42,172.22922,0.95508826,516.01074,208.47269,0.918997,497.67935,213.9113,0.85816485,537.6265,223.38107,0.7239304,520.1471,227.55869,0.6391301,0.54230068,-0.14419387,0.45665487,-0.25448868
33,1100.0,463.7672,177.77533,0.8232465,463.467,173.77014,0.80018795,460.69955,175.07993,0.55001634,467.98572,165.51244,0.72771794,456.1452,169.10815,0.27298176,484.79633,167.25891,0.98049563,461.37527,170.08615,0.9122018,498.62943,198.87372,0.96384454,448.4635,195.61877,0.75529945,489.4978,234.88196,0.91302997,430.24316,222.64778,0.7144406,520.9328,167.35245,0.96273893,505.2407,170.55185,0.9276407,520.30096,206.89595,0.9033269,501.671,212.1209,0.81251466,538.86523,221.51587,0.7095915,515.07935,225.79991,0.59845805,0.65964665,-0.07393928,0.44240744,-0.48367587
34,1133.3333333333333,458.5061,180.71579,0.8179033,457.93964,176.38602,0.7362527,455.23825,178.38748,0.72792786,459.4021,168.0128,0.5797013,449.9167,173.76485,0.5188095,472.22357,165.4908,0.92190397,453.29297,178.90877,0.93021995,480.21835,177.90784,0.79510945,437.7224,202.04672,0.8061581,476.1061,197.26749,0.6890403,422.10617,222.81961,0.7240008,510.66934,170.94977,0.91458493,497.209,179.42862,0.9234566,522.98596,208.34181,0.86004007,496.90814,219.46735,0.8686647,536.7925,223.71992,0.7225169,502.3472,236.93864,0.7332723,0.4699752,-0.25350609,0.25055835,-0.30631986
35,1166.6666666666667,450.3602,176.59476,0.5368192,449.99207,173.36296,0.42877764,448.8509,175.46783,0.36199957,455.48822,170.73894,0.38721552,450.23465,176.13007,0.26838648,472.46768,169.06448,0.8264081,450.67242,183.8841,0.8524343,476.55948,167.13785,0.72728324,440.9444,199.88332,0.7348767,457.57352,166.17642,0.6967697,434.655,192.39873,0.7200458,500.26956,187.58765,0.85591865,487.2428,194.53079,0.8677801,505.36212,180.45607,0.8609032,498.72058,183.78186,0.8708585,505.41302,228.91264,0.79550296,515.836,228.42603,0.8115175,0.50336701,-0.47753473,0.06583298,-0.14493081
36,1200.0,447.71136,194.64705,0.6009807,446.97052,191.33081,0.47902,444.88885,192.86282,0.31739536,450.14734,184.87714,0.4039447,443.394,188.39322,0.22280788,460.83133,182.83995,0.9370611,449.3536,188.20508,0.8787837,468.27917,199.39569,0.8443047,451.72067,207.84169,0.6014318,459.15872,200.32416,0.7726781,454.3229,202.82661,0.59149575,490.49707,193.08688,0.9533221,482.26187,197.33916,0.93597764,505.5058,183.52328,0.962093,499.12488,187.36908,0.9443625,521.11115,221.86142,0.9482818,519.6013,225.27951,0.93035066,0.53392188,-0.24883883,-0.15328275,0.44682905
37,1233.3333333333335,434.36008,209.3613,0.5548282,432.8073,204.76306,0.53880507,430.43307,208.81337,0.39929956,438.27527,196.29187,0.4527021,428.44617,206.394,0.23094994,460.2689,192.05273,0.82335025,433.15723,203.05937,0.7358453,479.1917,207.13821,0.68109226,424.06586,217.64897,0.49179465,466.1673,213.44241,0.55887383,419.39365,224.61276,0.43280476,495.47034,189.25429,0.8190743,479.82126,196.70798,0.78105825,508.5288,209.16177,0.7856217,499.08105,217.70056,0.74091256,528.72754,219.53578,0.7263107,522.8416,225.13295,0.7001186,1.07964932,0.22820461,-0.28077274,1.01721777
38,1266.6666666666665,47.65001,131.17487,0.11686043,44.972183,128.0017,0.025101315,48.51991,128.80772,0.113877244,31.543259,125.92236,0.095728025,48.562504,128.144,0.548677,21.644505,133.15532,0.6803055,47.96225,136.8534,0.93081427,8.185282,148.068,0.52877307,57.991253,148.00262,0.9270472,7.976427,160.13918,0.5043068,66.98275,150.36015,0.8569127,20.491268,174.69125,0.9200682,35.876064,176.34033,0.96415716,16.681686,199.99506,0.8553025,28.32723,202.82727,0.93202984,12.3382435,220.5022,0.7273663,19.572987,223.62587,0.8210866,1.19909352,-0.07197411,-0.39892819,1.12849515
39,1300.0,423.2028,227.68692,0.44749954,420.8228,222.88507,0.5409549,418.9902,226.68106,0.26215187,428.6244,210.41687,0.5243276,419.71912,220.49066,0.12915906,462.45676,202.41522,0.7769608,431.18527,210.02057,0.5079151,506.45767,219.23169,0.624562,427.58936,222.90616,0.2584211,519.7509,224.96922,0.48164132,415.29498,228.4007,0.2354647,503.22562,193.60985,0.65342146,486.7225,198.15741,0.5257203,512.4628,225.22107,0.56824857,502.53598,226.2958,0.44081727,530.24664,223.39223,0.470464,523.1521,217.97011,0.40088657,0.99100973,-0.1346137,0.10267979,0.97644062
40,1333.3333333333333,44.749268,120.75702,0.01430255,42.510178,117.85316,0.004855396,45.160954,118.50789,0.014715921,31.60746,117.86538,0.15956193,45.278255,120.06064,0.5075407,22.796812,131.11304,0.8948336,46.857483,134.21016,0.957322,6.890545,145.50632,0.7782047,55.536644,148.809,0.94498277,7.455551,150.48718,0.5926253,67.44763,148.90724,0.8118062,22.218924,175.7902,0.9821623,36.71711,176.85835,0.9895154,16.83779,202.15167,0.9171202,29.023586,203.16792,0.9461903,12.608305,224.23907,0.7648932,19.279705,226.67494,0.82212764,1.5420203,-0.99167064,-0.30410905,1.14102307
41,1366.6666666666667,38.126038,124.427475,0.06286117,36.02806,121.83917,0.020386258,39.43666,122.18553,0.048314955,27.239834,122.94597,0.10978723,43.741257,123.86131,0.31712115,21.28604,133.73773,0.5711608,45.578724,134.72786,0.8214081,7.191147,149.11687,0.4624746,57.39126,148.116,0.81243145,5.682991,154.27672,0.42517278,66.14484,150.01768,0.7065372,19.92871,175.53073,0.8641477,34.084473,175.46681,0.9181652,14.085703,204.16025,0.7795435,25.058022,203.694,0.8628369,6.953102,224.26436,0.6284397,15.34673,223.78412,0.7117814,2.07758829,-0.72342582,-1.11375642,1.59767794
43,1433.3333333333333,441.01538,206.78833,0.10496703,437.3598,206.93271,0.048483524,441.91678,205.52274,0.08478563,427.7163,212.88792,0.12567213,442.13284,210.88632,0.27587572,427.90768,221.09735,0.55499446,447.0221,217.48694,0.55677366,438.59372,229.089,0.40412426,482.90793,223.43317,0.46560863,450.5174,224.5223,0.34169504,513.5175,220.13396,0.4009204,448.31937,222.29826,0.5104787,459.12097,223.02545,0.514475,490.02335,225.03432,0.3461234,492.90082,219.431,0.37110066,498.03442,225.44598,0.28227767,495.21527,216.6489,0.29630646,3.18597747,-3.11994273,0.64432799,0.03537294
44,1466.6666666666665,50.980003,132.55763,0.038155045,48.836773,129.53415,0.01051394,51.184853,130.58469,0.03952673,36.06361,125.24065,0.15954034,47.8556,128.87682,0.5694087,26.284779,131.38832,0.93118405,46.666164,136.52232,0.97661895,7.299835,146.45213,0.84754455,54.62288,150.25632,0.96881616,2.5442467,162.17854,0.73661274,62.987114,156.65417,0.8968024,20.200972,168.8704,0.9904454,32.064358,170.74524,0.99471843,18.406559,196.28978,0.9642659,27.83916,197.92479,0.9782696,14.572109,218.61292,0.89058536,19.181063,222.3551,0.9226928,2.15680453,-0.85828517,-1.18818699,1.58220228
45,1500.0,414.49017,197.10767,0.15310602,411.82635,197.693,0.08449976,415.97345,196.0051,0.102056414,406.34314,205.4191,0.18450463,419.1121,202.58148,0.20951289,415.21167,215.56833,0.5945818,428.6652,211.75623,0.5965012,435.1955,224.66959,0.44270197,459.0683,217.95677,0.5246129,459.00345,222.18417,0.3973413,488.0542,211.90555,0.47325426,449.32394,222.26984,0.5580287,456.3316,222.96524,0.57880545,481.68317,221.51666,0.3939533,477.87646,217.0776,0.43742907,486.35687,222.94672,0.3223978,477.98587,216.7904,0.3513084,2.04253888,-0.40138465,-1.54510981,1.2741629
47,1566.6666666666667,405.11343,188.30362,0.12997968,402.77475,187.57535,0.06872577,406.4439,185.85573,0.106297314,396.43854,195.05429,0.23683833,411.78735,191.77957,0.35703278,405.7861,216.55899,0.6552892,423.70764,209.54816,0.8101553,418.05768,233.77188,0.3499679,448.174,220.2357,0.6782841,432.95355,218.641,0.2650082,448.15732,217.59616,0.53533757,453.30823,221.82098,0.68858343,466.75824,222.00504,0.79601574,488.35034,221.10144,0.6180034,495.36252,214.87282,0.7575559,511.26575,211.59535,0.5957398,519.8138,209.34335,0.7006282,0.21944169,0.17047794,0.12134885,0.06607862
48,1600.0,405.6272,188.8756,0.12599976,403.41544,188.61836,0.068212755,407.04282,186.08646,0.10512334,396.10242,196.73433,0.25141594,412.28934,191.62259,0.3820521,404.03723,218.0731,0.652241,426.6519,208.2691,0.8029021,416.90417,236.76147,0.32592946,455.5591,219.28848,0.6557944,434.61206,218.28319,0.2428135,456.13254,217.29295,0.507034,454.56094,222.78458,0.6573043,470.68903,221.72293,0.77184814,489.7751,222.40764,0.5952139,497.597,214.42886,0.73984015,511.83118,214.82776,0.575996,521.1376,211.38818,0.6836834,0.58383581,-0.45616358,0.31025019,0.19111215
49,1633.3333333333333,401.76266,189.39984,0.07981275,399.94916,188.86035,0.05889115,404.26047,186.61865,0.060293593,395.1622,196.80476,0.3124186,414.04507,191.39417,0.3024545,402.2383,218.12117,0.62441665,430.9545,207.16458,0.7070454,409.49524,235.0517,0.2991689,470.28595,217.307,0.49397522,417.50522,215.72475,0.19677615,478.36414,216.03635,0.34588307,448.03522,221.48598,0.6698223,466.92688,219.44107,0.7465606,481.19965,226.74564,0.6564158,488.94586,217.64915,0.7584447,510.51538,217.90463,0.67003495,517.1957,213.57416,0.74544954,2.1699716,-1.15944647,-1.36849074,1.22134913
50,1666.6666666666667,486.9887,227.90588,0.14366326,485.22842,226.4003,0.06528809,488.20297,226.67622,0.13031551,469.38324,224.30727,0.36667323,490.25772,225.46246,0.6410873,446.56445,222.29922,0.79683775,489.0653,224.66245,0.74929124,429.4614,223.30968,0.34380174,491.12885,228.24417,0.32871476,437.51944,216.3316,0.22499475,485.49686,223.74814,0.2061387,429.6531,213.87694,0.50440466,452.41,215.4916,0.46549395,463.78668,223.16847,0.2663208,477.86584,225.21413,0.27027962,462.03427,228.52776,0.18477893,462.69794,231.85107,0.18624265,1.59001787,-0.8162798,-0.76739635,1.1282495
51,1700.0,519.1602,225.16187,0.47012496,519.7209,223.11102,0.2016307,518.81726,223.34567,0.483372,505.1658,222.39514,0.25848743,513.4468,224.19678,0.6863049,477.0282,222.37637,0.7775721,502.234,225.23862,0.8203525,459.33633,225.97769,0.2922908,488.09528,228.95601,0.47851455,469.62027,217.10497,0.2804127,477.38538,223.75212,0.38129503,432.29785,216.5628,0.48156422,445.43304,217.33353,0.51177996,448.57977,223.7428,0.28220218,459.18054,225.62622,0.33477956,427.71408,224.36168,0.21995056,431.06406,229.16144,0.25187317,1.09907051,-0.5011167,-0.52420737,0.82585997
52,1733.3333333333335,485.42966,226.9752,0.26391247,483.91745,226.1085,0.13148212,486.4371,226.1451,0.21670529,472.7866,225.58145,0.34410736,488.2579,225.67209,0.5707537,454.0117,224.09116,0.83860856,486.01816,224.20398,0.8085271,443.93512,224.7136,0.46353132,485.5834,227.27559,0.46047643,453.77808,218.00279,0.3661502,481.68503,226.91872,0.35665932,435.90298,215.75726,0.6637213,452.45166,216.30804,0.6368194,464.50018,222.57169,0.40898773,475.5459,223.64407,0.41668403,464.08408,226.80382,0.28310814,464.96497,228.7131,0.2858325,0.75614475,-0.0108084,0.21813315,0.72391711
53,1766.6666666666665,40.81129,126.047455,0.08307983,38.581566,123.29735,0.017716764,41.77384,123.734955,0.07424785,27.016876,123.81763,0.09108912,43.779945,124.78975,0.48491076,19.377926,135.22546,0.64727193,45.0125,135.76965,0.92753345,7.63562,151.58098,0.5129424,60.09517,143.784,0.9321327,9.031227,161.57634,0.48467368,72.17505,140.7151,0.85985696,20.883572,182.03207,0.9125808,36.18029,182.4733,0.96291155,13.415876,211.5758,0.8066969,28.25293,212.5979,0.9119734,7.831127,228.55922,0.61606723,23.39584,229.97061,0.74361885,1.06057128,0.11594465,-0.0432336,1.05332764
54,1800.0,516.78094,222.2009,0.65877265,517.7853,220.1874,0.29375678,516.5768,220.31017,0.6679002,507.30634,217.75499,0.27093336,509.23465,219.53276,0.7604108,483.0371,217.14595,0.89389545,496.4242,219.36903,0.9310429,468.87784,225.83115,0.48291844,484.1775,227.2346,0.75136364,473.5469,222.50882,0.46040922,478.98428,227.05374,0.6352262,426.0221,213.68318,0.72942495,432.23267,213.11752,0.767738,427.4274,224.56918,0.445793,435.3763,225.56668,0.52200246,397.8966,224.12122,0.28935713,401.8445,228.65826,0.33739728,1.22770234,-0.2530148,-0.41931677,1.12579305
55,1833.3333333333333,516.7581,224.96196,0.52654195,517.2307,223.0846,0.2101577,516.55414,223.29999,0.5554901,504.0976,221.25853,0.26951477,510.38208,223.23282,0.75685805,478.89935,219.75656,0.85669434,499.0441,222.72357,0.8998001,466.46735,226.07207,0.39308771,488.82593,229.05324,0.66046417,474.22,221.74551,0.35811087,482.78482,227.82343,0.5213103,428.84412,212.07826,0.63916683,439.01633,212.49236,0.6806802,440.4738,223.02632,0.36460528,451.02274,224.71417,0.44147268,418.21213,223.61888,0.24686547,423.4945,228.49605,0.29131624,1.01203375,-0.08720413,-0.1562305,0.99609226
56,1866.6666666666667,517.64435,225.3668,0.5707539,518.3353,223.48935,0.23081294,517.227,223.49251,0.6043204,505.01703,221.98293,0.23203841,510.1637,223.2319,0.7532018,479.53073,220.73509,0.8387071,497.48203,222.70384,0.8887452,468.03952,227.98085,0.37274313,486.50256,229.23734,0.6495683,476.04587,223.59862,0.35890558,481.2894,227.7939,0.5285409,430.04724,212.93002,0.59562045,438.71283,213.14444,0.64183086,444.08267,224.47456,0.31916744,453.45584,225.91771,0.3993454,423.00333,224.25429,0.20867121,427.3818,228.7142,0.25286493,0.84784017,-0.12527917,0.04347924,0.8374053
57,1900.0,513.6688,226.05081,0.5323761,514.199,223.9581,0.20128483,513.11383,224.25119,0.5815325,499.27554,221.8957,0.24516308,506.19238,224.0691,0.7884212,472.74304,220.04097,0.8391695,495.51273,223.50629,0.9001847,459.3027,225.8476,0.34973314,486.58063,229.48387,0.6702634,469.5885,221.38431,0.32513946,479.1732,227.99545,0.52807146,426.47504,212.68816,0.5818058,438.38644,213.47818,0.6466268,439.38477,223.36266,0.30149612,451.07138,225.11125,0.39468744,420.07758,223.34253,0.20487143,426.4859,228.25974,0.2571009,0.93636665,-0.14198306,-0.02849487,0.92510073
58,1933.3333333333333,46.977688,120.63875,0.057676826,44.543137,117.857285,0.0207465,46.822483,118.40839,0.058522377,31.945023,118.151535,0.3577681,43.716698,119.97649,0.7124447,21.44314,131.75595,0.9577681,44.901695,134.21695,0.9797031,6.352337,147.33119,0.84788644,54.213192,147.80075,0.946107,4.7696285,157.21973,0.6657137,65.88613,150.73784,0.8015039,22.231937,172.54987,0.98325104,36.17912,173.64671,0.98819077,16.803543,194.97906,0.9260235,28.727962,196.05244,0.94027406,14.990382,212.41786,0.78772694,22.265974,214.96927,0.81322336,1.07277053,-0.31565439,-0.15475663,1.01353308
59,1966.6666666666665,42.836246,132.5374,0.09809544,40.40423,130.0069,0.020043438,43.562027,130.64438,0.0874887,29.845192,128.84508,0.078541294,44.143356,130.35771,0.47042724,23.303776,135.06776,0.6597837,44.587242,137.86278,0.9345912,11.386319,144.02168,0.5632254,62.324234,144.83116,0.9476272,9.991995,146.09914,0.5641757,79.360985,144.69684,0.8974236,25.568602,175.12604,0.94160515,37.178055,176.4864,0.97621834,17.527466,201.94276,0.88903886,27.772676,204.31856,0.95317954,12.747734,221.61493,0.7678439,21.523632,225.35803,0.8588759,1.17783763,-0.39671738,-0.27757935,1.07371622
60,2000.0,44.186146,129.88052,0.09121248,41.285492,127.97801,0.01666036,45.296844,128.27025,0.07572318,30.244722,128.36517,0.060888007,45.652428,129.08617,0.42178234,24.381903,136.55273,0.64016104,44.321815,137.10498,0.9236904,14.684883,144.21335,0.60220534,65.237236,140.73311,0.9516046,14.730174,142.23975,0.6394677,90.60023,139.95047,0.9172166,25.124912,179.61812,0.92719585,35.180096,180.2297,0.96874565,19.303308,200.18532,0.83601445,28.453117,201.54059,0.92500454,15.760311,219.43945,0.64888304,21.16362,221.76639,0.76587933,1.08422758,-0.37288978,-0.2692274,0.98184482
