frame_id,timestamp_ms,nose_x,nose_y,nose_conf,left_eye_x,left_eye_y,left_eye_conf,right_eye_x,right_eye_y,right_eye_conf,left_ear_x,left_ear_y,left_ear_conf,right_ear_x,right_ear_y,right_ear_conf,left_shoulder_x,left_shoulder_y,left_shoulder_conf,right_shoulder_x,right_shoulder_y,right_shoulder_conf,left_elbow_x,left_elbow_y,left_elbow_conf,right_elbow_x,right_elbow_y,right_elbow_conf,left_wrist_x,left_wrist_y,left_wrist_conf,right_wrist_x,right_wrist_y,right_wrist_conf,left_hip_x,left_hip_y,left_hip_conf,right_hip_x,right_hip_y,right_hip_conf,left_knee_x,left_knee_y,left_knee_conf,right_knee_x,right_knee_y,right_knee_conf,left_ankle_x,left_ankle_y,left_ankle_conf,right_ankle_x,right_ankle_y,right_ankle_conf,acc_x,acc_y,acc_z,acc_mag
0,0.0,493.82346,95.72339,0.94229716,495.78995,93.51131,0.91403574,491.9688,93.67699,0.8697663,499.27545,93.8302,0.77549475,489.28485,94.32715,0.5905424,504.50827,105.789,0.9935016,485.70972,106.705025,0.99370956,509.80328,121.7668,0.9712931,482.5252,122.97255,0.9560029,508.7808,137.87009,0.95246845,481.38364,137.91785,0.92857695,501.43243,137.99965,0.99540734,489.43997,138.3297,0.9953772,502.55682,162.89941,0.98886454,488.56696,163.03673,0.9867792,504.79837,186.40315,0.9707752,490.27322,186.46942,0.96690214,0.86615606,-0.25227787,0.76862458,0.30951325
1,33.333333333333336,492.7846,95.52177,0.9345139,494.548,93.26844,0.9002845,490.96017,93.49919,0.8610299,498.23572,93.512314,0.74297625,488.41745,94.08314,0.5981011,503.7315,105.33238,0.99260557,485.3227,106.09203,0.99319226,509.09433,121.45044,0.95640355,481.43283,122.82782,0.9404751,508.16068,137.55038,0.9195351,479.08716,138.58356,0.8921421,500.74033,137.56589,0.99428314,488.9595,137.74188,0.99440235,502.46014,162.21182,0.9840538,487.3557,162.1836,0.98199433,503.36652,186.08508,0.9639038,488.2456,185.96606,0.96073306,0.83819829,-0.27856193,0.74258616,0.27119257
2,66.66666666666667,491.81168,95.009415,0.9296426,493.57312,92.8205,0.8955538,490.12817,93.024055,0.8487294,497.31873,93.27612,0.7452179,487.83463,93.77183,0.5781135,502.94522,105.28594,0.992467,484.60846,105.939644,0.9926997,508.12482,121.500656,0.9568559,480.78568,122.62897,0.9366422,507.01147,137.36725,0.9197726,479.23462,137.9707,0.88688475,500.03076,137.48393,0.99429697,488.24252,137.6203,0.99427164,501.90094,162.12698,0.9843897,486.60574,162.07175,0.9819172,502.929,186.23486,0.9649123,487.49545,186.04312,0.9610679,0.94843746,-0.39426093,0.82291222,0.25866465
3,100.0,490.61182,94.57695,0.93317544,492.61496,92.42021,0.90702415,489.06778,92.514694,0.84719944,496.76248,93.006355,0.7768198,487.06555,93.27933,0.5536411,502.13107,105.07158,0.9929777,484.0161,105.58919,0.992393,506.8056,121.0791,0.9603704,480.31598,122.2997,0.92946976,504.9429,135.23682,0.9258536,479.00247,136.97325,0.87929046,499.07755,137.13495,0.99445087,487.37686,137.1922,0.99407464,501.29333,161.87326,0.98548675,486.16837,161.7196,0.98196745,502.95984,186.29474,0.96793145,487.48672,185.85889,0.962448,1.0512949,-0.42644048,0.90716861,0.31688262
4,133.33333333333334,490.58337,94.43566,0.9332039,492.65427,92.346436,0.89184374,488.82382,92.343544,0.8598217,496.22086,93.17668,0.7409029,486.30685,93.06409,0.6131795,501.2331,105.22879,0.9919957,482.2572,105.405106,0.9925211,506.04883,121.332855,0.9456223,478.83997,121.575714,0.9338977,504.84494,135.71262,0.9001633,479.5514,135.6983,0.8808111,498.74475,136.28976,0.99318004,486.47955,136.42543,0.9935694,500.31143,161.13414,0.98148257,485.45407,161.18076,0.9799749,502.07733,185.21822,0.959027,487.4004,185.01999,0.95594627,0.94767225,-0.34832523,0.82979029,0.29698534
5,166.66666666666666,489.29745,94.38762,0.9323875,491.45667,92.2741,0.896961,487.57394,92.25746,0.84943223,495.28198,93.038826,0.76103836,485.31665,92.907715,0.57753825,500.45038,105.06767,0.99219245,481.60202,105.1622,0.99173623,505.4951,121.36984,0.94968325,478.2951,121.30328,0.9253689,505.25354,136.45612,0.905856,478.70868,135.47447,0.87056893,497.92938,135.76407,0.9932407,485.8765,135.85585,0.9931942,499.45724,160.61642,0.9823543,485.54364,160.62833,0.9795473,501.10526,184.80563,0.9611017,487.63513,184.48395,0.95598567,0.89612716,-0.32842795,0.78852186,0.27094692
6,200.0,487.9131,94.44639,0.9331302,490.0921,92.292755,0.90351635,486.18372,92.31811,0.84233755,494.12674,92.9198,0.7823277,484.192,92.93739,0.5496368,499.71805,104.84795,0.99255896,481.03336,105.18127,0.99124676,505.2432,121.03108,0.9541186,478.21323,121.49211,0.91927695,505.6284,136.7124,0.9125276,478.018,136.23306,0.8639638,497.23672,135.3345,0.9932641,485.49063,135.46935,0.9928402,498.1391,160.14551,0.9824539,485.54306,160.19037,0.9784524,499.14096,184.12009,0.9606919,487.69125,183.79926,0.95367247,0.90031329,-0.3286736,0.79638252,0.26136675
7,233.33333333333334,487.3156,94.16397,0.9313452,489.5091,91.997314,0.9000078,485.57538,92.00628,0.83920705,493.563,92.64984,0.7771923,483.59464,92.62405,0.54915744,499.23788,104.72119,0.9922323,480.34937,105.01319,0.9910217,504.7739,121.06882,0.95181215,477.2709,121.68088,0.918301,504.90652,136.97104,0.9084021,477.07303,137.41664,0.86150956,496.64746,135.34442,0.9928134,484.87418,135.44133,0.9924361,497.168,160.06935,0.98097837,485.2496,160.06033,0.97690713,497.84283,183.81595,0.95714116,487.77753,183.41454,0.94991237,0.92622062,-0.34414926,0.80645398,0.29845921
8,266.6666666666667,486.5835,94.36878,0.93408895,488.7044,92.19248,0.91093665,484.8869,92.25525,0.8333764,493.11777,93.04952,0.79149884,483.15335,93.34081,0.4867031,499.54483,105.676254,0.9919173,480.48413,106.3268,0.98985493,504.76688,121.87529,0.9680186,476.90906,122.57762,0.93494344,504.44824,136.73897,0.94657904,476.66742,137.49962,0.9059102,497.39206,136.77682,0.9940999,485.66956,137.01555,0.9933751,497.29425,161.41953,0.98815536,486.48126,161.42702,0.98445964,497.1366,185.103,0.97236335,488.2134,184.62552,0.96582985,0.93581802,-0.32105859,0.83028159,0.28863339
9,300.0,486.3472,94.27484,0.92960656,488.411,92.082535,0.9027679,484.61212,92.149025,0.8267256,492.72906,92.95575,0.77525467,482.77814,93.23688,0.48628753,499.12564,105.674965,0.99106336,480.09946,106.304565,0.9891945,504.31396,122.171234,0.96468216,476.56137,122.917175,0.9330066,503.67313,137.00156,0.9419557,476.10773,138.11197,0.90309894,496.96667,136.8853,0.99359506,485.33316,137.11575,0.99295735,496.4378,161.73141,0.98740935,486.2628,161.74654,0.9838532,496.07092,185.86826,0.9708528,488.21204,185.43501,0.96454996,0.94395486,-0.34562313,0.82954465,0.28887904
10,333.3333333333333,486.19507,94.5094,0.9272995,488.24396,92.27324,0.89698315,484.38126,92.34331,0.8250696,492.5265,93.048,0.7598904,482.35434,93.314926,0.490097,498.8518,105.86218,0.99025714,479.60565,106.31836,0.9888094,504.08157,122.82024,0.96169436,475.85406,122.92253,0.93342465,503.20706,138.38045,0.9381718,475.39627,138.33496,0.90346205,496.62778,137.71725,0.9929311,484.92572,137.89978,0.9924522,495.87735,162.55972,0.98580176,486.31583,162.54153,0.9823611,495.6163,186.94733,0.9667595,488.89655,186.49911,0.96048886,0.96780522,-0.44388131,0.78532847,0.35053604
11,366.66666666666663,486.15894,94.23142,0.93078583,488.27594,92.05148,0.89407426,484.35156,92.08008,0.83857906,492.27383,92.58565,0.76327366,482.303,92.69313,0.5533812,498.2862,104.98286,0.99195015,479.1187,105.324135,0.991963,503.52304,121.8853,0.95561683,475.39362,122.15889,0.93850213,501.62903,136.6849,0.9226117,474.8584,137.83875,0.8975321,496.03467,137.19669,0.9932747,484.27893,137.32755,0.99342465,495.14688,162.90771,0.98295504,485.28058,162.82205,0.98071015,495.8701,187.80212,0.95703775,489.02722,187.26778,0.9522414,0.97166267,-0.48367587,0.75634231,0.37166155
12,400.0,485.96262,94.269516,0.9297771,488.0629,92.11932,0.8908428,484.20145,92.13524,0.8394202,492.07886,92.70262,0.75403565,482.19403,92.76619,0.5585574,498.16824,105.13073,0.99164903,478.90234,105.37905,0.9921416,503.50742,121.88649,0.9538423,474.76773,122.01932,0.94185203,501.46832,135.98816,0.92060053,474.61194,137.3287,0.90192056,496.09167,137.79515,0.9932105,484.23828,137.86888,0.9935819,495.00552,163.70633,0.9823944,484.71292,163.54153,0.9807227,495.95044,188.94116,0.95547205,488.53134,188.31534,0.95167816,1.02147021,-0.55221095,0.77255491,0.37632881
13,433.33333333333337,486.53824,94.28349,0.93804634,488.74637,91.98482,0.9018412,484.60715,92.1433,0.8709304,492.67996,92.58501,0.7468519,482.0901,93.09175,0.6218498,498.90143,105.25147,0.9921359,478.39014,106.32555,0.99389774,504.0788,121.74698,0.96008915,474.45856,123.37659,0.9595912,501.80533,136.00626,0.9360635,473.84503,138.22653,0.93059987,496.81918,138.63425,0.9946002,484.1718,139.06651,0.9952519,495.71826,164.08453,0.9872093,485.29688,164.20587,0.9868995,495.8911,189.09793,0.9668533,489.00958,188.93526,0.9661214,1.02146008,-0.61509618,0.72588227,0.37166155
14,466.6666666666667,487.03342,94.329254,0.94035184,489.2397,91.99565,0.8982389,484.95227,92.15669,0.8841454,493.0186,92.62143,0.72126716,482.06564,93.09329,0.66195047,498.98337,105.37985,0.99178094,478.02563,106.379166,0.9945263,504.16614,121.94861,0.955213,473.59238,123.51471,0.9648734,501.9869,136.29724,0.92994,473.15262,138.79576,0.937065,496.76993,138.98528,0.9944471,483.83405,139.40915,0.9955106,495.64368,164.40591,0.98653793,484.91537,164.51518,0.98738873,495.53464,189.3935,0.96524394,488.57126,189.28258,0.9667036,0.92606379,-0.57481033,0.64604751,0.3313757
15,500.0,486.9911,94.147514,0.93470955,489.1751,91.897385,0.89029074,484.94354,91.85122,0.8605873,492.93604,92.545395,0.7295465,482.12018,92.37806,0.6065455,498.7619,105.46526,0.9915285,477.98883,105.30422,0.99315095,504.0122,123.22275,0.9490822,472.72397,122.43083,0.9495439,502.03854,138.77536,0.91344875,471.82224,139.05785,0.91042244,496.313,138.58015,0.99327236,483.65274,138.5386,0.99412775,494.57922,164.78319,0.98211664,484.63437,164.53102,0.98189974,494.82773,190.44525,0.9548506,488.93658,189.78912,0.95362556,1.3245598,-0.29207243,1.23829866,0.36846816
16,533.3333333333334,487.3908,94.08022,0.9369977,489.63315,91.80947,0.8962582,485.32678,91.72265,0.8634506,493.4265,92.415115,0.7380127,482.4127,92.12213,0.60028625,499.16098,105.51361,0.9916192,478.0174,105.07681,0.99292433,504.36783,123.677155,0.95037323,472.1201,122.17842,0.9472086,503.17773,140.44635,0.91427875,470.73325,139.40868,0.9067305,496.32437,139.07233,0.9929073,483.4553,138.91144,0.99364966,494.40253,165.15222,0.9803539,484.1154,164.8051,0.9795577,494.50287,190.5794,0.9497469,488.06458,189.807,0.94734937,0.91954866,-0.40531498,0.67184028,0.4794999
17,566.6666666666666,488.36874,93.82462,0.94128484,490.63815,91.54657,0.899662,486.2523,91.39105,0.8743211,494.35184,91.949356,0.7325268,483.1087,91.44226,0.62050915,499.68884,104.956894,0.9917762,478.41364,103.98566,0.99350053,504.34476,123.78076,0.9502262,472.11252,120.94101,0.9519934,502.99902,141.37378,0.9147261,470.67554,138.36427,0.91366893,496.12766,138.77776,0.99290717,483.15958,138.38509,0.99386567,494.16095,165.36368,0.9796189,483.82935,164.81021,0.9795263,494.05606,191.13516,0.946664,487.50876,190.14859,0.94552296,0.84810759,-0.12748998,0.64457363,0.53624399
18,600.0,488.78333,93.67862,0.9452678,491.05447,91.42822,0.9052624,486.72052,91.23901,0.88084507,494.78482,91.715225,0.7398827,483.65057,91.12541,0.62904,500.0344,104.60668,0.992638,478.88416,103.41766,0.99435705,504.58478,123.52606,0.9559687,472.5356,120.094894,0.9586384,502.96912,141.18803,0.9244885,470.69116,137.34619,0.92482626,496.02808,138.58261,0.99384815,483.1258,138.08342,0.99476224,494.30637,165.29752,0.98183733,483.94067,164.64984,0.9819625,494.32465,191.17488,0.9509224,487.56906,190.08879,0.9502759,0.77632218,0.04569005,0.65046912,0.42128193
19,633.3333333333333,489.22034,93.43093,0.9473778,491.55176,91.17396,0.9056257,487.1254,90.96735,0.8883881,495.2397,91.55354,0.73220325,483.9066,90.91562,0.6490896,500.27823,104.64954,0.9926968,478.93893,103.29813,0.9948207,504.5745,123.94508,0.9545377,472.60712,119.92563,0.962262,502.6136,141.58447,0.92282665,470.3941,136.74435,0.9298672,495.6755,138.69237,0.9940236,482.60016,138.1062,0.99512744,493.8485,165.73814,0.9822809,483.13214,165.01636,0.9831525,494.12036,192.10074,0.9523679,486.91217,190.97768,0.9531863,0.93969797,0.08916929,0.88481487,0.30361776
20,666.6666666666666,489.6141,93.403656,0.9520152,491.94485,91.1664,0.9113308,487.5136,90.93987,0.90099174,495.56723,91.51172,0.7314683,484.2053,90.82924,0.6749614,500.5145,104.578354,0.99280965,479.0647,103.20898,0.995314,504.88745,123.682434,0.95436764,472.5184,119.78545,0.9668413,502.91992,141.01837,0.9230624,469.34744,136.91818,0.9364533,495.6006,138.71236,0.9934187,482.39706,138.08879,0.9948743,493.80377,165.32852,0.9782106,482.27045,164.5624,0.98022723,494.28677,190.72061,0.9393691,485.67465,189.59273,0.9424036,1.05786848,-0.09481914,0.95949109,0.43528372
21,700.0,489.45154,94.15604,0.9512649,491.85614,91.923706,0.91501325,487.42245,91.62637,0.89387447,495.60544,92.07168,0.74864805,484.18753,91.23077,0.6412481,500.569,104.858894,0.9930686,478.8757,103.32257,0.9949019,505.10162,123.934906,0.95873016,471.9631,119.919174,0.9630556,503.05734,140.95995,0.9293001,468.1209,137.22806,0.93177086,494.9451,139.12715,0.99384105,481.57553,138.38599,0.9948578,493.16177,165.98615,0.98035187,481.1198,165.12534,0.98070747,493.6766,192.19368,0.94542944,484.22177,190.9246,0.9450626,0.99244631,-0.23311752,0.85067016,0.45493535
22,733.3333333333333,489.20395,94.8539,0.94918334,491.66864,92.6426,0.91441107,487.26364,92.25483,0.8867858,495.52963,92.58979,0.7532112,484.1256,91.51627,0.6170244,500.50308,105.05139,0.99284077,478.504,103.27492,0.9943441,505.10037,124.0309,0.95956177,471.39575,119.960205,0.9594853,502.98962,140.8142,0.9302683,467.975,137.77803,0.9267946,494.3938,139.4892,0.99353206,480.72342,138.61064,0.99437666,492.86368,166.53682,0.9790869,479.70117,165.53691,0.97859174,493.189,192.76007,0.94153553,482.07065,191.28735,0.9393834,0.92919043,-0.27512289,0.81652544,0.34783394
23,766.6666666666667,489.00653,95.36099,0.8840944,491.02847,93.214676,0.81264955,487.47122,92.92795,0.76137143,494.55322,93.22109,0.62780756,484.71344,92.42516,0.46514648,500.4835,105.43728,0.9882173,478.3616,103.893776,0.9906363,504.7065,124.339386,0.9624395,471.09058,120.33774,0.96257496,502.66406,140.99374,0.94174546,467.73782,137.82974,0.9391073,494.23944,140.38707,0.99477464,480.4208,139.55917,0.99544096,492.66556,165.80862,0.986932,477.8279,164.83118,0.9865458,493.83026,191.55855,0.9629061,480.08548,190.19478,0.9613211,0.90215093,-0.258419,0.79982155,0.32769102
24,800.0,488.57828,96.13711,0.90451276,490.69214,93.93866,0.84314024,486.92984,93.67758,0.79772377,494.37637,93.876816,0.6589521,484.12186,93.13082,0.49935013,500.29767,106.159386,0.98995084,477.8581,104.63629,0.99216354,504.6368,125.1799,0.96467507,470.40027,121.0668,0.9653665,502.9707,142.65915,0.94440377,467.94562,138.90166,0.94247776,494.2989,140.96518,0.99519366,480.26727,140.16115,0.995854,492.64352,166.74883,0.98776025,477.51114,165.77847,0.98749304,493.43442,192.63345,0.96515936,479.58777,191.2749,0.9638794,0.9033969,-0.23508269,0.82856207,0.27266644
25,833.3333333333334,487.7727,96.63495,0.86350507,489.7539,94.541885,0.7929474,486.49707,94.27858,0.7128426,493.59998,94.779366,0.6252411,484.3901,94.040245,0.404586,500.06396,107.20935,0.9878127,478.02133,105.529175,0.9896214,504.60968,126.42815,0.96667194,470.15912,121.62857,0.96238196,502.917,143.87347,0.948059,467.4074,138.91524,0.9405667,493.81232,142.25253,0.99519956,479.97592,141.33206,0.9956726,492.4197,168.48318,0.9876867,477.02457,167.4476,0.9868196,493.0166,194.56482,0.96411586,478.53235,193.12218,0.9615591,0.91612046,-0.23262623,0.86295243,0.20118362
26,866.6666666666667,486.1301,97.2688,0.78438795,488.11237,95.18038,0.71512204,485.28598,94.89102,0.598323,492.55078,95.335754,0.57396793,483.8809,94.5511,0.32847738,499.62906,107.124146,0.9850765,477.178,105.4324,0.98715174,505.1769,125.36357,0.96570545,468.50018,121.296295,0.95779574,503.38303,142.60674,0.94506854,465.70898,139.03662,0.93151134,492.98462,142.9667,0.9958418,478.6876,141.89473,0.9961457,492.8485,169.48212,0.9890723,476.13162,168.326,0.98799676,492.55545,196.1499,0.97032017,476.32916,194.5771,0.9680263,0.82417431,-0.04397053,0.81603415,0.10685577
27,900.0,483.28598,98.50109,0.54261476,484.451,96.50347,0.47261962,483.81146,96.12478,0.2761026,488.77942,97.21571,0.50581986,487.63632,96.083496,0.19479825,494.453,109.07097,0.97384393,484.43576,106.42818,0.96790546,500.46735,127.40878,0.94743806,473.6407,123.051056,0.89773303,500.32272,143.20793,0.90820706,469.80206,141.79805,0.8474403,488.73016,144.35631,0.9941386,482.5474,142.62296,0.99345386,490.47845,170.78888,0.9882401,478.49924,169.18448,0.9848779,491.5203,198.04288,0.97251874,476.6374,195.78854,0.96694994,0.81889326,0.12159449,0.80915608,0.03267084
28,933.3333333333334,480.58887,99.42587,0.26442075,481.37143,97.03166,0.24353845,482.0932,97.03809,0.09099843,482.58905,97.318344,0.8000132,492.15234,97.315056,0.3794863,478.49228,109.284035,0.9892882,497.17465,109.42494,0.9823981,469.31702,127.24393,0.9533966,503.99048,127.47444,0.8564782,465.41434,144.7212,0.8543728,502.56656,143.81738,0.6864329,479.89682,143.95825,0.99476975,491.31702,143.89523,0.99323165,479.76492,170.45529,0.9864347,488.8653,170.84511,0.97956616,481.56082,197.03232,0.967163,487.41754,197.14699,0.956116,0.92589638,0.14321129,0.91257281,0.06313088
29,966.6666666666666,483.2046,103.026344,0.6412301,484.9473,100.85135,0.5803536,482.61514,100.689064,0.40218487,489.91785,100.89377,0.517582,482.51044,100.427536,0.2155881,497.83478,111.94266,0.97473484,476.96896,110.815216,0.9697222,504.16403,129.4107,0.94728535,467.45862,127.928085,0.90301114,502.3436,145.58876,0.91200775,464.20667,148.15863,0.85731184,491.16522,145.98515,0.9939049,478.02344,144.97073,0.99321294,491.55524,171.82513,0.9876046,475.55698,170.74829,0.9840211,490.77,198.19023,0.9712899,475.81738,196.57635,0.9651729,1.09252963,0.15966954,1.07838348,-0.07221976
30,1000.0,487.9701,111.10376,0.84892946,489.78824,108.51991,0.73477435,485.74506,108.360565,0.7642207,493.02164,106.121895,0.47002903,481.45886,105.444244,0.5472332,498.90448,114.02661,0.9832008,473.78372,112.92662,0.9904855,504.43274,132.56956,0.93775105,466.9251,130.73743,0.9631873,501.43637,150.19708,0.9054039,465.56775,149.69972,0.93181884,492.12372,145.32994,0.9942194,476.2837,144.78879,0.9957159,491.50403,171.92876,0.98571026,474.70633,171.36122,0.987866,488.35757,198.76193,0.96392363,475.44382,198.29091,0.96778286,1.20409083,0.03463601,1.03220214,0.61902651
31,1033.3333333333335,487.91354,114.974014,0.9001173,489.76978,112.155624,0.7999452,485.33517,112.21735,0.8450673,492.63763,109.13664,0.4795358,480.64197,109.28668,0.62745285,498.0005,116.03891,0.9853388,472.55453,116.73739,0.9934835,503.56473,134.70242,0.95556694,466.41278,135.8739,0.9812696,499.3204,155.8192,0.9433205,466.68237,158.68076,0.9679003,492.35397,144.94423,0.9953052,476.11478,145.42377,0.99691534,491.98016,170.09767,0.9898789,474.2081,170.49327,0.99224746,490.0378,196.48209,0.97448355,475.82486,197.40482,0.9788896,1.03886689,-0.20560523,0.93640042,0.40015642
32,1066.6666666666667,487.8074,120.39192,0.8654837,489.74475,117.526566,0.75962853,485.28513,117.597626,0.7877856,492.8516,113.7677,0.46514875,480.9697,113.973145,0.54445946,498.9389,119.05589,0.98283446,472.73065,119.59923,0.9918228,504.1859,137.47867,0.95760715,465.89053,137.58487,0.97961044,498.6025,157.932,0.9464718,465.7522,158.89029,0.9666959,493.08914,145.66069,0.99536985,476.43372,146.02994,0.9968406,492.77814,170.29303,0.9905048,474.4879,170.52063,0.9923805,490.2644,196.04642,0.97592556,476.59854,196.68198,0.9793738,0.83763099,-0.1643368,0.78901315,0.22820461
33,1100.0,488.0071,125.56708,0.88469183,489.9528,122.547806,0.77672637,485.38696,122.773865,0.82039046,493.16757,118.15343,0.46289983,480.87323,118.7933,0.60343736,498.59448,122.019455,0.9848341,472.0821,124.081406,0.99296415,503.76462,139.4066,0.9577724,466.7932,143.63435,0.98028976,496.66815,157.52661,0.9470411,468.48358,164.17232,0.96737415,492.6817,147.05017,0.99538213,475.72806,148.254,0.9968767,492.2425,171.92776,0.9905128,474.50375,173.13083,0.9924966,489.13647,197.1,0.975414,477.10727,199.09636,0.9792032,0.61119972,-0.115699,0.56080854,0.21371153
34,1133.3333333333333,486.58777,130.36328,0.9249386,488.63187,127.43439,0.86977106,483.82376,127.526215,0.85740775,492.35913,122.74045,0.63165146,479.75528,123.03056,0.5942691,498.95743,126.203735,0.9909713,472.65732,126.99611,0.99460524,503.65268,144.27478,0.97183514,468.1626,146.18794,0.9791443,497.0439,160.59846,0.9614441,470.6997,165.96881,0.9663194,492.78647,147.8702,0.99623305,476.27502,148.16188,0.9970741,492.253,172.1716,0.992332,474.79688,172.21434,0.9929115,488.3751,197.4668,0.97985655,477.77826,197.73718,0.98087573,0.58994426,-0.1048906,0.4740957,0.33506038
35,1166.6666666666667,487.38214,137.36244,0.8390165,489.41187,134.37555,0.7345913,484.70618,134.44713,0.7300467,493.53992,129.78056,0.46390042,480.52066,129.81604,0.48018438,499.87823,131.83778,0.976857,472.72906,132.6835,0.98293847,503.54153,150.22748,0.93135476,469.21906,154.01112,0.93503255,496.09848,164.60037,0.9071541,473.1528,173.13464,0.9025452,493.2887,147.10004,0.9898436,475.99188,147.38496,0.9908969,492.2412,172.68816,0.9834025,473.7738,172.77206,0.9832929,487.94092,196.92569,0.9594926,477.98712,197.3246,0.95982164,0.78861403,-0.12478788,0.65120606,0.42693177
36,1200.0,489.1759,141.7621,0.7855411,490.96783,138.72289,0.64123875,486.44556,138.86496,0.6696228,494.3052,134.75941,0.38205078,481.52295,134.8964,0.46769968,499.7513,136.84029,0.9731382,472.71222,137.53629,0.9811724,502.33273,157.5888,0.930352,469.61032,159.97609,0.9403023,495.1306,172.12758,0.90461606,474.23407,176.66516,0.9074618,492.57547,147.3461,0.9893154,475.19824,147.72113,0.99070615,492.18793,173.406,0.9824571,473.96048,173.73793,0.9830426,488.3172,197.8375,0.9564632,479.62173,198.79236,0.9580026,1.02620399,-0.12675305,0.91969653,0.43724888
37,1233.3333333333335,489.19537,148.70535,0.56025106,490.62683,145.60881,0.4110596,486.28772,146.29134,0.41401157,494.0296,141.20139,0.27393854,481.60458,142.62248,0.2905664,500.16595,139.94139,0.9458654,473.9824,141.94934,0.94602907,501.47748,162.6199,0.9086132,473.80145,165.67252,0.88469446,495.61285,181.23445,0.8768971,479.6218,181.97072,0.8486254,492.05743,140.4018,0.98588204,474.93378,141.37733,0.9857501,492.0747,167.86464,0.9841723,474.86157,169.11627,0.98248565,490.3861,195.12802,0.9659268,482.8331,197.35587,0.96284205,0.5809833,-0.37362671,0.44486389,0.00638678
38,1266.6666666666665,43.77587,137.06384,0.15509123,41.752205,134.37679,0.030921128,44.383472,134.89453,0.13587083,29.935251,132.14879,0.1163404,43.802795,133.30313,0.5883111,20.996048,138.13602,0.7930161,44.538567,139.78876,0.96374476,6.552843,149.92285,0.67867565,64.085236,143.57259,0.9649608,6.4153957,163.40784,0.6466777,82.287926,142.96307,0.92093086,23.020374,181.01608,0.9588342,36.45817,181.82874,0.98276204,12.644648,207.86412,0.8992479,26.88226,208.02248,0.95553726,10.070353,228.23466,0.75719875,26.726612,227.38507,0.84754074,0.98703046,0.18300585,0.9698082,-0.01449308
39,1300.0,55.110535,144.30841,0.007539627,53.34459,141.53333,0.0034127724,55.77407,142.7031,0.0059785536,42.733723,134.80074,0.100742124,53.648445,139.3694,0.14315017,36.088554,133.04294,0.807312,51.24965,140.68,0.86941373,12.752022,142.06091,0.87432593,56.74441,152.10956,0.9271494,2.7879372,160.58543,0.80744785,65.38676,163.41982,0.8526986,28.248678,158.89493,0.98881626,35.81678,161.87776,0.99093175,34.10761,183.96481,0.97579736,38.683945,186.60208,0.9788071,23.025412,203.12022,0.92796206,21.95166,207.37964,0.93523675,0.94393159,-0.10882093,0.937383,0.02186244
40,1333.3333333333333,113.65416,189.75665,0.08584062,113.0903,188.47246,0.06618756,114.24323,188.46965,0.042262983,111.57332,188.22289,0.43481502,116.866714,188.64482,0.23506066,110.21195,191.23529,0.9483997,118.45793,192.41466,0.94085896,102.53424,193.81561,0.92188674,121.10982,196.98412,0.87365717,96.264015,190.83403,0.84672064,119.13392,196.28352,0.78039193,110.332,207.0907,0.98811394,115.62332,207.47166,0.986847,110.92388,220.40245,0.9748004,117.363266,220.80086,0.9682474,110.83838,232.41838,0.94731927,117.73558,232.65033,0.9376525,1.00211975,0.02014293,1.00100517,-0.04274231
41,1366.6666666666667,41.349785,132.90718,0.07958325,38.87296,130.19658,0.017351517,42.596664,130.56464,0.06930909,27.665491,128.88144,0.08962417,44.99795,129.64151,0.4613334,20.313654,136.53654,0.6461921,46.53504,136.14357,0.92492896,5.852112,150.17357,0.53936404,63.0223,141.91568,0.9365778,5.519932,157.9341,0.5210356,78.12135,142.56828,0.8725064,22.207458,177.88669,0.92374545,37.062847,177.68369,0.9675002,14.543808,206.4357,0.8428054,26.102894,205.70265,0.9290675,11.137957,226.39362,0.68094456,19.788258,225.60483,0.7937343,1.0577678,0.03119697,1.05652104,0.04077714
42,1400.0,33.73086,129.8999,0.06280681,31.33435,127.37587,0.015149186,35.610752,127.78308,0.047526747,22.693285,127.07741,0.08388157,40.533985,127.90376,0.3293331,18.332504,135.3555,0.56261986,43.99774,135.49817,0.88972825,4.3804207,149.17519,0.5143551,61.63716,141.16432,0.9246695,3.448944,164.50928,0.52960575,80.34893,143.27527,0.8690126,22.72,176.50839,0.89113873,36.59383,176.56934,0.95187557,14.951921,194.0373,0.792151,23.566698,195.22343,0.901977,7.7073746,216.60355,0.6253105,12.447264,218.82903,0.748951,0.74348897,-0.28470306,0.68313997,0.07099153
44,1466.6666666666665,493.47974,202.76988,0.4424928,496.91443,200.2887,0.35334328,491.65356,198.56125,0.3762167,503.30972,193.22658,0.16935211,488.59802,187.74474,0.20341858,511.8603,190.40187,0.7805482,475.06717,178.86452,0.8911057,514.41736,218.77405,0.8340943,461.19748,191.01399,0.9419195,510.35147,237.80222,0.8053669,462.2336,197.82368,0.91206336,497.89154,198.80263,0.8542664,473.09564,193.66722,0.9040866,502.0195,231.37039,0.42830837,469.38,226.2363,0.5349669,499.48618,240.0,0.105808534,468.39774,240.0,0.14061177,0.6669902,0.1184011,-0.20904427,0.6222199
45,1500.0,38.922234,133.16025,0.0042860364,36.71519,130.15096,0.0019738213,40.56851,130.92435,0.0035692132,28.168884,126.490295,0.12486721,43.791058,128.43494,0.21428365,22.334293,133.01314,0.83107513,46.78206,133.86728,0.9228348,10.770863,146.62512,0.8432646,61.64924,139.11452,0.9558516,11.2746315,169.03984,0.7248795,77.613174,146.4734,0.8658495,24.333765,171.17297,0.98821217,38.296295,171.31949,0.99284595,16.408016,194.98807,0.95179456,23.61416,194.9955,0.9669443,15.603409,213.99823,0.8409745,15.634626,215.04907,0.87624454,2.27319229,1.62297942,-1.06315346,1.18450231
46,1533.3333333333335,47.81465,134.33897,0.12755087,45.74971,131.86212,0.021912457,49.193253,132.23247,0.11127288,31.512413,132.24536,0.09654004,47.0651,133.37808,0.50876266,21.754166,141.78271,0.76180804,46.805695,139.70215,0.9416986,4.501526,151.98004,0.670287,62.606678,142.23167,0.95471674,6.106964,159.65028,0.6339364,87.06781,140.80183,0.90843344,23.934898,178.63155,0.93635714,36.786728,176.91873,0.97267103,16.44912,200.35765,0.8337366,27.393414,199.02832,0.92462593,15.422966,218.26424,0.6408175,22.812782,219.07024,0.75394684,1.78813556,1.17025487,-1.23387704,0.55270224
47,1566.6666666666667,48.773624,133.2844,0.013958709,46.282135,130.30688,0.0040518474,49.24061,131.32317,0.016263105,33.643005,126.49013,0.12603675,46.088917,129.83745,0.49709988,24.652105,133.02603,0.89093286,46.43622,137.55254,0.9610648,8.378571,142.11472,0.8127488,59.29272,144.88791,0.96381855,7.496258,154.65472,0.686384,75.96348,147.93506,0.8782887,22.329872,172.87839,0.9873044,34.78826,174.59657,0.9929603,18.149223,196.47444,0.94590586,28.392183,197.79001,0.9672747,15.807013,215.30173,0.8349835,20.963558,218.44711,0.8819194,2.02334299,0.60551601,0.54557852,1.85192097
48,1600.0,36.248444,126.046036,0.04847794,34.301163,123.09682,0.014985792,38.485023,123.63522,0.034336217,26.459156,123.34128,0.098217115,44.72515,124.56119,0.25976822,20.572119,134.1484,0.52704453,46.514812,136.32191,0.8146066,5.0067387,154.29832,0.46493652,55.996544,152.34613,0.8351859,1.8354492,172.47455,0.44056246,63.804695,155.25537,0.74202335,20.248142,179.31491,0.8443824,35.136127,180.09593,0.91100234,15.909536,204.36737,0.7181084,26.10952,206.9617,0.8288841,8.305471,222.8919,0.532568,15.957406,226.56473,0.6340006,0.6220263,0.30509164,0.43675759,0.32105859
49,1633.3333333333333,37.97651,131.57211,0.006307245,36.65334,128.31995,0.0031770018,40.207985,129.13412,0.0045240875,30.510822,124.30348,0.1454606,45.329018,126.92032,0.18870881,25.326477,131.11905,0.8388839,47.177334,134.26396,0.93111306,7.931778,145.70935,0.83990884,55.218994,145.34041,0.95605433,5.0398903,162.02551,0.723388,65.63844,151.32289,0.8727888,25.004854,170.04735,0.9883583,37.69245,170.9256,0.99328125,16.265839,192.79604,0.9605787,22.539093,193.56084,0.9736216,13.50392,209.5104,0.87764317,12.226931,211.18202,0.90761715,1.71092387,-0.29993308,-1.29602534,1.07592703
52,1733.3333333333335,35.032463,132.03508,0.004018812,32.57557,129.0991,0.0015727713,36.461113,129.51999,0.003883386,25.932325,126.273346,0.08120143,40.17958,127.46211,0.25778008,23.102057,134.58324,0.76909834,44.449535,135.16649,0.92969453,7.1426773,146.47626,0.76662844,56.749596,144.92102,0.97010964,5.685009,152.87405,0.6286251,70.7041,147.442,0.89997154,26.905437,174.6549,0.98447466,39.056526,174.23799,0.9929705,18.71809,198.00282,0.9405589,24.224957,197.36934,0.9702276,10.347187,215.26598,0.8066942,7.5834293,215.03052,0.87869835,1.72904822,1.57778066,-0.69321143,0.14026355
53,1766.6666666666665,29.48349,132.02342,0.1348441,28.392063,129.44136,0.04495289,31.609884,130.00206,0.0804732,26.053976,129.06163,0.17215344,40.337074,129.60466,0.3280521,24.536308,137.89946,0.7395862,43.677567,137.60129,0.91978556,13.483954,147.81279,0.6727239,56.256653,145.76155,0.92671555,10.5653515,145.0788,0.651164,69.716805,145.1226,0.8730943,23.364403,180.48367,0.93647796,33.630287,180.17851,0.9661623,15.916686,209.50594,0.84857005,22.9859,210.59616,0.9180628,12.437338,228.96771,0.65425664,15.058172,232.19092,0.75150764,0.98893434,0.67871835,-0.31565439,0.64629315
54,1800.0,50.080254,135.97958,0.02088762,47.137184,133.01663,0.0055477438,50.07434,134.05864,0.024407178,32.738045,129.63206,0.13446537,45.45518,132.68443,0.55966365,23.676903,137.17194,0.90412617,45.78299,140.04105,0.9647494,9.435068,149.19691,0.7972967,59.438663,145.1508,0.9572821,7.924307,166.06473,0.6662248,70.81733,147.14418,0.8593731,21.320507,176.06393,0.986785,34.570583,177.09137,0.99245644,15.272446,200.67963,0.94388765,27.65615,201.46236,0.9647829,11.3854065,220.61894,0.8397048,20.733885,223.48772,0.8821966,0.77493194,-0.71114355,0.02849487,0.30656551
