frame_id,timestamp_ms,nose_x,nose_y,nose_conf,left_eye_x,left_eye_y,left_eye_conf,right_eye_x,right_eye_y,right_eye_conf,left_ear_x,left_ear_y,left_ear_conf,right_ear_x,right_ear_y,right_ear_conf,left_shoulder_x,left_shoulder_y,left_shoulder_conf,right_shoulder_x,right_shoulder_y,right_shoulder_conf,left_elbow_x,left_elbow_y,left_elbow_conf,right_elbow_x,right_elbow_y,right_elbow_conf,left_wrist_x,left_wrist_y,left_wrist_conf,right_wrist_x,right_wrist_y,right_wrist_conf,left_hip_x,left_hip_y,left_hip_conf,right_hip_x,right_hip_y,right_hip_conf,left_knee_x,left_knee_y,left_knee_conf,right_knee_x,right_knee_y,right_knee_conf,left_ankle_x,left_ankle_y,left_ankle_conf,right_ankle_x,right_ankle_y,right_ankle_conf,acc_x,acc_y,acc_z,acc_mag
0,0.0,521.9395,61.39634,0.95047057,524.3612,58.92993,0.9464747,519.867,59.38758,0.85616314,529.13055,60.40873,0.86852825,517.7521,61.64193,0.47375718,535.80597,74.72435,0.99418265,515.9733,76.09383,0.9887566,542.5089,91.909744,0.97775286,513.66144,91.05473,0.9019776,544.9712,106.16773,0.95867044,517.1931,94.98448,0.86780506,535.5435,108.26571,0.9924269,522.8152,109.00012,0.9890682,537.88293,134.05428,0.9777671,524.60284,134.65952,0.96281,539.35406,156.14975,0.9375895,526.3168,156.40363,0.9108704,1.09044988,-0.0967843,1.02556971,0.35765976
1,33.333333333333336,521.1819,61.706207,0.9509797,523.4906,59.19484,0.94339544,518.94525,59.749435,0.8652945,527.9794,60.712593,0.8534191,516.49384,62.16571,0.50770706,534.72766,75.04585,0.9940402,514.81433,76.67732,0.9897245,542.4806,91.84646,0.9760374,512.4809,91.0283,0.9130525,545.39655,105.59659,0.9561925,515.57825,93.275635,0.8791786,535.1885,108.64414,0.9926541,522.4123,109.580414,0.9900738,537.17194,134.2888,0.9782693,524.10944,135.12393,0.9660855,539.2114,156.23224,0.93906474,526.26306,156.84457,0.91700536,1.1350001,-0.01670389,1.06364475,0.3957348
2,66.66666666666667,520.06696,61.421738,0.95275366,522.29486,58.836105,0.94236517,517.6368,59.539703,0.87550086,526.89935,60.47728,0.8404095,515.1238,62.267654,0.5400453,533.8877,74.866394,0.9939866,513.8025,76.949165,0.9911696,542.32495,91.60556,0.97117865,510.3789,91.97498,0.91871154,545.4247,105.020485,0.94660187,513.36786,95.224754,0.8786151,535.42163,108.78314,0.9918384,522.50916,109.90484,0.9899368,536.7931,134.39456,0.9719731,523.5753,135.39005,0.96025234,538.2619,157.5315,0.92411053,525.7052,158.37723,0.9037966,1.11318312,0.00417597,1.02630665,0.43110775
3,100.0,518.15576,61.59665,0.95202065,520.5071,59.087845,0.9463705,516.08826,59.660583,0.8593486,525.73645,60.707886,0.8621753,514.4108,62.189125,0.48486966,533.20264,75.10689,0.9945596,513.3617,76.50138,0.99073875,541.89844,92.10133,0.9765869,509.78424,90.74134,0.91483444,545.2476,104.781456,0.9558151,513.1506,92.316734,0.87885404,534.3368,109.006096,0.9926311,521.8273,109.78453,0.990194,535.8301,134.68373,0.9744315,524.56024,135.34424,0.960716,537.33307,158.09744,0.9279098,527.83954,158.36957,0.9032548,1.17269558,0.11201432,1.03367601,0.54238513
4,133.33333333333334,517.45544,61.51117,0.95120806,519.72253,58.989624,0.94251853,515.2868,59.579697,0.8628685,524.6807,60.54309,0.8478872,513.37616,62.058647,0.50559974,531.81635,74.82051,0.99435186,512.4973,76.19571,0.9911618,541.06244,91.82894,0.9756738,509.15604,90.108116,0.92324007,545.19055,104.98076,0.95487016,512.1147,91.247185,0.88878256,533.14606,108.749504,0.9925712,521.06824,109.60036,0.99059075,534.79706,134.67235,0.9734004,524.74963,135.43925,0.961368,536.52985,157.95883,0.92351913,528.3105,158.42369,0.9014177,1.07750386,0.03979456,0.95752592,0.49251911
5,166.66666666666666,516.4584,61.76204,0.9484407,518.60236,59.179344,0.9396427,514.1848,59.749832,0.86316043,523.32416,60.468124,0.83124024,511.8826,61.867912,0.506823,530.69995,74.581314,0.9930067,511.04337,75.973305,0.98825675,541.5781,91.05467,0.96458423,508.95724,89.984436,0.8847526,545.7623,104.04932,0.93178344,511.56018,90.80896,0.83321816,532.406,110.003975,0.98972344,519.9902,110.89877,0.98655534,535.0731,136.17448,0.95970285,523.21045,137.02307,0.9410667,538.1043,159.50381,0.89904463,527.314,160.11584,0.8698755,0.88734416,0.00712372,0.79539993,0.39327835
6,200.0,515.70215,62.038605,0.94165653,517.7836,59.418106,0.92932665,513.4167,60.111282,0.8462779,522.418,60.48967,0.8202697,511.19022,62.29155,0.4971881,529.9627,74.17668,0.993016,510.24512,76.30534,0.9888353,540.7268,90.24183,0.9697409,507.68774,90.30437,0.9070606,544.6508,103.22959,0.9449718,511.19904,91.5195,0.8683312,531.96265,108.785965,0.9914927,519.7136,110.08774,0.98911613,534.3921,134.56747,0.9719706,524.89185,135.80489,0.95967275,535.648,158.02927,0.92332643,528.7392,159.10432,0.90180695,0.88734416,0.00712372,0.79539993,0.39327835
7,233.33333333333334,514.5443,62.251945,0.9341032,516.709,59.674416,0.9207017,512.39294,60.228798,0.81422275,521.6257,60.485878,0.81989616,510.5201,62.0355,0.42425916,529.3119,73.68832,0.99271214,509.42218,75.61416,0.9867748,540.3894,88.940865,0.97420985,506.42053,88.813126,0.90917444,544.7742,103.38808,0.9537705,508.57074,93.36938,0.87903446,529.9774,108.165665,0.993038,517.73773,109.34119,0.9906565,532.25653,133.7481,0.9822552,522.7014,134.87444,0.9728932,533.4794,156.6962,0.9494199,526.01447,157.56769,0.93085235,0.76846846,0.11201432,0.70303725,0.28937033
8,266.6666666666667,514.36725,62.74237,0.92972106,516.41705,60.185028,0.90799236,512.0604,60.73706,0.8197012,520.91876,61.02334,0.78974855,509.9206,62.510254,0.47033283,528.74445,74.18723,0.99188304,508.51855,75.954346,0.98771787,540.1388,89.87471,0.96394014,505.457,89.45508,0.90874106,543.6281,104.31007,0.93508714,507.46146,94.1251,0.8690794,529.3406,108.206665,0.9919457,516.89154,109.31923,0.9903099,531.85864,133.71881,0.97675973,522.2332,134.84213,0.9685773,531.57965,157.48625,0.9382012,524.65894,158.41891,0.92271674,0.76851847,0.16310857,0.71212613,0.23852172
9,300.0,513.02716,63.09636,0.92773986,515.11426,60.543747,0.91250753,510.81647,61.08528,0.80010974,519.8324,61.30345,0.8121126,508.9688,62.783127,0.4199541,527.74677,74.30028,0.99233574,507.92505,76.02,0.98615485,539.1784,90.06434,0.96879816,505.07727,89.42029,0.8943377,542.8788,104.86079,0.9424291,506.93497,94.01645,0.8561471,528.3473,108.07388,0.99239904,516.17633,109.14702,0.98991853,530.8723,133.76962,0.9788725,521.638,134.87013,0.9682281,530.8733,157.75787,0.94348913,524.25726,158.60571,0.9236162,1.04460101,0.07271105,0.9752124,0.36723993
10,333.3333333333333,511.32413,63.43833,0.9354892,513.5411,60.84648,0.9268171,509.23315,61.42572,0.80463827,518.87604,61.542793,0.842476,507.9973,63.102554,0.3993254,527.1467,74.61431,0.9933937,507.56897,76.00127,0.9872012,538.48267,90.96461,0.97375804,504.2475,88.42864,0.8979871,542.7181,106.35809,0.95066875,507.14893,90.97616,0.8638706,528.204,107.91061,0.99303436,516.26447,108.84051,0.9904694,530.241,133.33836,0.98029387,521.73096,134.31075,0.96909136,529.59503,157.04047,0.94569004,524.25305,157.63965,0.9243317,1.06873516,0.05969184,0.98577515,0.40850837
11,366.66666666666663,510.5331,63.507904,0.9355646,512.8465,60.946396,0.9338041,508.51846,61.434593,0.78547525,518.43787,61.716393,0.8679679,507.48984,63.087776,0.3472021,526.3752,74.79562,0.9937926,507.61697,76.0096,0.98493963,537.1089,90.998276,0.9770472,504.20627,88.794876,0.8714535,540.77405,105.51472,0.9557347,506.39798,92.26532,0.83953744,527.0358,107.88823,0.9930441,515.7085,108.63945,0.98917365,528.2418,133.4633,0.9813239,521.03894,134.25461,0.96622455,527.3678,157.25354,0.9486974,523.53754,157.55302,0.9207378,1.06990056,-0.02186244,0.97938837,0.43012516
12,400.0,510.00577,63.664284,0.9377762,512.27325,61.123154,0.93596375,508.02234,61.611313,0.7881496,517.9255,61.87166,0.87245095,507.1667,63.235382,0.3483091,525.76526,74.89588,0.9940135,507.6722,75.96008,0.9858174,535.9489,91.28325,0.9777789,503.84177,88.73847,0.87825364,539.2076,105.36226,0.9573279,506.07538,92.23257,0.8476613,526.593,107.6365,0.9931284,515.7881,108.28104,0.98945063,526.9478,133.18259,0.98129267,520.88043,133.86449,0.966403,525.1813,156.8337,0.9475995,522.98126,156.99152,0.9194977,1.04379892,-0.05207683,0.94106768,0.44854857
13,433.33333333333337,509.49747,63.051933,0.93432105,511.811,60.492157,0.9310087,507.41095,60.956345,0.7839574,517.425,61.417297,0.863525,506.3571,62.741226,0.35157654,525.22095,74.60102,0.9932018,506.81467,75.871216,0.9841591,535.2744,90.767715,0.9739788,502.92862,89.559166,0.8660966,538.07355,104.25976,0.9505609,505.2956,94.827774,0.83221364,526.04315,107.45828,0.9917207,515.0717,108.13993,0.98738235,526.09143,132.71523,0.97728854,520.13995,133.37683,0.959843,523.8718,155.93071,0.9375928,522.267,156.048,0.90551066,1.03317324,0.01007146,0.95040221,0.40506933
14,466.6666666666667,509.02393,62.617683,0.9355238,511.3394,60.07202,0.93166703,506.95078,60.551216,0.7877929,516.9611,61.12961,0.86412686,505.938,62.496567,0.35786638,524.7616,74.38131,0.9934303,506.42642,75.83743,0.98510844,534.73846,90.382195,0.974459,502.52444,89.77143,0.8724873,537.67694,103.873604,0.9516268,504.65756,95.6967,0.83894897,525.8753,106.91695,0.99230325,515.01544,107.66854,0.9884453,525.17975,131.90974,0.9795807,519.6024,132.62534,0.96414554,523.0431,155.40482,0.9444297,522.12286,155.6073,0.9159917,0.94170431,-0.05551587,0.83347498,0.43479243
15,500.0,508.79645,62.180893,0.93863404,510.9828,59.606873,0.9290394,506.72122,60.15822,0.8023418,516.5228,60.701836,0.8502231,505.66592,62.27031,0.38879722,524.366,74.16701,0.99373335,506.1911,75.81348,0.98801756,534.0255,90.50003,0.97748667,502.59277,89.71302,0.9106931,536.1495,104.54872,0.95999545,505.5697,95.54628,0.8861533,525.5457,106.569214,0.9940289,514.8156,107.44396,0.99182093,524.3203,131.85983,0.9863201,519.5514,132.71626,0.9779424,521.0289,155.7976,0.9613457,521.417,156.28769,0.94475085,0.86770808,-0.02603842,0.77697653,0.38541769
16,533.3333333333334,507.39685,62.268738,0.9442264,509.72406,59.72415,0.93946975,505.47424,60.307236,0.8291841,515.39014,61.129547,0.8676777,504.60797,62.846977,0.44471842,524.14777,74.873566,0.9946498,504.47067,77.02844,0.9898314,534.66394,90.83723,0.97907364,502.11536,91.20529,0.9147588,536.9602,103.52509,0.9612814,506.4911,94.13426,0.8853765,525.3462,106.70131,0.9946666,513.49475,107.78674,0.99255943,524.754,132.21878,0.98729265,519.1447,133.23392,0.9795894,520.69666,156.87367,0.96421957,520.6731,157.50769,0.94975734,0.86770808,-0.02603842,0.77697653,0.38541769
17,566.6666666666666,506.7765,62.411392,0.94792473,509.08078,59.841537,0.9402967,504.78244,60.44609,0.8466475,514.69507,61.2545,0.85253346,503.73413,63.040268,0.46684033,523.0813,75.010605,0.9939203,503.48132,77.239,0.98967427,533.8267,91.08771,0.9778747,500.88504,91.397964,0.92555076,536.4215,104.950714,0.96119905,506.09808,95.13423,0.90055937,524.3794,106.807976,0.9941795,512.5625,107.99835,0.9923557,523.3241,132.50894,0.9863832,518.01117,133.64294,0.9794429,519.84454,157.08455,0.9630555,520.0973,157.94637,0.9503926,0.87821821,-0.12405095,0.76641377,0.41047353
18,600.0,506.10843,62.76703,0.9485174,508.41193,60.170845,0.93970233,504.05417,60.792664,0.85127777,514.02985,61.42405,0.8476518,502.9612,63.27469,0.47776845,522.52155,75.13393,0.9935986,502.84103,77.37288,0.9897399,533.3463,91.3506,0.97588193,500.45215,91.492256,0.9269902,535.46387,105.77103,0.9580806,504.7969,95.69076,0.90109086,523.4614,107.18661,0.99370134,511.63947,108.34854,0.9920101,522.24817,133.12189,0.9849257,517.0682,134.22293,0.97811913,518.9311,157.50949,0.95885366,519.3517,158.35565,0.9463041,0.85995434,-0.13510499,0.767642,0.36330961
19,633.3333333333333,505.50174,63.02231,0.9461873,507.7925,60.390793,0.93903214,503.5079,60.999252,0.84053844,513.49036,61.39511,0.8515221,502.50623,63.21353,0.4518943,522.5448,75.19641,0.9931677,502.3111,77.24159,0.9883801,533.48193,92.105484,0.97482973,500.23245,91.50193,0.91707873,534.3002,107.89836,0.9558948,504.0919,96.5497,0.8898145,523.4057,107.90567,0.9928618,511.22147,108.95218,0.990664,521.9338,133.7089,0.98269904,516.16486,134.68324,0.9740899,519.5573,157.85843,0.9529442,519.57855,158.51672,0.9371696,0.85646719,-0.01523002,0.76469425,0.38541769
20,666.6666666666666,505.11133,63.52349,0.9436272,507.39136,60.893303,0.93954927,503.12546,61.481514,0.8256072,512.9796,61.651726,0.86197597,501.977,63.435516,0.4161386,522.08325,75.19119,0.9933188,501.61652,77.244644,0.98669446,532.9252,92.06242,0.9769792,499.8534,91.546844,0.90268457,533.0063,108.263306,0.9585093,503.7514,97.1583,0.875165,522.7654,108.51563,0.9927377,510.40805,109.56425,0.98960364,521.4457,134.31276,0.98224163,515.21313,135.27275,0.97081053,519.9807,158.20203,0.95067424,519.57245,158.81573,0.9295493,1.65566929,0.37829398,1.58736083,0.2800358
21,700.0,504.87616,63.727005,0.9408005,507.10443,61.098633,0.93607247,502.86395,61.693,0.8145984,512.4176,61.548492,0.865195,501.5735,63.357002,0.4154387,521.3359,74.78657,0.9939845,501.4119,77.15393,0.9877295,532.1784,91.25149,0.9776587,500.71362,91.94148,0.8998495,530.9511,107.40861,0.9581293,501.92065,98.94519,0.8676321,521.9177,109.48373,0.9930737,509.8566,110.62033,0.9899672,519.9121,134.95064,0.9813844,513.547,135.99872,0.96888494,520.0103,158.30534,0.9446743,518.68396,159.0716,0.9200766,1.11863524,0.0,1.07936606,0.29379195
22,733.3333333333333,504.12143,64.03348,0.94047844,506.1206,61.25284,0.94301903,502.14087,62.077194,0.8023579,511.3389,61.163155,0.8734286,500.94116,63.464417,0.363696,520.0808,74.12219,0.99211687,501.32407,77.388565,0.98038757,530.6451,89.958565,0.9706882,500.4904,93.63568,0.8136587,529.23663,106.06229,0.9456492,500.15176,102.01769,0.7759572,521.29565,109.921486,0.9866012,509.95828,111.34935,0.9778275,519.02515,135.91988,0.9598889,512.8894,137.26237,0.92360866,520.01,159.34807,0.898319,519.088,160.5444,0.84356797,0.93872581,-0.0675525,0.85754823,0.37583752
23,766.6666666666667,503.16986,64.34947,0.9369762,505.52307,61.656593,0.93854266,501.2228,62.185043,0.7854361,511.4467,61.557877,0.8806822,500.35587,63.289154,0.34497675,520.30756,74.3797,0.99317414,501.29514,76.53968,0.98309267,529.6683,91.00769,0.9762798,500.8762,91.91708,0.8606353,529.0072,107.78762,0.9547619,499.03064,101.496506,0.8272427,519.7023,110.17499,0.99126524,508.38058,110.99147,0.98594046,517.9214,136.2314,0.9769817,512.1244,136.8974,0.95739055,518.4249,159.44812,0.9322511,516.73834,159.5602,0.89518243,0.99690713,-0.09604737,0.96219319,0.24245205
24,800.0,503.12845,64.58533,0.9406104,505.23956,61.719597,0.9454568,501.0939,62.45604,0.79913217,510.75125,61.325233,0.88039744,499.9379,63.458633,0.3470634,519.114,74.30713,0.9921096,500.8778,77.24607,0.9791784,528.6613,91.10915,0.97080696,500.51425,94.58883,0.7997034,528.1273,107.32776,0.944507,497.81882,104.17014,0.75967944,518.95685,110.71283,0.98606604,508.05225,111.86807,0.9762136,517.8638,137.25014,0.95799935,511.46518,138.30986,0.9180981,519.00854,160.18436,0.8931432,516.60156,160.96725,0.83313936,1.03571252,0.11741852,1.02900875,-0.00736936
25,833.3333333333334,502.2779,64.46647,0.9330727,504.47638,61.56447,0.94216114,500.3683,62.215546,0.76839864,510.36963,61.320145,0.8834789,499.6427,63.284836,0.30335045,518.3822,74.754524,0.99071324,501.51813,77.213394,0.9731121,527.1386,92.32306,0.9664955,501.6823,94.92284,0.7486118,525.82495,108.52411,0.9365323,497.06766,104.98891,0.7104785,516.9604,111.49198,0.9835054,506.8343,112.24057,0.97051716,515.4073,138.70726,0.9551021,509.1303,139.40346,0.9084564,516.85986,162.30817,0.89358556,513.19086,162.6301,0.8280337,1.04365037,0.14714162,1.03269343,0.03316213
26,866.6666666666667,501.1178,64.08207,0.936481,503.31702,61.271156,0.94811183,499.50253,61.82389,0.75395626,509.45407,60.96557,0.9042632,499.2626,62.67009,0.2729753,517.5253,74.03056,0.9934755,501.16992,76.07293,0.97808313,525.91016,91.722824,0.97901386,500.98566,93.74655,0.78294,524.9564,108.71563,0.9577075,495.9063,105.15963,0.7503699,515.9894,110.95136,0.98998123,505.97147,111.40945,0.9804756,513.79736,138.12573,0.9721539,505.96606,138.53781,0.93595636,516.67896,162.25566,0.9276319,509.79657,162.18997,0.8711211,1.07506193,0.15131759,1.05750362,0.12061191
27,900.0,500.3383,63.701492,0.9378968,502.53568,60.91504,0.9501816,498.71738,61.428993,0.754111,508.53595,60.673615,0.9103125,498.425,62.32218,0.270591,516.28564,73.854225,0.99385154,500.53876,75.756485,0.97867715,524.37305,91.73801,0.9806096,500.1528,93.141495,0.7859788,522.7464,108.88719,0.96034414,494.08667,104.538315,0.75439054,514.7463,110.87482,0.9900787,505.2196,111.32028,0.9803043,513.1947,138.14868,0.97119486,506.663,138.56982,0.93250906,516.0797,162.19955,0.92268044,510.83575,162.12433,0.860755,1.17560184,0.08794107,1.16706148,0.11078609
28,933.3333333333334,498.85696,63.4254,0.9201619,500.89548,60.85932,0.91881365,497.16403,61.26496,0.7377081,506.15976,60.807465,0.86162287,496.8218,62.18402,0.3160036,514.2597,73.938705,0.99221987,498.1608,75.58623,0.9812213,523.08514,91.61235,0.9695115,498.1751,92.59425,0.8357272,521.1701,108.48848,0.93929356,492.71707,105.53467,0.7883922,512.567,110.29933,0.99108475,502.83313,110.742035,0.9860065,512.25604,137.45659,0.976684,504.06622,137.82114,0.957666,515.37286,161.9203,0.9392844,507.80942,161.74718,0.9062349,0.99480486,-0.01547566,0.98651209,0.12724434
29,966.6666666666666,496.61163,63.260567,0.9236385,498.8798,60.65468,0.9419262,495.3817,60.96228,0.6941364,504.95258,60.725647,0.9122819,495.35364,61.995575,0.2135823,513.81866,74.13235,0.99410665,496.39542,75.797424,0.97307533,523.13025,91.6579,0.9866172,496.93216,92.75732,0.7835594,521.4009,108.36147,0.9728759,492.9008,103.985886,0.7725092,511.20892,110.622284,0.9942115,500.51428,110.97171,0.98644084,511.00238,137.21643,0.98829645,502.24573,137.47992,0.96724296,515.55994,161.1567,0.9678303,507.23364,160.75049,0.93210286,0.99480486,-0.01547566,0.98651209,0.12724434
30,1000.0,494.9425,63.091843,0.91396475,497.18924,60.496887,0.93918765,494.02252,60.713745,0.64036894,503.73337,60.33844,0.91829115,494.67242,61.417984,0.17026828,513.189,73.4245,0.99392176,496.17072,74.79029,0.96694636,522.75214,90.99022,0.9876523,497.13156,91.95598,0.74480575,520.4775,107.13786,0.97450405,493.02234,103.665,0.74302787,510.34802,110.19889,0.9942772,499.8638,110.281364,0.98524624,510.4518,137.06471,0.9890276,501.0646,137.03723,0.966132,515.8187,161.43954,0.9699774,506.25577,160.57494,0.93189746,0.93468219,0.04347924,0.92362685,0.13657886
31,1033.3333333333335,493.63528,62.907394,0.9098976,495.93658,60.21962,0.937466,492.68222,60.464554,0.62289816,502.82504,59.964767,0.9182635,493.48047,61.164932,0.1573569,512.4058,73.19599,0.99313486,495.80716,74.61549,0.9607359,521.6666,91.098526,0.98550147,497.41776,92.131874,0.6993854,518.5431,107.884285,0.9701799,493.21356,104.682175,0.702173,509.4401,110.66913,0.9935363,498.97247,110.66562,0.9829102,509.9254,137.73366,0.9886507,498.97943,137.59131,0.96429914,515.5256,162.50981,0.9708798,502.89038,161.46451,0.9329,0.91601685,-0.09776688,0.89464069,0.17072358
32,1066.6666666666667,492.13336,62.90854,0.9041462,494.3327,60.195107,0.9350168,491.20346,60.447266,0.59633934,501.4051,59.589264,0.9173309,492.13376,60.863388,0.13791192,511.94522,72.41848,0.9926764,494.65714,73.89319,0.9563916,521.12885,90.53082,0.98530453,496.33752,91.61903,0.6807954,515.7223,107.109634,0.96995753,492.03036,104.58602,0.6898093,509.2464,110.10625,0.99364895,498.07962,110.06472,0.9828074,510.9663,137.8907,0.9896543,497.58267,137.6889,0.9666178,515.7168,163.84991,0.97375655,499.5893,162.67406,0.93824905,0.87655989,-0.04200537,0.86123291,0.15770437
33,1100.0,491.22046,62.406975,0.9121823,493.55276,59.69789,0.94107276,490.12192,59.941124,0.61940074,500.56155,59.525955,0.92328626,490.62347,60.77469,0.14377707,510.47226,72.84105,0.99342716,493.09805,74.22892,0.9599909,518.7691,91.15608,0.98635197,494.36935,91.6715,0.68744475,512.58417,107.83394,0.97177935,490.68478,104.241394,0.6965969,508.06165,110.04706,0.9942661,496.5602,110.04103,0.9842754,510.4383,137.32106,0.99095774,495.53854,137.15999,0.9701616,515.3942,163.09866,0.9777828,496.8254,161.96933,0.9464987,0.89914704,-0.0378294,0.87941067,0.18349714
34,1133.3333333333333,490.6732,63.51039,0.92132276,492.70776,60.455635,0.9302023,488.73978,61.219078,0.71381974,498.82782,59.45704,0.87533605,488.169,61.896706,0.2566907,507.54675,71.78203,0.99189115,491.03375,75.204155,0.9730075,517.2831,89.67668,0.9756445,493.7834,94.487335,0.7595074,510.77243,106.93091,0.9531273,491.7525,106.50218,0.7301028,506.7764,110.53237,0.9893504,495.7652,111.625626,0.979091,509.27264,137.86604,0.97125006,495.6791,138.87001,0.93531996,511.63907,162.75162,0.9271558,495.9167,163.57892,0.873763,0.93335166,-0.03021439,0.91502926,0.18153198
35,1166.6666666666667,488.20474,63.4955,0.9157883,490.191,60.426056,0.932119,486.39713,61.195267,0.6755203,496.38815,59.368332,0.8914228,486.19968,61.8518,0.21397257,505.16437,71.63875,0.9923764,489.7409,75.25408,0.96845055,515.351,89.07892,0.97872865,492.71423,94.65834,0.7130736,509.55832,106.65582,0.95748657,489.2096,107.7238,0.6923932,504.87552,110.528755,0.9905566,494.5232,111.68891,0.979076,507.7516,137.46173,0.9771096,494.12216,138.54515,0.94103265,511.38712,162.08206,0.94429874,494.24493,162.90219,0.8924783,1.01064976,-0.04642699,1.00026823,0.13682451
36,1200.0,486.6706,64.23057,0.9190927,488.73642,61.43032,0.9408509,485.2569,61.966377,0.65988714,495.27213,60.38243,0.91874945,485.57257,62.326843,0.18303184,505.04272,72.43422,0.9941877,488.44186,75.2241,0.9710132,513.9797,89.57539,0.98319054,490.53418,93.43844,0.71701777,508.35693,107.07352,0.96229917,486.68414,107.776955,0.69040763,504.69876,111.29852,0.99311054,493.43555,112.03715,0.98354626,508.56235,138.18256,0.9836615,491.4236,138.76718,0.95405275,514.2107,163.0747,0.95787275,491.83496,162.93236,0.9111152,0.91870807,-0.01866905,0.90716861,0.14394823
37,1233.3333333333335,485.21957,63.926025,0.9205387,487.47223,61.151978,0.9368032,483.8246,61.662216,0.691312,494.1864,60.658447,0.9053488,484.0263,62.49527,0.21551457,503.89026,73.47801,0.99370295,486.0821,76.2011,0.97524965,512.61676,90.87662,0.9795704,487.5228,94.71183,0.7613998,507.92212,107.62235,0.9552617,483.947,108.961655,0.7217568,503.58902,112.106674,0.99298406,491.35413,112.854004,0.98539877,508.04468,138.4996,0.9832434,488.15033,139.03555,0.9590039,515.3097,163.14526,0.95885664,489.21393,162.93484,0.9209325,0.98844834,-0.05625281,0.97570369,0.14787855
38,1266.6666666666665,483.43518,64.054276,0.90249676,485.6025,61.342392,0.92022216,482.12943,61.782448,0.6471457,491.97314,60.822136,0.8884107,482.25494,62.412704,0.19859675,501.9069,73.45182,0.9927979,483.42578,76.09964,0.97104496,511.01306,90.91669,0.97726727,485.2337,95.2563,0.7383754,506.11624,107.72292,0.9505913,483.89697,110.49216,0.69843465,502.1337,111.90797,0.9934115,489.3909,112.72216,0.98610663,507.41086,138.3835,0.98630583,486.11655,138.94513,0.9661324,515.4423,163.84384,0.96832496,488.0973,163.63019,0.93812996,1.3988669,0.23188929,1.36971897,0.16409115
39,1300.0,481.19812,63.700874,0.8972161,483.36203,60.82589,0.92345905,479.4692,61.345078,0.61843735,489.1248,60.72824,0.8928904,478.46637,62.64962,0.16532628,498.62598,73.79355,0.9931143,479.92117,77.292465,0.96262515,509.78564,90.86775,0.9866496,483.33417,96.41992,0.7261711,505.52698,107.83404,0.9733961,482.24146,108.99926,0.72941726,499.83398,111.364296,0.99566394,486.90506,112.81493,0.9887088,506.48193,138.53812,0.9934242,486.6881,139.77493,0.9795085,514.518,163.57176,0.9845329,488.13898,164.30807,0.96435523,1.14548662,0.23827608,1.11768675,0.0783609
40,1333.3333333333333,478.34384,64.38612,0.9195863,480.62537,61.524864,0.94461274,476.84656,62.02382,0.65401834,487.19458,61.194504,0.9203418,476.65427,63.112396,0.1622301,497.39658,74.00761,0.9946333,478.928,77.28746,0.9681302,508.8792,90.67136,0.98927796,482.26575,95.49761,0.7360212,505.27872,107.8353,0.9780823,481.41815,107.86818,0.742877,498.83542,111.05011,0.99616563,486.20767,112.31038,0.98958707,505.3683,138.22624,0.9940969,486.53934,139.22014,0.98064125,513.29456,163.71628,0.98580104,488.59558,164.00745,0.9659851,1.01764303,0.29551146,0.96342141,0.14173742
41,1366.6666666666667,476.76846,64.59,0.9087419,478.87708,61.71669,0.9176367,475.117,62.272507,0.6731289,485.22205,60.799515,0.87329006,475.07565,62.65341,0.22092505,495.31406,73.21402,0.99243295,477.46805,76.00312,0.97458375,506.18127,90.86984,0.9742099,480.0775,94.65665,0.77421266,502.3259,107.800156,0.94723254,478.83792,108.60832,0.73686683,497.4308,111.308266,0.99365646,485.42667,112.38091,0.9880586,503.20053,137.69035,0.9876951,485.2295,138.48854,0.9728574,511.43463,163.47418,0.9720429,489.01608,163.50739,0.94935787,0.92397608,0.27807064,0.83765095,0.27340337
42,1400.0,475.48593,65.83238,0.91804856,477.4633,62.951645,0.9171249,473.85785,63.518753,0.71452004,483.7411,61.293396,0.85559505,473.91425,63.105904,0.26498732,494.12192,72.928734,0.9927273,476.0575,75.26399,0.9819369,505.44504,90.900856,0.97426164,478.05447,92.96461,0.8497472,501.9804,107.92693,0.9500146,475.88458,105.77953,0.813275,495.96246,111.06556,0.9942444,484.22287,111.98635,0.99088496,500.8727,137.54076,0.98743975,485.38666,138.20465,0.9766822,508.31866,162.89288,0.9688334,490.3108,162.82118,0.9502381,1.12904462,-0.04667263,1.06560992,0.37018768
43,1433.3333333333333,473.56854,65.853,0.9115515,475.39578,63.010376,0.90839106,471.95343,63.628624,0.70358706,481.5484,61.397766,0.83916795,472.21048,63.279747,0.2640536,492.17514,72.91763,0.9915421,474.84198,75.33312,0.980342,504.38635,90.72584,0.9706169,477.10876,92.821396,0.84891963,502.04816,107.91116,0.9444912,474.93106,105.13826,0.8126206,495.1819,111.23964,0.9932116,484.1534,112.230736,0.98969835,498.35788,137.85071,0.9845792,485.1909,138.58698,0.972692,505.36743,163.42612,0.9610919,490.6714,163.4768,0.9402288,1.10483198,-0.01228227,1.04816909,0.34906217
44,1466.6666666666665,471.61914,64.47135,0.9262547,473.51834,61.670258,0.92268455,469.95728,62.291824,0.7367784,479.76797,60.682083,0.8528821,470.22067,62.596596,0.27665576,490.51288,72.65598,0.99368626,472.85602,75.285645,0.9866834,502.62656,90.03263,0.9817893,474.14377,92.30407,0.90925574,502.1945,107.372826,0.967284,471.73053,104.78253,0.88851285,495.1364,109.926994,0.99600804,484.16022,111.11147,0.994241,496.92184,137.88054,0.9918452,485.65356,138.74078,0.985846,502.81165,163.77843,0.97665465,491.01736,163.97635,0.9644703,0.9540435,0.04470747,0.90594038,0.29575711
45,1500.0,469.76468,63.696754,0.9352135,472.02838,60.79898,0.94998944,468.25302,61.428078,0.70738816,479.13974,60.22783,0.91842,468.90057,62.340027,0.20897943,490.5138,72.756195,0.99542964,472.1502,75.843285,0.98221624,502.7221,89.685165,0.98911524,474.42764,92.55475,0.84546304,501.3026,107.61493,0.97836566,470.26096,102.90651,0.83468205,494.37003,109.574745,0.9961719,483.00455,110.82785,0.992062,494.22235,137.71272,0.992163,485.91428,138.7821,0.98014724,499.23154,164.65149,0.97713006,491.72647,164.95218,0.95485765,0.90987197,0.21862444,0.8536179,0.22673074
46,1533.3333333333335,469.035,63.843987,0.9391424,471.20056,60.95195,0.94871175,467.37415,61.664345,0.73625493,477.9576,60.19848,0.90954065,467.80106,62.44925,0.24687514,489.4581,72.37311,0.99561137,470.46524,75.656944,0.9863512,501.43,89.22786,0.9889521,472.04398,92.31781,0.8857483,500.133,107.19194,0.9786375,467.81485,102.55332,0.8708914,493.6866,108.86891,0.9965191,482.21448,110.245636,0.9936439,490.6236,137.20744,0.9925801,484.43848,138.40706,0.9832787,494.38727,164.59164,0.9771978,491.15186,165.15034,0.9586354,0.87538567,0.05600716,0.83666837,0.25129528
47,1566.6666666666667,468.3982,64.30709,0.93829346,470.4995,61.3758,0.9397241,466.53024,62.119766,0.76316196,476.9851,60.136658,0.8814764,466.57706,62.399933,0.3028184,488.17487,71.70894,0.994991,468.6836,74.90042,0.98892456,499.666,88.74045,0.9858438,469.74658,91.61508,0.91609836,498.99323,107.15329,0.97408026,466.32358,102.441696,0.8971459,492.27493,108.37678,0.99652976,480.65384,109.76045,0.9947748,488.33026,137.01938,0.9925764,482.5106,138.18399,0.98632425,491.6685,164.75009,0.9770312,489.50122,165.3543,0.96398234,0.86610963,-0.09457349,0.79490864,0.33063876
48,1600.0,468.23776,63.395172,0.94612783,470.51077,60.463066,0.9437406,466.1877,61.196693,0.805013,476.88925,59.698914,0.8770566,465.7714,61.941505,0.36184165,487.49078,71.99625,0.99509394,467.43103,75.28454,0.9908772,498.49127,89.26246,0.98418736,468.19388,92.576485,0.9297157,498.4738,107.60827,0.9712829,463.79752,104.251625,0.90806085,490.70386,108.62216,0.9962555,478.86597,110.02146,0.99488634,485.81894,137.10693,0.9913598,480.6729,138.27127,0.98561686,488.869,164.46623,0.9731055,488.23166,165.16328,0.9608137,0.8520405,0.11250561,0.8135777,0.22673074
49,1633.3333333333333,467.8454,62.522087,0.94750255,470.19983,59.58004,0.9454166,465.67477,60.332993,0.811973,476.50464,59.295,0.87812924,465.01376,61.54207,0.3687739,486.8435,72.20578,0.9952022,466.57455,75.39095,0.99120164,497.70807,89.88663,0.984377,466.70163,92.462975,0.9316984,498.89377,108.26653,0.97150683,461.9081,102.82052,0.9101669,490.39047,108.328,0.99642605,478.423,109.74209,0.9951658,485.081,136.94135,0.99201584,479.97012,138.15001,0.98673755,488.29663,164.91626,0.97564995,487.5998,165.68546,0.9644641,0.84526981,0.09825818,0.80645398,0.23336317
50,1666.6666666666667,466.9124,61.641342,0.9479868,469.233,58.65159,0.94228053,464.57465,59.461678,0.8225505,475.37378,58.50142,0.86469185,463.64853,60.850655,0.40003705,485.60886,71.698685,0.9952016,465.17258,74.98816,0.99224466,496.68362,89.625656,0.9838435,465.56174,91.98345,0.94254434,498.74658,108.58625,0.9709986,461.1218,101.48806,0.9219042,489.74655,108.09191,0.9966536,477.69266,109.65353,0.99580055,484.31723,136.66142,0.9923624,479.39902,138.04874,0.98827374,487.30243,164.35403,0.97645754,486.77316,165.39346,0.96755767,0.84526981,0.09825818,0.80645398,0.23336317
51,1700.0,466.40936,61.40834,0.94973433,468.68643,58.30491,0.9431463,463.7908,59.20771,0.8293598,474.72614,58.08779,0.86243635,462.54486,60.680313,0.41118604,484.75052,71.46778,0.9952049,464.62305,75.02791,0.99240375,495.79077,89.41615,0.9835068,465.10663,92.08644,0.94357824,498.06857,108.51843,0.97056895,460.13937,101.227234,0.9232494,488.8896,108.68064,0.9965783,477.09668,110.355804,0.9957646,482.90652,137.40764,0.9919859,478.71478,138.9542,0.9878857,484.272,164.70282,0.974802,484.4311,166.00099,0.96575135,0.94364158,-0.03439036,0.8806389,0.33727119
52,1733.3333333333335,465.8698,62.15793,0.9649347,467.86026,58.97635,0.96086204,463.07248,60.09305,0.8750561,473.5619,58.26419,0.8799293,461.78046,61.311447,0.46200895,484.05383,71.228386,0.9954868,464.66324,75.11808,0.9930228,496.43222,89.16158,0.9822404,464.59808,92.97442,0.93633944,496.1845,108.198944,0.96807766,459.31296,103.18088,0.91198456,488.56155,109.23527,0.99423826,476.88504,110.85821,0.99278224,482.53464,139.11203,0.9789898,477.79788,140.56107,0.9681514,482.33655,166.29831,0.93334085,482.48093,167.6305,0.9119644,0.96307208,-0.07000895,0.89292117,0.35397508
53,1766.6666666666665,464.94757,61.66662,0.95615405,467.07748,58.586334,0.94605625,462.23395,59.543373,0.8602352,472.8502,58.32907,0.8526606,460.98663,61.003273,0.4723595,483.18076,71.94761,0.9945787,463.30524,75.42021,0.9926944,495.61923,89.89067,0.9738071,462.95978,92.8843,0.9363457,496.69464,108.50677,0.9518939,458.35483,103.68301,0.9046897,486.73953,110.652534,0.99454826,475.0104,112.09869,0.9939015,480.3792,140.30081,0.9825591,474.91736,141.58887,0.9767288,480.49292,167.39355,0.948167,479.67975,168.48645,0.936136,1.06930095,-0.10513625,0.98135353,0.41145611
54,1800.0,464.26242,61.255547,0.9590612,466.52914,58.22415,0.95060456,461.66425,59.119637,0.86756,472.50967,58.27104,0.8616744,460.48785,60.782936,0.47282934,482.7987,72.32805,0.99493587,462.2293,75.663704,0.9929342,495.1499,90.571815,0.97539073,461.39502,93.575935,0.9366988,497.15454,109.44037,0.95371056,457.244,105.0988,0.90413666,485.7963,111.44211,0.99461395,473.5727,112.79813,0.9938583,479.61053,141.5126,0.9817047,472.93567,142.69514,0.9750634,480.3438,169.01158,0.9447019,478.09122,169.96959,0.9308062,0.94548968,-0.14272,0.83666837,0.41661467
55,1833.3333333333333,463.77573,61.17814,0.95903665,465.99316,58.15,0.95004815,461.20795,59.06781,0.86663634,471.93185,58.218132,0.8608428,460.0671,60.805984,0.4722174,482.0952,72.40934,0.99510217,461.99213,75.732666,0.9932011,494.4604,90.743034,0.9765747,461.2601,93.28373,0.9399543,496.06033,109.53462,0.9560407,456.98663,103.956894,0.90921277,484.89825,112.025856,0.9949033,472.95316,113.395836,0.99420893,479.2392,142.15115,0.9821968,472.85324,143.38739,0.9758386,479.81348,169.47577,0.9451296,477.65472,170.53406,0.93154144,0.85852789,-0.14026355,0.76788764,0.35741411
56,1866.6666666666667,462.6024,61.06566,0.96280354,465.115,57.927406,0.9678279,460.2445,58.73913,0.8362502,471.8738,58.018684,0.9225903,459.38184,60.46559,0.33062577,481.9455,72.41713,0.9966684,461.91544,75.4201,0.9908965,494.16708,90.98752,0.9909176,461.66302,92.99042,0.9164433,495.88943,111.20128,0.98263586,456.15125,103.99364,0.900993,483.21906,111.44049,0.9965161,471.1308,112.501595,0.9940029,478.03513,140.87129,0.9901696,471.91885,141.8195,0.97890544,479.67267,168.49654,0.9669389,476.7919,169.1068,0.94296277,2.07510513,0.58881212,1.98899112,0.05723539
57,1900.0,462.301,60.998558,0.9664505,464.96246,57.80822,0.96971,459.7413,58.613335,0.8591629,471.78925,57.909546,0.9197624,458.41162,60.389946,0.36685124,481.19666,72.33885,0.9966787,460.9378,75.270615,0.99185187,492.95636,90.925224,0.99053746,460.65155,92.45924,0.9274107,494.67523,110.08096,0.98223567,455.64584,102.08511,0.9115648,481.54333,111.454926,0.9961934,469.31027,112.50147,0.99383575,477.68567,140.77756,0.98819387,471.375,141.6975,0.9765023,479.00714,167.45016,0.95865434,475.96414,168.0738,0.932697,1.07852946,0.27438596,1.04276489,-0.02407325
58,1933.3333333333333,462.0922,60.947777,0.966228,464.76566,57.808243,0.96886563,459.48508,58.546135,0.86368227,471.42743,57.89467,0.9165017,457.94217,60.16539,0.38279173,480.81125,72.24768,0.99657154,459.97754,74.85108,0.9919934,492.13748,91.22884,0.9897439,459.8699,92.293526,0.9284227,493.94147,110.84604,0.9806743,454.99634,102.63872,0.9106841,480.55618,110.71018,0.9960967,468.029,111.584724,0.99385273,476.2825,140.19952,0.98825806,469.7546,140.92195,0.9773427,477.58633,167.40457,0.95946395,474.83145,167.80594,0.9353154,0.79891462,0.36674864,0.70917838,-0.02874052
59,1966.6666666666665,461.36188,60.268402,0.9642758,464.03085,57.152466,0.9660737,458.718,57.84709,0.86278504,470.52264,57.374435,0.9099139,457.02307,59.531174,0.39635572,480.15234,72.112564,0.9963225,458.5335,74.51446,0.9918594,491.11642,91.7724,0.9882498,458.5391,92.2283,0.9273122,491.9239,110.98018,0.9777818,454.40295,101.691635,0.90708166,479.32825,110.959915,0.99593,466.31802,111.76178,0.9937929,475.4656,141.13422,0.98799217,468.76266,141.80933,0.9778144,475.0832,169.1902,0.9588919,472.77264,169.53464,0.93641144,0.52909804,0.21248331,0.48392152,0.02481019
60,2000.0,460.91537,59.825417,0.95327115,463.52908,56.834625,0.9543111,458.61414,57.288147,0.81493735,470.14633,57.084053,0.89375204,457.4358,58.511414,0.31335706,480.03757,72.20747,0.99496007,458.39832,73.326584,0.98787385,489.8528,93.004555,0.9851822,456.8929,91.10362,0.90823495,491.1676,112.209305,0.97238183,453.75592,102.13875,0.8893206,478.59647,111.52538,0.9954585,465.96573,111.73268,0.9929161,474.18036,142.13507,0.9897205,467.34433,142.19653,0.98040867,474.57727,169.78949,0.96685386,472.33182,169.18777,0.94638693,0.96765329,0.09801253,0.95998238,0.07197411
61,2033.3333333333333,460.00104,59.612755,0.94829005,462.60995,56.663498,0.9509816,457.88556,57.03647,0.793334,469.40134,56.939056,0.89314395,457.0564,58.183426,0.2850657,479.74857,72.146095,0.9943304,457.9312,73.07677,0.985502,489.4159,93.030365,0.98351073,455.91687,91.29308,0.8910825,489.5346,111.40886,0.9690806,452.5355,103.12544,0.87095183,477.87192,111.83483,0.99481034,465.09204,111.84763,0.9916276,473.48383,142.68823,0.988567,465.97894,142.54901,0.97750866,473.16946,170.81644,0.9638874,470.0109,169.90521,0.9402952,1.22915004,0.02137115,1.22896413,-0.00049129
62,2066.666666666667,459.19278,58.82551,0.95873773,461.96835,55.670723,0.9626078,456.69153,56.308975,0.84215343,468.7839,55.873383,0.909489,455.19046,57.906693,0.35768038,479.01822,71.15551,0.99555165,456.03168,73.36479,0.98922324,489.43182,91.67621,0.98532933,455.15094,92.22409,0.9018172,488.24615,111.14683,0.97164863,451.8844,104.13971,0.87596023,477.0336,111.33523,0.994961,462.9809,111.89355,0.99192727,473.17065,141.92455,0.98612857,463.61102,142.29161,0.97320265,472.83337,170.60333,0.9552771,467.58688,170.51096,0.9283871,1.10429043,0.14738726,1.0936135,0.04175972
63,2100.0,458.9421,58.727165,0.9623155,461.69666,55.56112,0.96354926,456.33124,56.231026,0.8614078,468.26242,55.661522,0.9057714,454.56454,57.766426,0.4036989,478.42236,70.751144,0.9959378,454.77408,73.17304,0.9914569,488.98126,91.0713,0.98614013,453.1888,91.9248,0.9243629,487.00626,110.45155,0.9734272,450.88986,103.895096,0.8995419,476.70026,111.05126,0.99522334,462.30157,111.79581,0.99291587,472.45892,141.42654,0.9851719,463.3733,141.98676,0.97347474,470.9456,169.21274,0.9486316,467.44794,169.43509,0.92242634,1.05206343,0.08229122,1.04325618,0.10808399
64,2133.3333333333335,458.83408,58.436584,0.9617224,461.65793,55.22737,0.9617622,456.0893,55.90683,0.8627786,468.11978,55.473824,0.90109783,454.0066,57.62243,0.41639242,477.87912,70.7779,0.99600714,454.30817,73.33374,0.99201,488.43948,90.761986,0.98594195,453.14413,91.93586,0.9285763,485.3838,109.69101,0.97350514,450.5877,103.88389,0.9046837,475.86154,111.38344,0.99585116,461.4363,112.17802,0.9940064,471.20374,141.42583,0.9881292,461.95844,142.02954,0.9791677,470.12427,169.30139,0.96046376,466.42004,169.64656,0.94068885,1.00497758,0.11766417,0.99707484,0.04446182
65,2166.6666666666665,458.48877,57.78769,0.96055925,461.36826,54.614475,0.95945793,455.77426,55.2387,0.86290884,467.71344,55.176952,0.89660597,453.5537,57.165833,0.42869934,477.5042,70.94597,0.9960813,453.21286,73.33199,0.9925297,487.95877,91.35875,0.9854893,452.14224,92.27044,0.9319905,483.53543,109.38638,0.97255534,449.98422,103.75283,0.90709025,475.0423,111.64421,0.99635726,460.00787,112.3633,0.9948754,470.5554,142.04999,0.9902666,459.737,142.56851,0.9832908,470.487,170.86035,0.9687047,465.08313,171.13138,0.9534677,1.01314046,0.01301921,1.00763759,0.10464496
66,2200.0,458.27835,57.290977,0.960705,461.16245,54.080574,0.9589118,455.5114,54.726383,0.8659008,467.452,54.724224,0.89522356,453.18027,56.761993,0.442106,477.35202,70.83023,0.99616647,452.49118,73.33863,0.99294066,487.4298,91.567406,0.9853211,451.28256,92.73564,0.9348586,482.11526,109.86456,0.97203517,449.8151,104.764565,0.90915376,474.9839,112.082634,0.9964719,459.46695,112.87414,0.99512684,470.8493,142.39278,0.99043244,458.72482,142.97383,0.9838657,470.22815,170.99072,0.9693487,463.51355,171.35527,0.9549992,1.10662791,0.1075927,1.09778947,0.08892365
67,2233.3333333333335,457.63055,57.077545,0.9603495,460.5544,53.869816,0.95855707,454.8689,54.485413,0.86760473,466.93396,54.5812,0.89449,452.5411,56.508217,0.4481388,477.08136,70.886,0.9960407,451.2385,73.139336,0.9928872,487.0154,91.80193,0.9843874,448.95654,92.44299,0.9344787,481.28766,110.001396,0.96999425,449.0083,104.644264,0.9069386,474.3917,112.478836,0.9962489,458.1454,113.13899,0.99489504,470.79486,142.94727,0.9894797,456.84015,143.37775,0.9825701,469.12558,171.63055,0.96635526,460.7235,171.8034,0.9512717,1.10662791,0.1075927,1.09778947,0.08892365
68,2266.6666666666665,457.52087,56.85884,0.96079576,460.40894,53.682312,0.95723903,454.67633,54.27054,0.8741462,466.58533,54.53734,0.88662785,452.09512,56.378326,0.46911457,476.45956,70.94841,0.99592173,450.6915,73.09071,0.9931399,486.46442,91.76598,0.9833136,448.52243,92.20716,0.9376557,480.79858,109.78806,0.9683331,448.48135,104.06612,0.9101146,473.6513,112.324524,0.99623966,457.31683,112.96978,0.9950689,470.71533,142.71384,0.9896235,455.848,143.15793,0.98351246,468.88065,171.50447,0.9674635,458.58615,171.74185,0.9542405,0.95293373,0.0486378,0.95113914,0.0324252
69,2300.0,458.0496,56.45188,0.96317446,460.81073,53.252266,0.9528633,455.01044,53.862473,0.8978422,466.4263,54.065178,0.8561231,451.78915,55.91184,0.5589852,476.00488,70.52767,0.9957841,449.40366,73.046036,0.9947312,485.98572,91.39783,0.98027885,447.3777,93.17474,0.9548258,480.85504,109.30367,0.9637712,447.2264,105.768,0.92836916,473.45703,112.2303,0.9963881,456.47998,113.17616,0.99597603,471.3106,142.56895,0.98959434,454.81528,143.3352,0.9861179,469.21436,171.1389,0.9674074,456.48438,171.90121,0.9596391,1.13564211,0.09973205,1.1255474,0.11348819
70,2333.3333333333335,457.7365,56.132782,0.96381783,460.3956,52.970478,0.95071435,454.70822,53.587944,0.9058035,465.82263,53.81255,0.840895,451.35748,55.645584,0.5917506,475.3379,70.18828,0.99567324,448.41092,72.97086,0.9951363,485.29984,90.66057,0.9785574,446.1401,93.55739,0.95919275,481.0831,108.37851,0.96091926,446.59076,106.82589,0.93265826,473.1929,112.15175,0.99645054,455.8153,113.277565,0.99627113,472.14285,142.75394,0.9896534,453.60315,143.70915,0.98707575,469.87094,171.62596,0.9679406,453.73682,172.65393,0.9621837,1.01949137,0.03316213,1.01672647,0.06730685
71,2366.6666666666665,457.2828,55.622635,0.9646356,459.98465,52.486645,0.9500977,454.26205,53.07793,0.91227394,465.4644,53.64563,0.83191794,450.92902,55.376675,0.6149873,475.00323,70.48483,0.99550617,447.8258,73.057,0.99544996,485.0457,91.17676,0.97631073,445.40332,93.63166,0.9625307,481.4687,108.592674,0.9571669,446.21707,106.429855,0.9358983,472.937,112.435,0.9963768,455.17865,113.45781,0.9964226,472.4852,143.02551,0.9894181,451.82922,143.85818,0.9876347,470.73087,172.23253,0.96813613,451.0994,173.11682,0.9641719,1.00460987,-0.18374279,0.98700338,0.03610988
72,2400.0,456.6526,55.680496,0.96696925,459.33728,52.608032,0.9507874,453.6794,53.12928,0.9209985,464.7959,53.63354,0.8215472,450.37805,55.150734,0.64113086,474.02414,70.09524,0.9956382,447.12415,72.48396,0.99607396,484.33157,90.215004,0.97652406,444.44482,92.93968,0.9692411,483.0476,107.93096,0.9582576,445.602,106.877655,0.9454729,472.29413,112.22658,0.99668944,454.6659,113.19825,0.99694365,472.621,143.19005,0.99000704,451.21088,143.92776,0.98912394,471.46655,172.65631,0.9694372,449.79495,173.40204,0.967397,1.00563097,0.04249666,1.0044442,-0.02407325
73,2433.333333333333,456.31155,55.06871,0.9688765,458.9959,51.977444,0.9511357,453.2697,52.52577,0.92904586,464.33267,53.061676,0.8098614,449.72675,54.58766,0.6710656,473.12766,69.49677,0.9957456,445.88525,72.05753,0.99646556,483.6341,89.411896,0.9766931,442.36063,92.58249,0.9732501,484.9452,108.171844,0.95882845,444.58124,107.05494,0.9511502,472.02136,111.8255,0.996808,454.2215,113.02144,0.997182,472.77747,143.22876,0.9898358,451.5249,144.21826,0.9894633,471.36816,172.90512,0.9680733,449.9374,173.99384,0.96716666,1.00563097,0.04249666,1.0044442,-0.02407325
74,2466.666666666667,456.3456,55.267437,0.96925765,458.93604,52.101776,0.9482682,453.1391,52.729134,0.9344572,464.06027,53.12447,0.786933,449.22662,54.78278,0.700894,472.73297,69.61939,0.99543446,445.15674,72.228134,0.99659556,483.40567,90.13298,0.9735757,441.57614,92.88237,0.97510386,485.68933,109.683266,0.9540254,444.8276,106.550415,0.9531268,472.1109,111.96567,0.9965333,454.0715,113.29078,0.99712604,473.07797,143.69208,0.98859495,451.53223,144.84824,0.98901296,471.6465,173.46323,0.96410584,449.95895,174.83014,0.9650284,0.98572569,0.02137115,0.98503821,0.02996874
75,2500.0,455.9797,55.62673,0.9730599,458.54456,52.42323,0.95245886,452.66162,53.114037,0.94410616,463.64667,53.36383,0.7838968,448.52417,55.172592,0.7302596,472.0207,69.55022,0.9957936,444.36343,72.52771,0.9971233,483.2047,89.35895,0.975387,440.1198,93.01624,0.9795554,486.5737,108.38931,0.95776284,443.74252,106.44722,0.9606062,472.00876,111.96331,0.9966691,453.9388,113.5313,0.99736637,473.00662,143.85794,0.9879987,451.7583,145.27554,0.9889563,471.57632,173.33072,0.96030766,450.237,175.08023,0.96263343,0.92271222,-0.05723539,0.92092475,-0.00442162
76,2533.333333333333,455.83398,55.919888,0.97519886,458.3425,52.670418,0.9541056,452.42496,53.393154,0.9500201,463.39178,53.529945,0.7748019,448.03467,55.367477,0.7515976,471.55438,69.7016,0.99588484,443.50586,72.65643,0.99741757,482.62634,89.86766,0.975441,438.2172,93.26225,0.98209757,486.63525,109.22741,0.95839804,442.53564,106.50922,0.9648153,471.95456,112.22556,0.99663574,453.69562,113.88345,0.99746156,472.8306,144.44891,0.9870978,452.00546,146.00969,0.98864913,470.67618,174.09363,0.95603865,450.2567,176.0664,0.95994425,0.77953741,-0.13633322,0.76371167,-0.07639573
77,2566.666666666667,456.0598,56.0543,0.9763549,458.40793,52.792442,0.9518855,452.52402,53.52572,0.9556707,463.03662,53.6621,0.74726295,447.58722,55.465534,0.7847121,470.83633,69.76339,0.99589074,442.5978,72.82306,0.99768984,482.34882,89.71412,0.9742099,437.35275,93.641975,0.98439795,487.08014,109.331726,0.9571615,441.99152,107.35735,0.9684152,471.49454,112.23581,0.99674475,453.11298,114.03746,0.9976857,472.6138,144.59033,0.98723584,451.76544,146.34502,0.98948586,470.4118,174.27515,0.95634633,450.08163,176.6165,0.9620804,0.73089182,0.19799022,0.70328289,-0.01989728
78,2600.0,455.83884,56.710884,0.9759512,458.29535,53.442932,0.95041114,452.323,54.101578,0.9556139,462.95163,54.291172,0.7426435,447.3841,55.89547,0.7891725,470.7401,70.46425,0.99587446,441.94724,73.40587,0.99774265,482.09866,90.49195,0.9732154,436.71985,94.83408,0.98455936,487.18344,109.85839,0.95551765,441.6732,109.63036,0.9682713,471.0288,112.922874,0.99680835,452.4157,114.66261,0.99776363,472.22067,144.86156,0.98776996,451.72964,146.50293,0.9900912,469.8936,174.4255,0.9590354,450.81247,176.56708,0.9648214,1.27915065,-0.15647615,1.25844159,0.16753019
79,2633.3333333333335,456.32925,56.387817,0.97499055,459.12762,53.065666,0.93858784,452.8533,53.708992,0.9660722,463.64398,54.210793,0.63764143,447.8479,55.800568,0.8578374,471.00125,70.80324,0.99364096,440.7715,73.97151,0.99805754,482.177,90.67885,0.958243,434.30447,95.56566,0.99080056,485.7827,108.8463,0.9418087,442.39417,109.85341,0.97955257,470.66266,114.06108,0.99685526,451.2075,115.99262,0.99835783,471.8231,146.58481,0.99067724,452.1255,148.23653,0.9944832,468.3837,177.25023,0.9716845,452.5532,179.46223,0.98092353,1.17688571,0.04495312,1.17590472,0.01694954
80,2666.6666666666665,455.61194,56.344574,0.97495633,458.4737,53.04046,0.9372561,452.2446,53.70218,0.9666616,463.1548,54.323654,0.6312918,447.4885,55.955788,0.8642596,470.3061,71.05062,0.99369437,440.20026,74.42101,0.9981749,481.27405,90.612885,0.95737034,433.31314,96.04408,0.991417,485.11182,108.41043,0.94100404,442.88104,110.27156,0.980601,470.3532,114.5355,0.9969428,450.98535,116.62132,0.9984515,471.3599,146.79425,0.9908409,452.15765,148.59451,0.9947524,467.70056,177.03635,0.97219265,452.79028,179.40265,0.98171645,1.19235846,0.35250121,1.1390579,0.00294775
81,2700.0,456.6037,56.932663,0.9747547,459.3215,53.701813,0.92974055,453.27722,54.318237,0.96873826,463.4746,55.23448,0.5896139,448.14545,56.695595,0.8846554,469.5119,71.95419,0.9936864,440.35397,75.209854,0.9983759,479.8806,91.48777,0.9549766,433.4245,96.74621,0.9925741,484.082,109.51657,0.9389885,443.3431,110.76059,0.9827167,469.4434,114.74547,0.9971047,450.69708,116.917595,0.9986223,470.2961,146.94933,0.9913243,452.63766,148.96281,0.9953578,466.35974,177.13196,0.97361904,453.07654,179.90942,0.9834983,1.08471155,0.29035291,1.04276489,0.0702546
82,2733.3333333333335,458.7046,60.1455,0.97503483,460.87128,56.580215,0.9300074,454.9168,57.545586,0.96615064,464.89624,56.58143,0.60383093,448.80713,58.76838,0.8799959,470.7521,71.71225,0.99509084,440.99017,75.64877,0.9984522,480.39014,91.74833,0.9613044,433.5358,98.64873,0.9905005,482.49905,109.44539,0.9441979,445.61,112.84936,0.9782687,469.86777,115.447876,0.9969308,450.8247,117.8791,0.99835396,470.25757,147.02705,0.9880322,453.5425,149.56114,0.99272037,462.86798,176.99692,0.9603159,453.33588,180.70087,0.9727677,0.94735548,0.23066107,0.9157662,-0.0751675
83,2766.6666666666665,459.98193,62.17247,0.97440016,461.9591,58.439972,0.91832906,456.05917,59.537262,0.9681198,465.81366,57.70517,0.5365406,449.53613,60.179405,0.89822924,471.03674,71.912,0.9944482,441.20926,76.46729,0.99851364,480.1889,91.87185,0.95374554,433.56683,100.38256,0.9914001,481.43475,109.794266,0.9363239,448.12012,115.32226,0.97979957,470.32077,116.3742,0.99653566,451.19272,119.211075,0.9982955,470.55426,147.75246,0.9858601,454.43442,150.792,0.9922017,461.74875,177.1171,0.95253533,453.68457,181.59695,0.96972096,1.08976183,0.13854403,1.07985735,0.04790086
84,2800.0,460.18005,63.33307,0.9759076,462.50528,59.567436,0.92708755,456.27145,60.570015,0.9685684,466.85782,58.694794,0.5732674,450.12933,60.97898,0.89184153,471.78082,73.12018,0.9947584,442.01846,77.17132,0.9986129,479.4804,93.99525,0.9568256,433.57593,101.37041,0.99191636,480.59604,111.39257,0.94013697,446.99634,116.4319,0.980906,469.92532,117.92437,0.99644107,451.0417,120.45285,0.9982578,470.22592,148.69577,0.9846809,455.4358,151.35591,0.9915217,460.50974,177.53192,0.9472452,454.5432,181.37024,0.96618974,1.08976183,0.13854403,1.07985735,0.04790086
85,2833.3333333333335,462.3799,64.71365,0.9675139,464.34976,61.55081,0.884121,458.8925,61.82779,0.95905924,467.20096,61.868774,0.45649266,451.94095,62.271973,0.8804982,469.98627,76.43959,0.9919469,443.2491,78.39619,0.99760336,477.4503,95.49649,0.94574857,436.20288,101.02046,0.98958534,482.38953,113.6558,0.9308188,449.399,119.70416,0.9781813,467.05453,118.31145,0.995911,450.0962,120.05327,0.99788827,467.73883,149.02191,0.9879187,455.82623,151.00505,0.9931779,459.1511,177.39679,0.9629977,452.4858,180.357,0.9756742,0.98067739,0.21715057,0.94573494,0.14198306
86,2866.6666666666665,463.82376,67.26535,0.9704625,466.2923,63.679268,0.90452486,460.13132,64.139534,0.9634659,470.11102,62.947,0.5166037,453.73767,63.69825,0.8932819,473.36813,77.69815,0.99337703,444.50235,79.40172,0.99830544,478.8891,100.50151,0.93911225,436.07803,104.82607,0.9897127,480.48892,116.42429,0.9158538,449.598,120.722855,0.9750701,467.95575,121.435425,0.9953251,450.07593,122.802414,0.9977373,467.24518,151.4844,0.9815232,456.44217,153.04698,0.99009365,454.576,179.55063,0.9407017,454.48987,181.95816,0.9627925,0.9470129,0.09359091,0.92853976,0.16089776
87,2900.0,147.02509,49.388844,0.92330134,148.75868,46.883884,0.78501326,144.1233,46.32047,0.8920869,149.70244,49.700073,0.3936393,136.63327,47.705257,0.7458898,151.51596,68.720566,0.9848705,125.119125,65.00633,0.9928556,156.69548,93.68368,0.9309873,110.0596,85.920395,0.97405255,162.08746,114.36321,0.90112066,110.14894,105.0039,0.94970185,139.8101,115.463905,0.9901578,123.70975,114.14338,0.9933782,138.94463,152.23178,0.9498182,130.07703,151.52113,0.9627696,129.11896,183.72894,0.82259464,125.36028,183.50505,0.853094,0.98800126,0.13264854,0.96759739,0.14935243
88,2933.333333333333,468.6253,73.4886,0.9693419,471.08994,70.39823,0.87586105,465.4401,70.15143,0.96312845,473.8488,70.74913,0.4320246,458.51874,69.63264,0.90907276,473.71674,85.29167,0.9924821,448.12427,85.095505,0.99799937,478.73,107.283226,0.9372233,442.6427,109.284485,0.9898335,481.8757,123.77367,0.9193767,459.37747,125.64195,0.97718143,467.27936,124.91475,0.9940831,450.61108,125.856415,0.9971173,469.3735,153.97368,0.9771723,458.5926,155.39738,0.98814887,458.67587,179.69067,0.9260499,453.4901,182.00893,0.9540456,0.87834353,0.11790981,0.85853081,0.14321129
89,2966.666666666667,470.51456,77.81424,0.9583008,472.46176,74.90274,0.80233866,467.51157,74.97748,0.966228,474.66217,75.66859,0.25753176,460.9259,75.367584,0.9383146,474.293,89.53525,0.9833242,449.88055,89.986755,0.9976872,477.57056,110.76878,0.8546766,442.7507,113.22513,0.99236226,480.76642,127.482605,0.8419907,459.02188,129.40408,0.98094314,465.98962,125.731186,0.9910858,450.21402,126.73923,0.9969234,469.30005,153.59528,0.97247195,458.18332,155.09958,0.9903409,455.77356,179.45117,0.93000203,451.13513,182.26233,0.9678349,1.02664631,0.08990623,0.95113914,0.37583752
90,3000.0,474.24954,82.51495,0.9297264,476.02606,79.55951,0.68232214,471.48547,79.56503,0.9433499,477.73605,79.84355,0.17833549,464.66165,79.363785,0.91866416,475.58224,92.69948,0.9754239,452.21075,92.843506,0.996228,476.99472,115.383575,0.82969195,444.34564,117.49171,0.9897536,480.31946,133.18506,0.8209334,461.57532,135.03174,0.9759729,464.01498,127.60292,0.9878928,448.7699,128.52988,0.9955348,469.91757,152.59232,0.9645372,459.22946,154.23769,0.9870287,454.93326,178.0682,0.9142534,450.8002,181.23917,0.9592431,0.96387123,-0.01007146,0.8968515,0.3529925
91,3033.333333333333,479.01553,86.92572,0.9214925,480.55682,83.68138,0.6036772,476.21634,83.68593,0.94146895,481.20425,82.99413,0.12136237,468.46677,82.49312,0.92958754,476.1568,95.031876,0.9694624,455.35648,95.65547,0.99561286,475.90985,118.23978,0.784855,447.64313,122.17624,0.9883062,480.86615,135.66724,0.785118,463.96463,139.60316,0.97299904,462.80145,131.11844,0.98447824,449.22168,132.45164,0.9943938,469.32162,154.06958,0.95513994,461.66217,156.43289,0.98425484,451.9789,176.64697,0.8951764,449.89246,180.9732,0.9515487,0.85815119,0.06092007,0.77992427,0.35274685
92,3066.666666666667,482.63965,91.24286,0.9322115,483.5408,88.01667,0.59499335,479.67978,88.42052,0.9539514,483.8787,87.13696,0.10211252,472.00305,87.860115,0.9502745,478.74744,98.456924,0.97028697,459.74014,100.6317,0.9964133,478.59152,120.271194,0.7588044,452.21017,126.84981,0.9902534,481.59766,138.96304,0.76158255,465.50174,145.64255,0.97602683,462.64532,132.6458,0.9812444,449.7128,134.5576,0.99378186,476.40405,151.75232,0.9404149,466.381,154.94557,0.98163384,454.3363,175.10829,0.8669661,447.512,180.83495,0.94394535,0.8045562,0.1805494,0.72858437,0.28961597
93,3100.0,486.19077,98.609276,0.94229037,486.8684,95.14161,0.6440816,483.04794,95.62685,0.9579035,486.64856,93.957245,0.1169644,474.0061,94.70373,0.9500742,480.4477,104.30812,0.9778451,459.35657,107.16186,0.996151,480.93286,126.44083,0.82661295,451.88535,135.15784,0.9873914,485.50522,144.9328,0.8196406,467.08038,152.97638,0.97129637,463.8071,133.88986,0.9819916,449.35898,136.42305,0.9925391,477.9273,154.54001,0.9387541,466.5597,158.70683,0.9760813,456.193,174.88934,0.85578585,449.42517,182.13565,0.9276605,0.59534953,0.01866905,0.59200551,0.06018313
94,3133.3333333333335,487.25626,105.69959,0.89381295,488.51767,102.61708,0.50313175,485.2067,102.390976,0.913246,488.08624,101.00925,0.094773285,477.42224,99.94989,0.9080319,479.3274,109.55145,0.9653959,461.86368,109.91499,0.99342704,477.40652,133.85268,0.8289139,456.4086,139.13484,0.9856295,486.39,151.38531,0.8295313,475.82434,157.55983,0.9690967,460.56912,137.2464,0.97130156,448.7194,138.45412,0.9876078,468.80212,158.53781,0.89100784,461.34924,161.04773,0.95414203,454.3583,177.9477,0.72674173,451.2352,182.96547,0.8475728,0.59534953,0.01866905,0.59200551,0.06018313
95,3166.6666666666665,489.87103,110.064835,0.9130612,491.15216,107.127205,0.6155889,487.58316,107.02628,0.92173785,491.73358,105.92,0.14334333,479.8647,105.266235,0.8915643,484.6492,113.11356,0.9726836,463.7521,113.77812,0.99306303,483.62546,135.98042,0.88065666,457.34396,141.0531,0.9836352,489.05237,156.44102,0.867923,470.57944,162.42389,0.96550214,463.96457,133.86867,0.9706199,448.69138,135.03018,0.9849492,479.5384,159.45413,0.87008166,459.85083,161.98967,0.9344276,468.6826,179.5997,0.6678265,448.40106,184.7995,0.78600407,1.12100336,0.17121487,1.06536427,0.30386341
96,3200.0,491.36487,118.30634,0.91045845,494.021,115.3861,0.63252366,489.6573,115.03716,0.9142976,494.14398,112.524765,0.3014859,481.7913,111.4139,0.87754494,485.63562,120.843445,0.95119387,465.84338,120.49892,0.9928727,484.09198,146.76733,0.8253441,459.55865,148.50136,0.9852283,491.68652,169.47302,0.78810364,472.24445,167.36613,0.96479964,460.33035,141.05426,0.973994,445.60358,142.06517,0.9891677,483.36493,165.46613,0.9228569,458.48526,168.91013,0.96994036,475.73413,180.28703,0.81748426,448.74564,187.70703,0.8943714,0.96963026,0.05060296,0.8860431,0.39057625
97,3233.3333333333335,494.63303,123.78235,0.96153826,496.2856,121.07582,0.7370736,492.87567,120.32916,0.9674522,496.23267,119.510124,0.1614514,485.1947,117.10086,0.9478771,485.22656,126.60889,0.98380166,468.32407,124.88893,0.9965448,483.8274,151.28682,0.90111953,463.43506,152.8285,0.9904613,493.1088,174.16995,0.8912694,478.161,176.68628,0.9783053,460.29315,146.18271,0.9673043,446.8905,146.51129,0.9848359,481.85208,166.69077,0.8087646,461.9897,168.67569,0.9113941,472.9673,182.51938,0.5635035,447.2181,187.0682,0.71957225,1.01197436,0.05969184,0.94524365,0.35643153
98,3266.6666666666665,499.47253,130.96411,0.89892805,500.93195,127.532455,0.4773983,497.11606,127.38373,0.9189209,499.16803,126.87337,0.083482794,487.70105,126.47313,0.9143989,487.35428,134.38779,0.9651181,471.3713,136.3537,0.98917204,490.01767,162.62639,0.8311049,474.0142,171.55522,0.9736215,499.3778,181.84941,0.7952064,486.7049,190.63484,0.9387159,456.98758,146.2289,0.9161818,443.1844,147.99687,0.95137775,481.12985,168.6662,0.64798135,457.95996,172.26852,0.79867697,475.1568,185.36227,0.3616461,443.94318,192.62396,0.5075249,0.98315919,0.19627071,0.90864248,0.32007601
99,3300.0,502.3791,138.67523,0.8486361,503.6088,134.86415,0.4503909,500.91098,135.68289,0.87765056,499.30594,130.03235,0.21033186,491.36942,131.85896,0.8859954,487.51718,134.11453,0.93170214,473.18613,142.5526,0.9904013,491.3123,161.14359,0.7668991,475.84454,180.7633,0.9791474,499.5202,187.08432,0.7245848,492.60287,206.21893,0.94629306,456.13876,145.28143,0.9508871,445.8592,150.12459,0.978375,480.55676,169.46045,0.8776712,466.37634,176.38962,0.9484135,475.0798,186.62701,0.73303884,461.78696,194.98337,0.833917,1.0540266,0.04986602,0.82340351,0.65611897
100,3333.3333333333335,508.30826,145.9293,0.71758395,508.23657,142.036,0.24167171,507.25232,143.25894,0.772173,501.1886,137.3276,0.121408544,497.35602,140.49527,0.84557825,489.52338,141.71385,0.89306027,476.772,149.62941,0.98649406,490.199,170.56921,0.7331339,476.00296,187.96817,0.97919995,499.94037,194.57446,0.7163105,492.03784,210.4365,0.9508569,455.5044,150.82474,0.94650376,446.06308,154.98456,0.9779106,480.8441,174.36969,0.86206037,465.51663,179.04843,0.94340795,479.09192,190.45364,0.71924233,459.21152,195.04991,0.82606846,0.9875873,0.10415367,0.96047367,0.2048683
101,3366.6666666666665,508.9828,156.8909,0.7923906,510.03683,153.17133,0.36444682,508.04736,153.73384,0.8325737,505.10712,146.94891,0.1819611,499.4317,148.73854,0.85589546,491.56952,150.1455,0.9062559,478.32565,156.04263,0.9865747,487.61768,180.06943,0.7373062,470.52228,194.53711,0.97593874,498.86655,202.10242,0.7114002,488.20462,214.725,0.94386226,453.7894,158.28667,0.9299214,444.49088,161.7829,0.9687867,480.32812,182.77496,0.8004226,466.83328,188.16185,0.91075873,468.63794,191.73871,0.6058101,453.73813,198.75673,0.7336586,0.67808336,0.56031725,0.16138905,0.34611442
102,3400.0,511.39987,165.37189,0.84046334,513.06415,161.91988,0.295827,510.5381,161.71286,0.8761434,509.46677,157.7477,0.04412117,502.72534,157.29247,0.9006425,493.82385,160.50343,0.9414047,479.57953,163.73715,0.9843544,491.76703,185.85916,0.763463,471.58102,198.5242,0.97068316,502.64697,200.17761,0.7383628,486.86972,218.31508,0.9323918,458.58853,174.05814,0.8691704,446.40414,176.93536,0.92696244,486.63834,191.2168,0.50207067,467.31378,196.00803,0.7015433,474.83188,201.17244,0.23218396,451.13876,209.75299,0.36707532,0.56582943,0.22181783,0.38615463,0.34906217
103,3433.333333333333,511.54797,177.53076,0.704157,513.8839,173.8733,0.20119433,511.8689,173.04692,0.71300155,511.56174,165.38948,0.03779778,506.90262,163.56503,0.73026955,497.12146,162.473,0.90036625,483.64047,164.25021,0.9650714,492.29456,189.7865,0.79054296,475.40295,200.07397,0.9577779,502.82037,200.39584,0.80453414,489.52527,217.27872,0.9287011,462.19498,172.77267,0.8857819,451.00455,174.9275,0.9269319,488.71375,194.62762,0.62324643,470.94583,198.47346,0.7602898,478.60086,200.74828,0.33705127,455.02283,207.48558,0.4579605,1.40220661,1.33459167,-0.08818671,-0.42103628
104,3466.666666666667,515.4117,183.93692,0.7930711,517.40625,180.43571,0.21606041,516.1019,179.58153,0.82673347,508.58365,172.0139,0.037835468,510.04407,170.6497,0.86779094,491.1018,168.64502,0.91560495,489.61282,170.67511,0.9813256,488.42346,194.38219,0.70641553,485.97968,201.34727,0.9722288,505.65665,205.64651,0.73594624,501.2595,213.54756,0.94414216,459.62445,178.44305,0.8508539,457.67227,180.68939,0.9241213,486.62595,196.70468,0.5012615,486.84024,199.68242,0.7290445,477.9917,199.80595,0.23984358,479.54846,205.36145,0.40231994,1.30844482,1.24026382,0.3340778,-0.24933012
105,3500.0,14.923956,120.13661,0.44051698,15.422408,118.51148,0.4883121,15.02666,118.69365,0.17757416,19.294518,116.998535,0.6166399,18.501678,117.412315,0.10505347,28.287872,120.359024,0.9416201,20.696598,121.61673,0.81489354,40.083553,125.66531,0.9117728,19.16328,131.13828,0.52216953,43.53395,125.265305,0.8519868,19.210663,133.94481,0.5102769,32.356247,140.43771,0.957491,28.13275,140.63379,0.9192111,34.00772,154.56725,0.9195872,28.819382,154.56621,0.8426324,35.28857,168.41801,0.84046584,29.36858,167.39485,0.7528443,1.30844482,1.24026382,0.3340778,-0.24933012
106,3533.333333333333,15.755676,119.89746,0.38744825,15.902359,118.18387,0.40839604,15.279711,118.39557,0.142193,19.043032,116.53988,0.59355557,18.604542,116.65791,0.10863756,26.442589,120.1304,0.9538526,22.295181,119.665215,0.8434308,38.26824,124.44643,0.93035036,26.796915,124.10457,0.561302,45.00074,124.56027,0.8817894,31.342546,121.51224,0.5546828,30.70575,141.4717,0.97971123,28.683437,141.26662,0.958937,34.07049,159.20802,0.971475,32.61175,158.97746,0.93925273,32.126183,176.06042,0.9427931,31.370502,174.78593,0.9026809,0.94152218,0.43823146,0.78459153,-0.28077274
107,3566.666666666667,14.259541,121.91124,0.44380882,14.667046,120.02701,0.4436679,14.471582,120.291,0.19261654,18.386864,118.19261,0.685675,19.629553,118.3817,0.20226501,24.38359,124.094635,0.9468023,25.788391,123.302826,0.8920862,30.17931,130.04378,0.8670198,34.837875,128.3627,0.63957745,33.915543,127.932144,0.7799694,31.908173,126.91908,0.56861115,30.478722,147.03555,0.94187075,31.949785,146.29396,0.92079186,23.425083,158.59543,0.8379374,28.058296,157.83533,0.76707315,26.207664,169.70294,0.6930877,31.221924,167.85623,0.61729306,0.83067638,-0.0513399,0.81922754,0.12748998
111,3700.0,511.07205,208.49579,0.19961134,513.6405,209.87347,0.10415057,516.8722,207.97592,0.19149074,504.3636,218.19012,0.27919573,518.9327,214.76299,0.34508142,478.10938,219.28836,0.611549,499.10797,218.37856,0.5682801,462.26984,203.40399,0.47449455,479.69543,206.14494,0.4322345,487.62973,191.93185,0.4803645,497.60626,194.7229,0.39558914,433.08588,209.06667,0.38952905,446.5285,208.26698,0.35004738,449.60742,199.15187,0.24059686,456.31332,201.41582,0.20928684,446.38687,202.00761,0.16875184,453.97278,209.33214,0.14269939,1.45837879,0.82954465,-1.19874975,0.04151408
112,3733.3333333333335,511.14755,206.78162,0.19559401,512.4081,207.77863,0.09736173,515.92224,206.81935,0.15712044,500.8587,215.78018,0.3435266,517.99164,215.27133,0.35029024,475.88577,218.07196,0.7648808,504.86618,220.77534,0.6862036,458.8732,201.76105,0.6685127,491.20898,208.52036,0.5557302,486.9287,187.42308,0.6518248,500.4593,190.44783,0.5113377,438.18167,209.58366,0.59182674,456.8844,209.51833,0.52439517,450.90695,198.31454,0.3672322,461.05975,198.80046,0.30072176,448.80426,196.46423,0.23417501,456.06335,198.92862,0.18984331,1.65279814,-0.79441735,-0.38787415,1.39649432
113,3766.6666666666665,511.3703,203.01096,0.058409795,509.62518,204.00632,0.022503935,514.878,203.2899,0.04517666,490.79016,213.84135,0.24096175,516.23,214.63579,0.34737962,464.1806,219.62622,0.75965977,514.4529,223.70415,0.7182426,441.15402,206.81621,0.6863886,516.74536,217.65733,0.6292003,460.7625,185.14966,0.6508295,511.8904,200.42598,0.56897694,442.42938,209.21872,0.7467507,474.25107,208.99983,0.71591735,454.512,194.17953,0.5806345,471.22366,192.12915,0.5369674,450.1058,186.97244,0.44319084,459.04315,186.18788,0.40067044,0.85448132,0.32646279,-0.74651649,0.25743642
114,3800.0,513.3795,205.5325,0.08484519,512.3954,207.75003,0.03139494,516.5399,206.4996,0.06575483,493.33722,219.94768,0.22394149,514.03394,219.30557,0.34520775,465.6365,225.92126,0.7670612,508.88776,227.16353,0.7075641,441.9345,208.18991,0.715288,506.88022,211.8458,0.6276262,464.25674,184.98242,0.7016483,502.56976,195.75467,0.5913921,444.30933,212.95657,0.7216182,471.54938,211.82242,0.678056,446.53067,191.53456,0.53404254,460.63623,189.2623,0.46442676,447.9282,179.89903,0.4015267,456.37866,179.15332,0.34249806,2.13894578,0.03070568,-1.93691429,0.90692296
115,3833.3333333333335,510.12323,211.0455,0.21124351,511.3072,212.36964,0.08406278,512.5113,210.39728,0.19301258,496.14468,220.74342,0.23175383,505.06976,218.34158,0.41231033,467.31497,222.18744,0.7711751,492.0133,222.6896,0.7095776,449.64786,200.27794,0.7036754,482.8287,204.04138,0.62034464,477.5503,186.29184,0.70843,496.8155,192.98224,0.60227436,439.6911,207.31104,0.64938223,454.94894,207.18488,0.5941794,449.7375,188.12498,0.4188016,456.58777,188.88086,0.34846085,444.46213,173.32634,0.30635047,452.73523,176.01643,0.24904445,2.57961849,-0.12847256,-2.52990238,0.48736055
116,3866.6666666666665,512.7009,222.50429,0.57118773,516.0811,223.65211,0.3398133,515.9096,219.49725,0.53085804,507.77045,226.88683,0.3406941,508.72168,217.9664,0.5716738,476.1306,222.46529,0.89622724,487.88632,215.7999,0.8574817,463.15466,196.24501,0.838829,475.91772,193.22139,0.76673543,481.4677,186.53888,0.83188266,495.6671,194.33495,0.75393254,432.73953,208.13446,0.8302197,439.16675,206.07901,0.7770181,458.7373,191.93353,0.6040332,458.72192,190.7803,0.53090423,446.69296,172.05371,0.46364692,451.02753,173.76663,0.40208647,2.47992674,-0.41391257,-2.31741908,0.77992427
117,3900.0,508.82822,208.63617,0.3583671,506.78378,209.3987,0.1278102,509.35962,209.2321,0.33041176,491.4881,217.29384,0.17914036,501.3892,218.5712,0.5500961,471.04617,222.21542,0.8483984,491.6672,225.63895,0.84832084,472.42462,204.91496,0.77213204,497.46088,213.0628,0.7847321,492.26303,200.09258,0.77531224,507.73926,207.6728,0.7670953,441.14505,207.16357,0.8352538,454.70966,208.34027,0.8246884,454.78766,185.58528,0.7086082,464.62933,189.16606,0.69388,447.88336,176.49437,0.6153355,453.17715,181.00739,0.584461,0.88739227,0.35348379,-0.59888358,0.55122837
118,3933.333333333333,513.53546,218.32854,0.77007145,516.1182,220.6592,0.48447427,515.63434,216.31592,0.7710957,508.39096,227.8712,0.32466722,508.50107,218.09833,0.75597763,482.4753,231.17874,0.90049,491.7293,215.52097,0.9323576,479.00613,217.5281,0.7699569,486.49704,194.10532,0.8771202,492.83508,209.06157,0.77430356,494.6917,198.80222,0.84894913,434.51337,206.66783,0.81727517,439.86627,199.61716,0.8429402,454.6862,188.0339,0.642761,454.86505,183.93758,0.6967771,436.89062,174.62378,0.5401856,438.44278,178.67194,0.5615893,1.30761643,-0.39548916,-1.17025487,0.42889694
119,3966.666666666667,512.2553,220.83287,0.85671943,518.54474,224.17572,0.68913674,513.4707,216.99399,0.8362518,514.30786,233.71042,0.41989362,501.49814,217.31616,0.75936407,484.87317,232.02042,0.9307592,478.9918,215.9205,0.9354373,472.65024,208.96677,0.81356514,468.3811,189.38324,0.835836,475.28577,184.19456,0.82519597,477.99933,178.9866,0.8258679,444.02725,211.89265,0.8217598,439.3712,205.37027,0.8040543,460.56927,189.00102,0.6272439,454.08588,182.01788,0.61343,444.72015,171.26297,0.4551738,452.57568,170.0878,0.44251013,1.7736182,-0.29108985,-1.73573068,0.21960702
120,4000.0,515.64374,226.08487,0.80255324,522.2439,228.70148,0.57359433,516.91534,221.1244,0.8001823,516.9696,236.30185,0.31553155,503.61523,218.82883,0.756855,483.60605,233.9952,0.906666,479.90634,215.84389,0.9280074,470.38617,213.05463,0.7642253,468.06787,188.63939,0.8353099,474.35233,183.33017,0.7901019,470.91492,171.80756,0.8272041,438.87363,210.97792,0.82685876,435.96786,203.78264,0.82536584,459.28738,186.84158,0.6738117,455.2804,179.68335,0.6879357,443.90427,161.18776,0.5501469,454.22098,161.62134,0.5564028,1.22805211,-0.17612778,-0.95113914,0.75658795
121,4033.333333333333,513.79254,224.73251,0.7223715,519.97144,227.31767,0.50534266,515.87714,220.71693,0.7017853,517.97394,235.92091,0.28629658,506.52078,220.33473,0.6035298,486.311,233.73166,0.85207504,483.50906,217.70145,0.8760084,472.16058,205.46915,0.77402407,464.36243,186.4286,0.8121557,472.89365,175.60393,0.8072872,464.1911,164.93231,0.8268656,438.35162,208.5809,0.74051964,435.42896,202.76997,0.7336765,464.86044,179.69994,0.49435714,456.26456,176.83005,0.5037002,439.90775,150.9197,0.4047248,446.04248,156.5492,0.40000996,0.99678019,-0.02456454,-0.86639147,0.49227346
122,4066.6666666666665,513.6088,225.39934,0.70449734,519.1721,228.34311,0.44705272,516.59875,221.23685,0.7222513,517.3811,235.6154,0.23004554,509.06363,218.72868,0.6559955,487.6401,233.55498,0.81117994,486.99692,212.76346,0.9089962,477.4261,214.68271,0.678495,467.47324,181.07072,0.8754369,478.7478,197.64851,0.7342811,468.82803,164.06422,0.86926347,439.6344,206.22514,0.79419446,438.40854,198.75227,0.8411758,470.45844,175.09543,0.6467117,463.8801,172.8273,0.7400296,436.3873,149.43536,0.6218318,445.19846,158.93747,0.6790676,1.33525382,-0.07885219,-1.13758403,0.6946853
123,4100.0,510.5629,226.0987,0.51179594,515.01465,228.29805,0.28463697,512.6941,222.49268,0.5418111,512.0244,235.15387,0.15473178,503.72293,221.45038,0.52007955,485.51807,231.22696,0.69645894,481.53113,216.89008,0.80569166,477.01825,202.76424,0.59601957,463.3166,183.98013,0.7647528,473.60742,174.91261,0.66122067,468.52905,160.3427,0.7770073,444.85577,204.39223,0.7173318,441.4415,199.88657,0.7509048,473.29538,176.61838,0.5721066,465.13797,176.57573,0.63487744,447.26474,145.5852,0.5746983,454.02618,154.27165,0.60580564,1.33525382,-0.07885219,-1.13758403,0.6946853
124,4133.333333333334,510.12393,228.19034,0.5129339,514.2042,229.736,0.25828636,512.08966,224.24585,0.5936828,509.871,233.94495,0.12640424,501.84964,220.80351,0.60084486,482.7645,228.79535,0.6573825,479.19012,214.6819,0.82910544,476.99506,208.33896,0.51237464,464.5462,185.53296,0.7908072,476.1818,193.64413,0.57908475,472.18588,163.4671,0.7827553,441.398,202.48473,0.7131305,438.2911,198.49936,0.7776957,472.99445,177.8522,0.5888543,465.0806,179.36397,0.69136155,446.9477,146.76852,0.61731154,454.06326,157.31226,0.6731872,1.10076901,0.01056275,-0.91281845,0.61509618
125,4166.666666666667,512.98303,229.16779,0.577316,517.6504,230.3977,0.30115315,514.5469,224.94821,0.62988114,514.53503,234.48465,0.13481256,503.8429,221.2672,0.6055437,486.57925,229.51974,0.7163852,479.3931,214.2771,0.84860027,479.09106,202.34198,0.61260605,463.35757,180.73207,0.82079446,472.26227,170.56236,0.68336356,467.60236,157.80502,0.8254928,440.46527,204.29417,0.73028547,434.8566,199.69041,0.77974385,473.23822,182.28583,0.5498458,464.09567,182.46793,0.6380643,453.5301,149.70982,0.5182996,457.17673,159.46048,0.5661052,1.15923542,0.05035732,-0.99142499,0.59863794
126,4200.0,516.1744,230.33846,0.5599964,519.7527,230.90106,0.2664594,516.1,226.22318,0.6072321,516.61237,233.88766,0.09955518,503.0176,222.42007,0.5898161,493.03415,231.2958,0.71515363,480.5659,213.01195,0.8456562,490.22845,210.09578,0.6282841,470.00903,177.12456,0.8336472,474.66907,182.6289,0.7098763,468.24887,164.04478,0.8476919,445.89035,207.05664,0.7759444,437.10242,200.62122,0.8210118,476.4411,186.43332,0.6225563,466.79294,184.00896,0.70841473,460.26163,155.21252,0.5911697,459.9461,161.82356,0.64181286,1.30681677,0.04200537,-1.12259966,0.6676643
127,4233.333333333333,461.01318,199.56686,0.29789922,459.0152,198.7906,0.083924145,459.82358,199.02692,0.28659502,450.77222,203.46815,0.070735574,451.438,203.77763,0.43956336,450.1986,212.22366,0.6605436,448.90247,204.82669,0.86078113,473.0739,202.92297,0.57800543,462.41196,173.61868,0.88265216,494.12442,206.4471,0.6462061,464.82825,154.75024,0.87430096,453.5961,213.21436,0.8448894,453.40952,212.08353,0.91031545,465.80298,186.18,0.80199504,466.94604,186.31628,0.8847681,479.50143,182.04959,0.7976553,482.17548,183.83606,0.8522963,1.33880661,0.05698974,-1.1120369,0.7433231
128,4266.666666666667,476.28174,205.01099,0.30153552,474.6043,205.13298,0.06837816,475.60202,204.01021,0.31281552,464.39084,210.01297,0.04976826,464.94,207.23862,0.5114984,457.69324,216.10385,0.66831166,455.91028,205.4121,0.88207877,479.04794,206.66202,0.5990617,464.94434,172.13617,0.9083717,495.58038,209.9623,0.66852224,455.7856,152.40088,0.90102303,448.849,216.35626,0.87208754,448.33716,213.8833,0.92971206,473.8523,191.08414,0.83823127,473.762,190.15895,0.9136077,481.3892,193.57265,0.81894594,484.24512,196.48459,0.8742379,1.18498408,0.15696744,-0.96784303,0.6654535
129,4300.0,514.38293,226.97621,0.29223153,514.5354,227.60233,0.09037742,514.3311,225.68564,0.33682767,501.51373,233.36122,0.07287472,500.40173,229.37207,0.5113421,476.44055,234.45938,0.66115046,480.13025,224.77985,0.7700925,469.59955,211.79982,0.58384544,465.0636,186.04384,0.75187534,485.04385,197.79759,0.6483657,468.86432,163.21149,0.7704742,446.2853,216.40628,0.8121256,448.94208,214.74602,0.8407877,469.27887,184.78229,0.8000603,470.87207,187.36491,0.8322346,470.5292,173.05182,0.8161169,473.9961,180.5039,0.826205,1.12102403,0.08720413,-0.95236737,0.58488179
130,4333.333333333333,506.31317,220.73183,0.1612894,504.43484,221.44055,0.041560188,506.73434,219.41284,0.19249547,489.3449,225.80234,0.040823173,495.078,221.96555,0.42365205,469.1343,226.69043,0.5202179,477.1972,218.5439,0.65702844,471.695,204.74515,0.4761158,474.31857,188.14679,0.6785261,480.1423,190.11063,0.5740456,474.61383,173.53406,0.7290999,442.35074,216.08286,0.76942915,448.72556,214.59073,0.8053797,478.15915,186.91588,0.8134996,484.14453,187.19077,0.85252404,482.7934,193.21994,0.81392354,487.52963,198.72946,0.8316668,1.19834424,0.28519436,-0.97447546,0.63646733
131,4366.666666666666,477.2906,181.23645,0.108159006,474.7109,180.77829,0.028038042,477.2648,179.8431,0.12167306,462.58118,187.03452,0.036302358,469.7104,185.25743,0.32351628,457.8931,200.04185,0.41696778,458.4964,193.68137,0.6179109,476.04755,202.48955,0.32527578,474.66782,188.27023,0.63396937,491.50714,207.20778,0.37098995,482.1837,188.82094,0.63015735,448.71567,215.90543,0.7025812,450.21964,215.07571,0.78043264,483.08414,189.26515,0.7835062,482.53113,186.88669,0.8563412,495.0221,214.31519,0.8132372,495.98944,215.08408,0.8529356,1.21919583,0.09702995,-1.03367601,0.63916943
132,4400.0,501.35638,210.06688,0.09711536,499.7126,209.1282,0.028768325,501.7129,208.4563,0.12449115,484.2071,213.66048,0.040022828,489.93274,212.633,0.32927954,466.39273,220.11911,0.3795787,468.5478,219.69785,0.46788734,467.30194,212.40578,0.32245645,473.95825,213.68216,0.43987176,481.23944,203.8187,0.3831427,491.8722,211.39035,0.4740625,442.04214,220.3353,0.5785363,443.92883,222.62117,0.6001802,473.71545,200.30142,0.64881575,472.68762,203.27084,0.67813593,487.39127,209.62749,0.69663095,484.9443,215.51718,0.7015428,1.32760298,0.15696744,-1.0179547,0.83765095
133,4433.333333333334,472.11472,188.47856,0.078177616,468.6549,187.22867,0.015228406,471.79904,186.31366,0.0947742,455.27423,191.68562,0.023374857,463.20346,190.1167,0.3671296,447.1643,203.68689,0.4250772,452.69586,198.80371,0.6896222,459.7618,208.16644,0.37532592,473.87997,198.00975,0.7523627,472.27655,192.8722,0.42615154,481.72824,192.94359,0.72927547,444.4455,216.26718,0.7224928,448.6352,217.20755,0.8107809,490.62955,199.5926,0.7016712,492.37967,198.42569,0.81109947,500.40765,224.86197,0.6656536,499.91458,226.84344,0.74213666,0.75137226,0.20928991,-0.63744992,0.33825377
134,4466.666666666667,513.9818,221.97516,0.24923135,515.53973,221.53851,0.069393545,515.50867,218.34909,0.30497795,505.1056,221.77127,0.058356937,502.91272,214.46275,0.51440346,477.88336,218.75754,0.56480795,473.4603,213.04282,0.7806963,471.24295,214.49834,0.4413409,467.34106,209.23575,0.7549612,497.68472,213.31451,0.4847808,500.0713,218.04588,0.6977498,451.63217,208.55623,0.7042715,447.66336,209.90616,0.7637964,482.5178,203.89243,0.56491506,481.98785,205.26889,0.65025896,493.13156,218.50378,0.43722528,493.08084,222.37088,0.49171352,0.75137226,0.20928991,-0.63744992,0.33825377
135,4500.0,14.095477,118.96503,0.49992418,14.527279,117.447845,0.5405083,14.529947,117.32759,0.19509603,18.103794,116.50398,0.7303697,20.814754,115.80646,0.15923609,24.74529,121.02545,0.95631677,25.843185,119.87198,0.8682813,33.31722,128.42084,0.89857745,26.874184,128.53748,0.517974,35.880714,128.02951,0.8094055,23.728214,131.52997,0.46428522,31.17875,140.6994,0.9398841,32.683807,139.88449,0.8932768,30.78359,154.89523,0.86265117,32.037792,153.99583,0.75421304,32.342594,167.87256,0.7354574,33.213673,165.46573,0.6229798,1.31076906,1.07150541,-0.27954451,0.70131773
136,4533.333333333333,488.85477,212.69824,0.017244918,489.90414,210.97469,0.0053666933,490.7065,211.839,0.017601652,478.08325,215.61185,0.027959375,480.95874,216.72124,0.09315859,464.7256,221.26231,0.1957757,457.27356,222.31259,0.28136647,456.746,214.57092,0.29698154,453.3974,213.07993,0.40611205,501.4171,221.99619,0.41399294,504.15088,222.41461,0.4518127,461.072,220.58449,0.48976085,457.30402,224.66006,0.5211512,450.90582,204.16699,0.5081099,445.13162,209.25917,0.5020551,496.5538,218.0478,0.49130255,497.56873,223.06847,0.46956775,1.10277869,0.71065226,-0.1265074,0.83372062
137,4566.666666666666,525.26245,230.69386,0.045196038,528.27515,229.98029,0.017134322,529.59045,229.24081,0.042119805,517.0316,232.60388,0.062111065,520.7148,229.0339,0.14375931,491.78574,229.83862,0.37245205,483.2867,226.60645,0.3721457,469.35858,214.50531,0.48278707,454.4289,209.66028,0.412019,503.35965,219.6146,0.57541186,503.88425,219.54944,0.4603259,462.69528,215.39062,0.56055236,458.27066,217.1228,0.5166103,444.62854,203.38596,0.5083444,438.51337,207.7729,0.42024142,487.2165,215.01817,0.42735365,489.9949,219.82101,0.35393378,0.57770799,0.57481033,-0.05698974,-0.00958017
138,4600.0,529.6554,231.43811,0.38457203,532.7018,230.7742,0.1821839,531.7021,227.96614,0.45629203,525.4579,231.2877,0.1525549,523.28467,225.09708,0.53383255,497.19046,229.71304,0.6150524,496.66937,220.6622,0.67205805,485.2593,221.14777,0.46478608,478.00165,209.33762,0.5676803,502.69305,220.6294,0.50893706,502.18497,217.55533,0.5689392,446.84268,209.7766,0.5155546,446.54932,207.72792,0.51735044,480.69464,205.63647,0.4131627,477.20462,207.37779,0.4298244,472.6318,208.556,0.34863514,471.70255,216.70255,0.3424712,1.27666985,1.26581095,0.03168826,0.16310857
139,4633.333333333334,526.7745,231.894,0.3361198,529.7236,232.01952,0.15139611,529.8483,228.23819,0.40521395,520.7057,231.10745,0.122084394,519.6801,222.28093,0.5035094,490.5177,224.95917,0.603403,487.9088,215.17348,0.6487853,478.98682,219.9514,0.4696812,469.11972,207.76431,0.53508306,502.50946,217.81567,0.50457597,503.23218,218.34622,0.52644664,449.71863,207.11015,0.5299945,448.18124,206.4609,0.50449556,483.74454,204.5092,0.4122069,482.01816,206.40265,0.3977678,488.90717,212.78824,0.3246413,491.28784,219.51941,0.3050165,1.10370246,0.67257721,0.35397508,0.80031284
140,4666.666666666667,460.8967,189.29034,0.027244637,457.96945,187.16321,0.0071758116,461.2416,187.48889,0.0324563,446.74777,190.24738,0.024510223,455.70776,191.97269,0.17283848,443.87714,202.3888,0.22091551,448.12048,203.323,0.45397165,455.61972,210.00961,0.21716294,468.76944,209.46307,0.57877,491.02383,209.77515,0.2769859,504.16272,216.77524,0.5486635,456.70096,209.47122,0.5546496,460.57074,213.86795,0.67022043,490.13675,201.24432,0.5675806,492.61652,204.58571,0.6933088,507.48157,224.00926,0.55395883,507.4137,229.79498,0.6332974,1.14597749,0.75929005,0.23213494,0.82635126
141,4700.0,461.852,187.39484,0.029413313,459.25653,185.4335,0.008524644,462.53464,185.92966,0.033471774,448.63968,189.49393,0.037037965,459.1928,191.52435,0.19585049,444.495,202.06253,0.2786034,454.235,204.20277,0.51541406,451.82498,209.98724,0.24572743,479.16318,212.72627,0.5901993,480.61343,203.83502,0.2784349,512.2202,219.42519,0.5223434,457.6117,208.60622,0.5990727,464.37515,213.15985,0.7020136,490.04968,208.0524,0.5801895,493.95026,211.04726,0.6948152,512.04724,226.52069,0.5392906,511.84128,232.03168,0.6139801,1.09913631,0.80866479,0.21444847,0.71286307
142,4733.333333333333,452.27127,185.82758,0.04343616,450.16705,184.16405,0.016876698,452.38873,184.98932,0.03980058,443.21783,189.2227,0.05597786,450.48682,191.68436,0.15388004,443.37906,200.6831,0.34216648,447.2177,202.31274,0.48412365,447.94363,204.54927,0.31592333,463.0771,204.64209,0.5189995,467.12085,192.28958,0.32746324,485.15225,200.47978,0.4779809,462.39178,209.16235,0.64632285,465.51477,213.5506,0.7042029,492.12744,204.69185,0.65125793,494.2119,207.47131,0.7168213,514.6194,226.44572,0.62419736,515.7811,230.75899,0.6682178,1.06162642,0.76985281,0.09432785,0.72489969
143,4766.666666666667,450.5227,185.72787,0.040423475,448.00208,183.48593,0.017821675,450.34464,184.76547,0.039033335,441.34833,187.65002,0.055301834,448.26694,191.40805,0.13435954,447.82703,199.5734,0.26586512,445.15338,203.35779,0.40283683,453.15253,202.2704,0.22947155,455.59357,205.73424,0.42926362,466.64682,190.76993,0.256216,474.71686,194.35608,0.4245169,471.74777,212.50897,0.5447836,471.23407,217.33322,0.6284357,497.55713,205.78009,0.62286717,498.61172,208.02335,0.7084028,516.08813,227.02437,0.64942926,521.0827,230.16667,0.7035864,1.07083012,0.80252365,-0.00687807,0.70893274
144,4800.0,448.37592,186.98486,0.030774808,445.46533,184.33147,0.012338646,448.52948,185.60336,0.030822963,437.6519,187.26755,0.04344943,446.47696,191.1741,0.12513505,445.46042,199.17429,0.23597077,440.77194,203.6045,0.39400634,450.79477,204.3992,0.2146877,448.1565,209.34717,0.4509362,466.9779,192.97142,0.2472547,472.6856,197.2239,0.4449596,471.45776,215.36153,0.5222342,469.95694,220.85054,0.6218026,499.51434,204.31198,0.5958003,499.71777,206.8443,0.69700533,516.9988,226.25229,0.6258375,522.26807,229.15428,0.68930537,1.07996916,0.79957591,-0.10022334,0.7190042
146,4866.666666666666,78.3439,118.246956,0.15688333,77.86927,116.8591,0.0497688,78.52157,116.920525,0.14408202,73.39195,115.28337,0.13453144,79.42896,115.40274,0.5382474,70.9069,117.13155,0.8913401,80.47684,117.068016,0.9545251,74.606735,121.072296,0.7089035,93.86069,119.25266,0.9350835,85.774666,122.644714,0.6429235,102.28266,118.57947,0.86881334,70.97913,133.41556,0.9637027,77.19105,133.81548,0.97918624,83.44441,131.34494,0.91796225,89.9211,131.41786,0.9559637,83.45408,143.09175,0.87315935,90.09341,143.1531,0.9181022,1.1221982,0.61804393,-0.0859759,0.93271573
147,4900.0,10.371763,164.62274,0.20255305,10.064591,162.88985,0.047666408,9.999027,162.89148,0.25789958,4.483801,163.79437,0.04298368,8.699818,163.73407,0.5835409,4.859581,170.94955,0.6245551,6.9814787,171.88121,0.88760865,19.529028,174.14828,0.31992012,21.765852,176.0643,0.9023059,33.101093,165.7917,0.33796284,33.36986,166.2275,0.8245915,5.341095,196.64891,0.7990843,6.7385225,197.51997,0.9109789,11.157329,213.8681,0.6118332,12.546413,214.14932,0.82616556,14.82893,228.48578,0.4717029,16.287403,229.32747,0.6709281,1.10227842,0.65513639,-0.09481914,0.88137584
148,4933.333333333334,5.1474075,137.96417,0.18774836,5.224922,135.67976,0.12767301,4.7361264,135.63556,0.11737103,4.4379454,137.82384,0.20788522,6.010599,137.65164,0.18910815,5.900502,152.31442,0.68864775,5.9659023,152.22852,0.61928415,12.142357,169.96895,0.5436554,9.92216,170.82951,0.43213648,14.075929,174.2243,0.45691204,12.053959,176.20549,0.3702948,5.095971,188.0763,0.78448015,5.7877755,188.24777,0.75535786,9.195794,211.11996,0.71752965,10.121956,211.34563,0.6839018,12.519558,232.59697,0.6464682,13.809839,232.75589,0.61974436,1.06536441,0.67184028,-0.20093797,0.80203236
149,4966.666666666667,462.56198,193.04211,0.02043097,461.01648,191.4252,0.009788552,463.50287,192.55981,0.01636296,453.36115,197.52982,0.05850169,462.11548,201.0916,0.08205051,449.92087,209.27705,0.30013916,454.52847,211.50128,0.31071684,438.73254,208.37183,0.33489746,453.40778,207.22446,0.34457093,461.628,191.44865,0.33993167,477.69992,199.10577,0.33546367,467.45197,213.37813,0.61552674,471.42685,218.04587,0.608074,488.9074,208.74403,0.6271021,491.09134,211.56438,0.61462057,516.54626,223.72319,0.5964992,516.2965,226.39923,0.5848808,1.06536441,0.67184028,-0.20093797,0.80203236
150,5000.0,12.647457,132.14313,0.37086666,14.0310335,128.97202,0.2314743,11.07658,128.85085,0.28138086,11.862169,130.07504,0.21963497,9.030636,129.93837,0.30621132,10.5538435,146.12587,0.68020135,8.146179,146.71062,0.67124975,17.48982,168.76689,0.36018926,15.1996565,170.50735,0.36624646,18.767689,168.4435,0.31442443,20.421543,169.55603,0.30405205,7.375817,184.2004,0.635242,6.256979,184.7963,0.63314235,8.930504,211.14606,0.55881494,10.629614,211.60333,0.5619934,15.054577,231.83437,0.45973006,15.873783,232.3068,0.46265313,1.10367908,0.79097832,-0.2341001,0.73325164
