frame_id,timestamp_ms,nose_x,nose_y,nose_conf,left_eye_x,left_eye_y,left_eye_conf,right_eye_x,right_eye_y,right_eye_conf,left_ear_x,left_ear_y,left_ear_conf,right_ear_x,right_ear_y,right_ear_conf,left_shoulder_x,left_shoulder_y,left_shoulder_conf,right_shoulder_x,right_shoulder_y,right_shoulder_conf,left_elbow_x,left_elbow_y,left_elbow_conf,right_elbow_x,right_elbow_y,right_elbow_conf,left_wrist_x,left_wrist_y,left_wrist_conf,right_wrist_x,right_wrist_y,right_wrist_conf,left_hip_x,left_hip_y,left_hip_conf,right_hip_x,right_hip_y,right_hip_conf,left_knee_x,left_knee_y,left_knee_conf,right_knee_x,right_knee_y,right_knee_conf,left_ankle_x,left_ankle_y,left_ankle_conf,right_ankle_x,right_ankle_y,right_ankle_conf,acc_x,acc_y,acc_z,acc_mag
0,0.0,516.1031,61.199776,0.9463539,518.2262,58.382645,0.94008416,513.7304,59.17685,0.8426795,523.1282,58.86505,0.84988946,511.5518,60.987854,0.45624742,531.083,72.92638,0.99410653,511.00787,74.855286,0.98973095,540.6298,91.35358,0.9758018,507.87796,89.11027,0.90854603,542.2216,107.05211,0.9546918,507.79678,90.2102,0.873804,531.769,109.252426,0.9934402,519.53094,110.394226,0.99117225,533.2392,137.1853,0.97939944,525.3373,138.36707,0.96786827,533.9821,162.87878,0.94170994,529.78357,163.90268,0.92035705,1.01416415,0.14861549,1.00321598,0.00024565
1,33.333333333333336,515.88666,61.110443,0.94889396,518.01996,58.273537,0.94288594,513.4618,59.076828,0.84935063,522.94727,58.790245,0.8534247,511.27112,60.92633,0.4647299,530.9514,73.008766,0.9941935,510.8284,74.91026,0.99006176,540.61346,91.47489,0.97551763,507.52112,89.155205,0.9095988,542.0527,107.28936,0.9543715,507.55203,90.41861,0.87502587,531.67737,109.431595,0.9933288,519.4837,110.54451,0.9911186,532.29517,137.34183,0.9791196,525.1803,138.49951,0.9676811,532.23413,163.20648,0.9412218,529.4835,164.21367,0.92015433,1.00693781,0.14566775,0.9963379,0.00393033
2,66.66666666666667,515.6886,61.160667,0.9526705,517.8141,58.306534,0.9469666,513.22876,59.130432,0.8593831,522.79865,58.83242,0.85956657,511.07825,60.989784,0.47921497,531.178,73.26342,0.99452055,510.55865,75.04581,0.9909428,540.92834,92.086296,0.9761621,506.9629,89.35973,0.91603494,542.0209,107.97614,0.9552972,507.59396,90.46752,0.8817337,531.981,109.74141,0.9932908,519.46747,110.76391,0.99125624,531.73645,137.42674,0.9780352,524.3811,138.4833,0.9666157,530.89246,162.99173,0.93702847,528.39154,163.88072,0.91570055,0.99564418,0.15303711,0.98380999,0.00221081
3,100.0,515.59235,60.764587,0.94732124,517.7639,57.97184,0.9340465,513.1434,58.639786,0.8472587,522.74426,58.668396,0.83587307,511.09354,60.43029,0.47795412,531.40015,73.547585,0.9941121,510.11462,74.57411,0.9913017,541.54193,93.454994,0.9720148,506.39722,88.69553,0.9259628,541.8708,110.32724,0.94741035,506.9117,90.85015,0.8909658,531.035,110.35095,0.9937151,518.2268,111.04588,0.99255306,530.1596,136.98438,0.9803915,522.4939,137.77786,0.9730535,528.6944,162.5414,0.94383043,526.2221,163.1033,0.9287826,0.98373939,0.18742747,0.96464964,0.04544441
4,133.33333333333334,515.52673,60.437027,0.9478973,517.72437,57.63137,0.93469214,513.0774,58.295685,0.8489449,522.7352,58.424377,0.83688134,511.033,60.171043,0.48069102,531.51154,73.672455,0.994017,510.03687,74.58234,0.9912566,541.4584,94.25394,0.9708727,506.56152,89.06521,0.9247923,541.3616,111.76523,0.94487226,507.01898,91.49106,0.88813156,530.95123,110.78902,0.99329054,517.9957,111.39676,0.9921123,529.5072,137.36426,0.97856206,521.4864,138.06735,0.97078305,528.1774,162.93158,0.93867964,525.3664,163.3994,0.92277336,0.98941147,0.19577942,0.96907126,0.03881198
5,166.66666666666666,515.6398,59.9965,0.9470901,517.8783,57.227837,0.9344497,513.2231,57.819366,0.8432304,522.9077,58.171463,0.83974874,511.21506,59.741577,0.46670598,531.4309,73.71356,0.9939243,510.57748,74.15024,0.9907046,541.37427,94.63435,0.9706025,507.68216,88.22882,0.9189866,540.5553,112.3138,0.9443637,507.40915,90.231346,0.88195074,530.0335,111.06413,0.99320036,517.4407,111.39882,0.9918093,528.41693,138.04239,0.978721,520.8205,138.49686,0.9703245,527.7848,163.85028,0.93980247,524.96857,164.02592,0.92283005,1.00452341,0.23508269,0.97644062,0.01916034
6,200.0,515.5012,59.601532,0.9499956,517.84015,56.774094,0.9500884,513.14075,57.428932,0.83947074,523.1382,57.850647,0.8798568,511.16827,59.626022,0.41641325,531.5988,73.57163,0.9942589,511.07547,74.459724,0.9881479,541.2332,93.582726,0.97597164,508.28198,88.94538,0.8824923,540.44183,110.83267,0.95349187,507.48645,91.378685,0.8443992,530.2029,111.14478,0.9924004,517.6678,111.502365,0.98882586,528.4699,138.97983,0.9768,520.84143,139.38908,0.9600309,527.69196,165.06752,0.9369928,524.6314,165.17319,0.9075797,1.01117892,0.22795897,0.98503821,-0.01473873
7,233.33333333333334,515.6043,58.958282,0.9512147,518.04474,56.061813,0.94849193,513.21,56.70954,0.8500437,523.42554,57.212807,0.87041056,511.1602,58.96158,0.4479593,531.8678,73.33671,0.9944238,510.5456,74.42487,0.9898291,540.9725,94.223045,0.97513527,508.3001,90.48893,0.8990855,540.64453,111.136795,0.952237,507.7238,93.37209,0.8600655,530.15985,111.246,0.9931879,517.1414,111.70355,0.9906509,528.1802,139.45236,0.97953343,520.1829,139.95279,0.96706176,527.2684,166.04066,0.9445212,524.09717,166.26828,0.92230403,1.02363874,0.23778479,0.99510968,-0.0324252
8,266.6666666666667,515.5419,58.28221,0.9505687,518.18066,55.45761,0.9476187,513.3064,55.931366,0.8504908,523.8457,56.848022,0.86912143,511.41028,58.169434,0.45051703,532.08984,73.15219,0.99426067,510.14957,74.069176,0.98980343,540.50195,93.79943,0.97371125,507.5633,91.35556,0.897903,540.4102,110.4919,0.9497603,508.0036,97.878494,0.8564887,529.9393,111.21885,0.9931571,516.5869,111.536804,0.9907041,528.3775,139.65355,0.9799906,520.0602,139.90097,0.96816707,527.11127,166.66379,0.9470826,524.3801,166.48631,0.9264471,1.07104372,0.24539979,1.04178231,-0.04004021
9,300.0,516.0062,57.900177,0.95431465,518.7747,55.097977,0.9512684,513.7376,55.470318,0.86279446,524.5436,56.544304,0.8711572,511.70532,57.605072,0.4637594,532.34827,72.93226,0.9942676,510.4245,73.34718,0.990433,540.4697,93.49866,0.9734774,507.16043,90.0891,0.9048416,540.54803,110.87497,0.95023715,507.50348,97.756805,0.86523384,529.8151,111.19064,0.9930369,516.4737,111.26263,0.99085075,528.6897,139.70361,0.9793432,520.2322,139.66072,0.9681055,527.3,166.91046,0.9458366,524.35315,166.36783,0.92628324,1.07104372,0.24539979,1.04178231,-0.04004021
10,333.3333333333333,516.2227,57.400146,0.95508814,519.0897,54.63379,0.95188236,514.0609,54.877007,0.8648137,524.96967,56.11702,0.87194693,512.06476,56.84417,0.4666726,532.8012,72.66507,0.99449724,510.0419,72.88892,0.99077725,540.7003,93.48619,0.97439575,506.63596,90.64346,0.9067845,540.66156,111.38806,0.9512778,507.10272,100.81807,0.866025,529.8065,111.37901,0.99335265,515.9643,111.36212,0.9912082,529.2397,139.8271,0.9800199,520.14197,139.65837,0.9689501,527.97754,167.13103,0.9472257,524.8077,166.38777,0.9278047,1.0728936,0.26824482,1.03834327,-0.03144262
11,366.66666666666663,516.9214,57.106094,0.95895845,519.8691,54.324017,0.9538373,514.6297,54.48085,0.88022256,525.6746,55.746235,0.86728674,512.304,56.228256,0.50015336,533.16736,72.29724,0.9948402,509.97772,72.200226,0.9923056,540.9047,93.39891,0.9753577,506.43857,90.32819,0.9235256,540.70135,111.58294,0.9537658,506.90283,101.770546,0.88595384,529.7587,111.3267,0.9939658,515.5992,111.15415,0.99250025,529.1887,140.01709,0.9811948,519.47296,139.66092,0.9724367,527.7219,167.42563,0.94908947,523.819,166.4932,0.93320286,1.0693593,0.33972764,1.01377873,-0.01916034
12,400.0,517.48676,56.19715,0.9620248,520.5449,53.467438,0.95588446,515.2149,53.521942,0.88742864,526.2417,55.125847,0.873675,512.6617,55.426605,0.51791567,533.3534,71.6824,0.99577725,509.77542,71.9402,0.99367976,540.86176,92.20212,0.98259693,506.23465,90.98068,0.944256,541.1675,111.38036,0.9682072,505.83545,106.30534,0.9177369,529.6912,110.62514,0.9960128,515.2343,110.603455,0.9949824,528.64246,139.08633,0.9887959,518.48846,138.84494,0.9830957,528.02386,166.10709,0.96581227,522.7843,165.33437,0.9539189,1.06554165,0.32425198,1.01500696,0.00073694
13,433.33333333333337,518.20917,55.742355,0.9643204,521.2534,52.99208,0.9568524,515.7681,53.0701,0.897654,526.7054,54.781662,0.8687085,512.79944,55.118202,0.54494745,533.6054,71.589516,0.9958632,509.67584,71.92984,0.99428636,541.1657,92.281555,0.98249704,505.85504,91.3418,0.95018905,541.222,111.57301,0.96826315,504.59845,107.34925,0.92450184,529.9382,110.819756,0.9960581,515.21606,110.835304,0.9952427,528.2148,139.46307,0.98848253,517.5689,139.25447,0.9832476,528.3721,166.5103,0.964268,522.46564,165.86118,0.9530553,1.1515498,0.18669053,1.13611016,0.0216168
14,466.6666666666667,518.8996,55.165955,0.9665159,521.92523,52.413162,0.9572489,516.35144,52.523453,0.90794075,527.1766,54.34455,0.8616365,513.05695,54.74568,0.57880485,533.70886,71.27957,0.99596965,509.68704,71.81874,0.99497825,541.2178,91.67285,0.9824776,505.58875,91.38478,0.9573763,541.3108,110.32472,0.9686875,504.04315,107.509315,0.93333215,530.11536,110.77747,0.99613273,515.2587,110.89265,0.9955812,527.89014,139.32523,0.9880824,516.7069,139.2118,0.9835328,528.8839,165.92874,0.9621569,522.03235,165.47969,0.9520842,1.27278515,0.3448862,1.22429687,-0.04618134
15,500.0,519.13477,54.36921,0.9695458,522.2089,51.593334,0.9611648,516.4888,51.715256,0.9157531,527.493,53.73438,0.868029,513.06793,54.186512,0.5899132,534.15326,71.0603,0.9963064,509.82343,71.54671,0.99558735,541.79065,91.86731,0.98402566,505.6142,91.1377,0.9628364,541.6435,110.582924,0.9713704,501.9901,106.979324,0.940911,530.1382,110.364365,0.9964296,515.0011,110.38616,0.9960168,527.5132,138.96426,0.9886586,515.405,138.77989,0.9845463,529.0046,165.70767,0.96331537,520.39417,165.23297,0.95393926,1.27278515,0.3448862,1.22429687,-0.04618134
16,533.3333333333334,519.39453,54.13002,0.9710074,522.45795,51.371155,0.9617343,516.76965,51.472885,0.92164934,527.70355,53.45455,0.8648153,513.32446,53.861572,0.6112877,534.3359,70.666176,0.99648154,509.8026,71.19204,0.9961444,542.08795,91.34088,0.98462576,505.45575,91.018265,0.96848184,541.79596,109.728935,0.9726972,501.4422,107.45571,0.9484347,530.058,109.92271,0.99667525,514.77014,109.94241,0.9964593,527.3587,138.51854,0.98910207,514.79944,138.32753,0.9857845,529.08295,165.1922,0.9639821,519.81647,164.75572,0.95616764,0.89677537,-0.0648504,0.89439505,0.00761501
17,566.6666666666666,519.85376,53.30488,0.9722446,522.8222,50.544495,0.96049744,517.1077,50.67318,0.9299766,527.80524,52.79752,0.8509879,513.37866,53.234074,0.6517606,534.4943,70.27324,0.9965391,509.5286,70.80846,0.99674964,542.4326,91.11926,0.98390055,504.97665,90.884735,0.974373,542.27893,109.18699,0.97189593,500.89252,107.19701,0.956015,530.0992,109.373436,0.9969618,514.44916,109.38516,0.9970312,527.2838,138.10225,0.9900669,513.6245,137.91599,0.98812705,528.54736,165.25648,0.9673519,517.7489,164.92986,0.9626913,0.75202569,-0.13068337,0.72883002,0.13142031
18,600.0,519.2923,52.7776,0.9738584,522.2253,50.029037,0.96248025,516.6259,50.262497,0.93578917,527.38,52.086708,0.85193825,513.4481,52.79399,0.67276525,534.3564,69.33501,0.9966714,509.80423,70.18193,0.9971974,542.4217,90.22701,0.98147154,504.9826,90.487816,0.9750768,542.6454,108.59172,0.9658553,500.3527,106.85409,0.9531085,529.91986,108.76844,0.9966145,514.39435,108.87924,0.9968996,528.1527,137.96793,0.98665583,513.1607,137.88454,0.9851798,528.33716,165.77473,0.95795554,515.49347,165.58804,0.95466,1.02585859,-0.04175972,1.0098484,0.17563649
19,633.3333333333333,519.104,52.51849,0.9741478,522.05646,49.734127,0.9626269,516.40955,49.988205,0.9366439,527.3336,51.725098,0.85044396,513.2309,52.49777,0.67429674,534.28253,68.94878,0.9967475,509.66965,69.95298,0.99731594,542.3125,89.74088,0.9817847,504.8526,90.529465,0.9761194,542.8787,107.76934,0.9666504,499.9768,106.99748,0.9549476,529.69226,109.04482,0.9969593,514.0885,109.19026,0.99724686,527.8379,138.93195,0.988345,512.40216,138.88614,0.98716205,528.0094,167.59818,0.96361107,514.2055,167.47025,0.96099037,1.04620407,0.04397053,1.03220214,0.16482809
20,666.6666666666666,519.3683,52.455154,0.9753519,522.2886,49.652645,0.96284235,516.5883,49.93273,0.9415001,527.44684,51.53118,0.8440337,513.22363,52.36759,0.6959884,534.0955,68.498665,0.99689436,509.71088,69.676796,0.9976599,542.15356,88.896034,0.98234826,504.8487,90.13385,0.9797743,543.2542,106.927795,0.9682294,499.85104,106.72429,0.9610247,529.7253,108.78665,0.99730194,514.2127,109.035,0.9976761,527.9278,138.90475,0.98961836,512.29346,138.97073,0.9890956,527.8637,167.88539,0.96733975,513.2626,167.94748,0.9662008,1.0429434,0.13142031,1.02507842,0.14026355
21,700.0,519.22253,52.53129,0.97530746,522.133,49.668297,0.9623487,516.3693,49.972267,0.9418509,527.3154,51.301292,0.83991194,512.9084,52.197792,0.69785786,533.8987,68.01593,0.9969068,509.5343,69.256836,0.99771786,542.1215,88.359406,0.9824569,504.62213,89.682526,0.9805016,543.5464,106.72553,0.96869576,499.58524,106.44908,0.9624396,529.54724,108.48273,0.99749583,514.0414,108.769066,0.9978682,527.96045,138.69014,0.99071515,512.2,138.80069,0.9903571,527.6182,167.94202,0.9711355,512.6387,168.07385,0.9703757,1.15995043,0.35446637,1.10073721,0.09064317
22,733.3333333333333,518.45374,52.35434,0.97452265,521.3464,49.46566,0.96228325,515.66034,49.809696,0.9384951,526.6924,51.013504,0.8446112,512.44025,52.03023,0.6825917,533.7189,67.750885,0.996912,509.245,69.16642,0.997598,542.32715,88.0254,0.9826105,504.47888,89.64145,0.9790252,543.81366,106.31009,0.96869856,499.43524,106.16022,0.96014583,529.53143,108.45044,0.99759954,513.94666,108.79133,0.9978998,528.0244,138.7076,0.99150366,511.9052,138.86769,0.9909271,527.76166,168.27567,0.9741545,512.2263,168.43135,0.97292554,0.96451912,0.27905322,0.90987071,0.15672179
23,766.6666666666667,517.641,52.140453,0.9712247,521.07117,49.460815,0.93204963,514.66,49.665092,0.9232167,527.36444,50.981384,0.80426854,511.65732,51.401867,0.7423346,533.67566,69.03071,0.9938041,508.8488,69.67945,0.9925748,543.56537,88.77537,0.9709189,502.23755,88.82914,0.9639937,544.07947,106.99847,0.9434626,498.6146,106.431435,0.93479896,528.547,109.89533,0.99450666,512.98804,109.91658,0.99396485,526.2375,141.31224,0.98398316,511.24365,141.7614,0.9833325,526.84143,169.93365,0.9442568,513.4392,171.155,0.94394046,0.86320066,0.18988392,0.82192964,0.18300585
24,800.0,517.4521,52.041832,0.9732554,520.4239,49.125107,0.96092016,514.7086,49.42129,0.934025,525.92395,50.78863,0.8447652,511.44196,51.72582,0.6625058,533.4617,67.92822,0.9968359,507.677,69.366295,0.9973711,542.0774,88.49256,0.9848023,502.71017,90.26981,0.97999567,543.93304,106.203766,0.97375023,498.71512,106.64137,0.96422076,528.90796,109.073906,0.997962,512.6982,109.436554,0.9981483,527.2751,140.0711,0.9940236,511.8057,140.2136,0.99336505,526.9556,170.70485,0.98049337,513.18164,170.76373,0.97890526,0.88637705,0.07050024,0.86098727,0.19848152
25,833.3333333333334,516.7018,51.34895,0.97446907,519.7943,48.373466,0.9637267,513.87616,48.69693,0.9358757,525.5125,50.30487,0.8543916,510.60602,51.32305,0.6593855,533.256,67.98428,0.99688524,506.95654,69.513535,0.9972932,541.8712,89.04199,0.9848743,501.9301,90.85859,0.97869337,543.90186,106.98266,0.973513,498.4271,107.29264,0.9620824,528.95795,109.30245,0.99780494,512.3991,109.70845,0.9979588,527.596,140.5902,0.9933322,511.88458,140.74667,0.99243873,527.07666,171.33556,0.9780612,513.4829,171.3591,0.97591645,0.91999255,0.06337652,0.90127312,0.17342568
26,866.6666666666667,516.2033,50.963356,0.97526735,519.3318,47.96472,0.96485525,513.3042,48.30453,0.9380343,525.0759,50.066444,0.8563434,509.95178,51.13127,0.66495967,532.8866,68.01893,0.99693596,506.32123,69.67126,0.99732804,541.5573,89.29363,0.98494995,501.55057,91.35513,0.97873664,543.8065,107.20558,0.9735145,498.21237,107.6235,0.96201915,528.79987,109.35114,0.9977584,512.0485,109.835884,0.9979145,527.6739,140.91704,0.99303985,511.8238,141.15067,0.9921238,526.9991,171.84297,0.97691697,513.3287,171.952,0.97471625,0.91999255,0.06337652,0.90127312,0.17342568
27,900.0,515.79663,50.656628,0.9755148,518.9348,47.601223,0.9646418,512.81537,47.9942,0.93977654,524.6362,49.729492,0.85351914,509.34644,50.935665,0.675549,532.5331,67.86905,0.99690264,505.71606,69.75111,0.997375,541.2587,89.39546,0.9844471,501.295,91.70922,0.9791798,543.481,107.71172,0.9726379,498.14545,107.9183,0.9623743,528.7131,109.4005,0.99766845,511.803,110.02531,0.99786806,527.62463,140.98453,0.9925721,511.8331,141.35287,0.9917721,526.9033,171.74054,0.97521496,513.6457,172.02737,0.97328496,0.98668716,0.1643368,0.95605205,0.18030375
28,933.3333333333334,515.3912,50.658638,0.9753804,518.5261,47.593643,0.964367,512.3888,47.978752,0.9397992,524.18164,49.67798,0.85223174,508.86722,50.86478,0.67718244,532.0987,67.8123,0.9968579,505.1594,69.70943,0.9973162,540.831,89.53675,0.98414445,501.01535,91.85495,0.9786754,543.2899,108.17742,0.97196275,497.9403,108.082016,0.96138805,528.3366,109.320724,0.9975702,511.38446,109.99331,0.99777055,527.5935,141.06215,0.99215466,512.03925,141.48782,0.9913216,526.67145,171.78271,0.9736353,513.8203,172.12485,0.97162306,0.94547408,0.25006706,0.89709715,0.16310857
29,966.6666666666666,514.45654,50.387684,0.9751094,517.51636,47.303886,0.9637469,511.42917,47.740265,0.939269,523.0944,49.414,0.8503868,507.89056,50.726017,0.6784402,531.36926,67.74542,0.9968369,504.08832,69.814224,0.9972473,540.4285,89.83374,0.9838576,500.34842,92.272766,0.9779454,543.01855,109.06558,0.97113323,497.73117,108.38307,0.9599283,527.87964,109.46391,0.9974821,510.74002,110.26297,0.9976713,527.5862,141.5304,0.99170846,512.1128,142.09503,0.9908242,526.5067,172.536,0.9719063,514.20044,173.04657,0.9697705,0.91512382,0.23655656,0.86761969,0.16949535
30,1000.0,513.94653,49.95261,0.96968013,516.8593,46.958023,0.9539783,511.1649,47.332603,0.92272824,522.3551,48.984272,0.8256815,508.10403,50.04324,0.62161607,531.2504,67.43442,0.9956096,503.92426,69.196075,0.99578685,540.67755,90.64441,0.97695947,500.03397,92.10077,0.9675597,544.54535,111.96661,0.9580151,496.5634,109.412575,0.9428898,527.83746,110.199486,0.99589074,510.9633,110.9484,0.99610424,526.90485,142.2821,0.9859805,511.80328,142.90329,0.9842799,526.20135,172.93187,0.9535943,514.27606,173.43109,0.9490052,0.94485343,0.19799022,0.89562327,0.22673074
31,1033.3333333333335,512.87036,49.86004,0.9706693,515.86975,46.870758,0.9580247,510.17148,47.229378,0.9194814,521.6297,48.907185,0.84457326,507.35388,49.942665,0.5916142,530.5036,67.28212,0.9959929,503.378,69.06654,0.9956293,540.0803,90.42529,0.98031384,499.36127,91.99895,0.9651901,544.50354,112.43053,0.96343416,496.4871,109.9445,0.94085705,527.276,110.192,0.9961383,510.55566,110.95225,0.99607074,526.3062,142.39183,0.9867758,511.64502,143.02528,0.9839468,525.85516,173.42282,0.955375,514.4791,173.88281,0.9480605,0.94485343,0.19799022,0.89562327,0.22673074
32,1066.6666666666667,511.67007,49.400543,0.97263914,514.886,46.406887,0.9641004,508.86093,46.6425,0.92723995,520.693,48.73027,0.85370487,505.7565,49.498062,0.6052934,529.36835,67.617584,0.9956903,501.83902,69.13224,0.99516714,539.7442,90.28218,0.97962964,498.24533,92.64921,0.9575174,542.0742,110.37088,0.96422696,495.26794,110.642365,0.9312865,525.66394,110.07007,0.99608374,508.67804,110.556885,0.9957481,525.7172,143.83272,0.98767173,511.32486,144.04498,0.9840096,525.90454,175.89616,0.9604225,515.9378,175.88445,0.9528093,1.00317775,0.29231807,0.9427872,0.17907553
33,1100.0,510.78452,49.32567,0.9735648,514.01654,46.290047,0.9649827,507.90088,46.53022,0.9299642,519.7546,48.417583,0.85514605,504.55017,49.18633,0.61344725,528.14905,67.02236,0.9959615,500.59595,68.56679,0.9955782,538.337,89.616516,0.9810832,496.649,92.04529,0.96157354,540.6614,109.63093,0.9667478,494.0208,110.246925,0.9372013,524.8925,109.85544,0.9964611,507.8047,110.407135,0.9962037,525.2116,143.61548,0.9886875,510.35965,143.8741,0.9854199,525.6693,175.51428,0.96294767,514.866,175.54068,0.955938,1.0069026,0.32154988,0.94303284,0.1454221
34,1133.3333333333333,509.71198,48.34277,0.97422826,512.8649,45.314358,0.96685,506.83215,45.621975,0.9290356,518.4806,47.608875,0.86658335,503.42743,48.538765,0.6037757,526.8647,66.514404,0.99643564,499.49203,68.24814,0.99577016,537.1434,89.01842,0.9837981,495.15897,91.54683,0.9620248,540.0614,109.52156,0.9707563,492.38586,109.73859,0.9385112,524.13385,109.67376,0.9969681,507.13998,110.36775,0.99659723,524.6018,143.38773,0.9903268,509.7314,143.80698,0.9868384,525.7557,175.18845,0.96785194,514.6217,175.3933,0.9601155,1.01501626,0.36159009,0.93050493,0.18349714
35,1166.6666666666667,508.55258,48.160328,0.9754695,511.7985,45.137985,0.9689369,505.75665,45.439907,0.93176526,517.6665,47.31682,0.8734153,502.51062,48.260494,0.6044351,525.89636,65.98012,0.99666554,498.51047,67.731186,0.9960814,535.8912,88.12607,0.9851811,493.31854,90.58249,0.96527416,539.3115,108.71073,0.97319084,490.7219,109.06718,0.94345254,523.1468,109.35244,0.99719787,506.15033,110.06752,0.9968712,524.26074,143.19768,0.990802,509.17282,143.61,0.9874955,525.6546,175.07988,0.9687284,514.21686,175.23886,0.96116984,1.07558368,0.51069687,0.92706589,0.1913578
36,1200.0,507.26874,47.727158,0.9737812,510.45273,44.660877,0.96749264,504.493,45.031815,0.92733395,516.3694,46.713177,0.87254703,501.34512,47.82526,0.5933877,525.22253,65.342064,0.9964682,496.96588,67.58881,0.99567527,535.1531,87.37015,0.98407793,491.34216,91.27288,0.9608377,538.3184,107.94476,0.9707766,489.18286,110.93842,0.9363669,523.14124,109.05422,0.9970392,505.58926,110.020134,0.99661463,524.38116,142.88376,0.990612,508.6571,143.52756,0.98695534,524.93604,174.89804,0.9688288,513.39264,175.27052,0.96066725,2.03731108,0.53280496,1.9499335,0.25399738
37,1233.3333333333335,506.5833,47.145145,0.9736298,509.62375,44.02292,0.96383214,503.59015,44.487705,0.9344042,515.12585,46.176018,0.84840804,499.99576,47.49266,0.6448656,524.2259,65.00814,0.9960913,495.4053,67.64682,0.99606556,534.53546,87.30837,0.98042494,490.20465,91.79761,0.9659285,537.30634,108.09579,0.9649347,487.90408,111.29734,0.9414491,523.15125,108.429054,0.996819,505.1695,109.684875,0.99674726,524.6509,142.44704,0.989876,508.40854,143.38646,0.98756915,525.1323,174.5717,0.96708775,513.10364,175.37299,0.9620247,1.14282372,-0.03291649,1.14225129,0.01498437
38,1266.6666666666665,506.4899,47.30412,0.9748137,509.3994,44.10814,0.9632219,503.27182,44.691433,0.9408465,514.5965,46.164288,0.8363361,499.23477,47.768417,0.67860967,523.71246,64.90735,0.99607396,494.67917,67.81882,0.9965005,534.1011,87.240555,0.979428,489.2884,91.67548,0.97071695,536.4483,108.25136,0.9636679,486.8161,110.437904,0.9479482,523.10614,108.329124,0.99680376,504.90756,109.7637,0.9969476,524.99176,142.42328,0.98933965,508.20718,143.56088,0.98782235,525.1247,174.42728,0.96483076,512.4343,175.56131,0.9614986,0.98895649,0.02235374,0.97275594,0.17686472
39,1300.0,505.90482,46.826675,0.97718835,508.79053,43.604504,0.96533257,502.61987,44.23771,0.9482037,513.99713,45.772285,0.8353991,498.55597,47.513744,0.70830595,523.4237,64.82277,0.99628013,493.9847,67.81068,0.99714357,533.62006,87.5448,0.979483,487.81042,91.78121,0.9767716,535.5245,108.370056,0.9640284,483.95328,110.47281,0.95663303,523.0296,108.11114,0.9969501,504.58527,109.565575,0.99732214,524.8529,142.59846,0.98924446,507.8423,143.75073,0.9886513,524.69666,174.93433,0.96355605,511.8093,176.10637,0.9622923,0.77179373,0.0054042,0.72809308,0.25596255
40,1333.3333333333333,505.02393,46.857067,0.97657937,508.0103,43.672688,0.96650285,501.88348,44.25761,0.9440775,513.55536,45.874744,0.8486626,498.2052,47.49827,0.68151844,523.2278,65.06802,0.9963325,493.68472,67.66314,0.99693346,533.29803,87.776215,0.98036295,486.71533,90.95904,0.97440255,535.14526,108.76434,0.9651266,483.30502,109.57614,0.95342416,522.5208,108.5027,0.9970149,504.0812,109.736755,0.9972548,524.557,142.64417,0.98981535,507.71646,143.54218,0.9887067,524.13446,174.93312,0.9660569,511.90488,175.6924,0.9635403,0.69549634,0.13707016,0.6811748,0.03046003
41,1366.6666666666667,504.03256,46.436073,0.9778374,507.1282,43.26921,0.9701198,501.01266,43.806625,0.9428782,513.0163,45.441845,0.8667984,497.6877,46.962193,0.65700436,522.83374,64.686035,0.99666995,493.4078,66.97562,0.9970209,532.62994,87.61771,0.98324317,485.80896,89.87583,0.97480124,534.40845,108.67099,0.9700487,481.9033,108.215225,0.95543736,522.0825,108.272865,0.99727565,503.88614,109.33974,0.99740076,523.3038,142.77051,0.9907114,507.9664,143.4953,0.9891672,522.7347,175.6224,0.9680935,512.8225,176.08508,0.9644005,0.97680346,0.22132654,0.93640042,-0.16826713
42,1400.0,503.77557,45.902447,0.97961557,506.88776,42.774494,0.9717765,500.76306,43.248875,0.9480992,512.6818,45.042328,0.867232,497.33328,46.406834,0.67642283,522.5843,64.52103,0.99688834,492.79315,66.50491,0.99741673,532.8244,87.517784,0.98407966,484.78384,88.88304,0.9785494,534.0721,108.358665,0.9717391,479.7544,106.629944,0.96130645,521.3844,108.634796,0.9974661,503.1102,109.57393,0.99768126,522.29114,143.5647,0.9908852,508.0708,144.1883,0.98978114,521.51953,176.87012,0.96746475,513.5546,177.23758,0.9646837,1.11363758,0.1021885,1.10859787,-0.02751229
43,1433.3333333333333,503.1742,45.296196,0.97935486,506.37292,42.165123,0.97186637,500.24054,42.567036,0.94640046,512.3342,44.42863,0.86929077,496.92416,45.623676,0.6647676,522.31683,64.08762,0.99688125,492.23788,65.83877,0.9973609,532.41583,87.43977,0.9842306,483.90176,88.45368,0.978001,533.54956,107.85522,0.97202456,478.1026,106.20309,0.9607204,520.5536,108.733116,0.99755543,502.30518,109.54498,0.997738,521.0711,144.31252,0.9914533,508.26672,144.81796,0.99028605,519.96155,178.54565,0.969341,514.4329,178.7189,0.966335,0.86422985,-0.04470747,0.8590221,0.08351945
44,1466.6666666666665,503.0748,44.913254,0.978682,506.2448,41.789932,0.9712877,500.1842,42.17236,0.94419885,512.1219,43.969315,0.8687853,496.83865,45.103504,0.6542943,522.0152,63.64633,0.9968225,491.9866,65.25222,0.99723095,532.1869,86.978806,0.98422885,483.05817,87.55008,0.97689897,533.2244,107.34221,0.97201014,476.85645,104.95152,0.95928556,519.98114,108.86205,0.9975968,501.87238,109.622025,0.99773574,519.8806,144.67447,0.9918094,507.95117,145.16652,0.9904807,518.6508,179.24203,0.97062856,514.34296,179.40962,0.9671692,0.95073128,-0.01547566,0.94868269,0.06042878
45,1500.0,502.35553,44.658344,0.9791043,505.61212,41.505062,0.97260284,499.50888,41.879604,0.9435959,511.76804,43.649597,0.8745826,496.3733,44.78703,0.64137393,521.7625,63.528137,0.9968225,491.80167,65.02473,0.9971414,531.91614,87.104904,0.984475,482.6976,87.20358,0.97598404,533.08984,107.83069,0.9723839,475.6312,104.51915,0.9582558,519.4452,109.38067,0.99752814,501.46783,110.05677,0.9976332,518.9558,145.36154,0.9914368,507.7873,145.77798,0.98986876,517.80853,180.00198,0.9690185,514.4197,180.0376,0.9649122,1.05581822,0.08769542,1.05185377,0.02579277
46,1533.3333333333335,501.75906,44.14623,0.97950226,505.12027,40.95123,0.9741824,498.92407,41.33568,0.9427895,511.59714,43.1637,0.88252145,495.95575,44.341713,0.62583,521.8014,63.364807,0.99683654,491.50076,64.80536,0.99697125,531.8018,87.354034,0.9847466,482.03943,87.0804,0.9739852,532.976,108.164154,0.972507,474.75293,104.02218,0.9554374,519.14,109.88909,0.99739826,500.98383,110.496,0.9974247,518.3115,146.35272,0.9907059,507.34995,146.71231,0.9886241,516.8325,181.31668,0.9657894,513.95435,181.24377,0.9603108,0.95744021,0.07320234,0.95408689,-0.0324252
47,1566.6666666666667,502.07977,43.663364,0.9795806,505.44925,40.479523,0.97356445,499.1657,40.831394,0.9443669,511.77374,42.87539,0.8772884,495.9382,43.94793,0.6370821,521.65546,63.369186,0.99679154,491.3958,64.52118,0.99704224,531.5604,87.910385,0.9842614,482.10913,86.81642,0.9749018,532.7938,109.269615,0.97177494,474.6597,103.62547,0.9565592,518.53864,109.997154,0.99740344,500.39838,110.47938,0.99748516,517.41296,146.84932,0.9907148,506.65887,147.11432,0.988896,516.2218,182.3571,0.9658212,513.4684,182.22708,0.96096706,0.96017536,0.14493081,0.94917398,0.00073694
48,1600.0,502.267,43.209713,0.9797258,505.63522,40.023983,0.97340924,499.3036,40.366055,0.9453428,511.87003,42.53436,0.8753005,495.93536,43.583336,0.64325315,521.6378,63.276108,0.9967796,491.4027,64.32739,0.9970696,531.5966,88.1077,0.9840695,482.4816,86.626686,0.97521305,532.5156,109.9483,0.97147954,474.96957,103.41355,0.95693356,518.2554,110.17711,0.9973763,500.06735,110.61428,0.9974794,517.22235,147.14977,0.9904993,506.2498,147.38971,0.988756,516.1259,182.75113,0.9649992,512.90424,182.63176,0.9603297,0.98271897,0.27684241,0.9427872,0.01572131
49,1633.3333333333333,502.82516,42.14676,0.9785138,506.50043,38.843994,0.9710994,499.878,39.07074,0.9446303,512.91223,41.596756,0.86437243,496.23743,42.36119,0.64748544,522.10156,63.176834,0.99665123,490.68854,64.1281,0.99702793,531.36676,88.22896,0.9849027,481.49054,86.80655,0.97793055,534.03064,110.86598,0.9736927,475.22546,103.9766,0.96204555,517.88403,111.42727,0.9979372,499.0225,111.943726,0.9980393,517.372,148.07147,0.9939388,506.23965,148.3892,0.99290717,515.7562,182.97571,0.9775302,512.43774,182.8942,0.9746481,0.99849012,0.339482,0.93861122,0.02726664
50,1666.6666666666667,503.40213,41.49061,0.9786502,507.15244,38.180878,0.97131574,500.42877,38.355675,0.94507825,513.5332,41.17662,0.8648074,496.60352,41.79013,0.6483575,522.4291,63.27056,0.9966804,490.839,63.94931,0.9970072,531.609,88.85187,0.9850567,481.79257,86.7457,0.97758776,534.29517,112.26291,0.9738799,475.42044,104.089005,0.96156883,517.7312,111.980896,0.9979354,498.70898,112.38355,0.99802136,516.96716,148.68855,0.9938651,505.68027,148.92711,0.992751,515.77026,183.57515,0.97727644,512.12695,183.43188,0.97415876,1.00931108,0.37927656,0.93492654,0.02775793
51,1700.0,503.95285,41.170303,0.9786436,507.7844,37.868103,0.97161794,501.00204,37.965088,0.9448468,514.24316,40.934875,0.8665643,497.1,41.309074,0.64439934,523.01483,63.269287,0.99658245,490.9297,63.544617,0.9968566,531.6783,89.57099,0.98457587,481.70023,86.74658,0.9761704,534.04,113.54651,0.97285765,475.81992,104.73241,0.95917416,517.9526,112.27026,0.99776137,498.53616,112.47727,0.9978295,516.74036,149.26422,0.9932073,504.7266,149.31032,0.9918612,515.9764,184.32788,0.97471535,511.53027,183.93773,0.9709367,1.07804112,0.38738286,1.00567243,0.027021
52,1733.3333333333335,505.0192,40.52128,0.977949,508.77484,37.219994,0.96921,502.0063,37.29168,0.9453982,514.89825,40.279633,0.85370034,497.7534,40.55191,0.65954334,523.3699,62.746353,0.9964378,491.07385,62.952896,0.99688053,531.8956,89.54196,0.9835945,482.1926,86.8368,0.97675306,533.94666,114.11709,0.97143453,476.6999,105.77963,0.95961535,517.96063,112.09282,0.9977623,498.40027,112.31713,0.997883,516.78235,149.53093,0.99328196,504.75455,149.62039,0.99217343,516.30316,185.0613,0.9750249,512.05206,184.7973,0.97185826,1.03570188,0.30902196,0.98847725,0.00982582
53,1766.6666666666665,505.55475,39.212227,0.9765662,509.2679,35.89319,0.96599245,502.48553,35.996346,0.94485956,515.30896,39.237213,0.83907115,498.09274,39.55722,0.6721998,523.8072,62.268494,0.99607676,491.08456,62.647995,0.9967372,532.0815,89.60079,0.9810172,482.32324,87.63425,0.97582734,534.3045,114.59455,0.9672551,477.6219,107.79599,0.95725834,518.30334,112.0083,0.99760604,498.47513,112.31422,0.99779785,517.08484,150.0149,0.9930306,504.94022,150.18958,0.9921692,516.0373,186.33948,0.97477156,512.1379,186.21646,0.97233754,1.00028319,0.17391697,0.98356434,0.054042
54,1800.0,505.9429,38.485588,0.97827744,509.79416,35.131996,0.9688502,502.80902,35.207558,0.94823486,516.02344,38.463593,0.8476869,498.43692,38.748276,0.6762854,524.3118,61.61489,0.9961934,491.77286,61.928764,0.99683183,532.5212,89.03788,0.98150957,483.42233,86.98149,0.9761202,534.62524,114.68913,0.9683243,478.89,107.89304,0.95802176,518.5447,111.69658,0.9975641,498.784,111.927444,0.9977585,517.1946,149.79309,0.99280703,504.96854,149.86188,0.9919012,515.99896,186.07382,0.9738686,511.80502,185.82391,0.9713472,1.05563838,0.088678,1.05087119,0.04667263
55,1833.3333333333333,507.14105,38.321648,0.97851676,511.02548,34.935898,0.96751326,503.82904,34.94748,0.95140845,516.94934,38.12703,0.83417606,498.85767,38.191544,0.6979564,524.54877,61.02925,0.99604213,491.8389,61.16391,0.9969146,532.9967,88.10693,0.9804135,483.6321,86.29443,0.97735345,535.03735,113.414406,0.9670971,480.57928,107.838486,0.9595851,518.93463,111.99132,0.9974994,498.88535,112.17149,0.99777335,516.9942,149.98956,0.9924089,503.60468,149.96829,0.9917277,516.63104,185.75574,0.97223455,510.6912,185.46124,0.9702837,1.06526076,0.11225997,1.0584862,0.04225102
56,1866.6666666666667,507.5524,37.411606,0.9786275,511.60855,33.96228,0.9687344,504.22546,33.930725,0.95079917,517.80554,37.027374,0.8406016,499.27106,36.970802,0.6860987,525.30255,59.978287,0.9960912,492.05408,60.01819,0.996808,533.564,87.11057,0.98128945,483.91864,85.45041,0.97644114,535.82385,113.04881,0.96844596,481.68875,108.04061,0.9584612,519.4196,111.903946,0.9975521,498.8323,111.996,0.997761,517.21436,149.59656,0.9925653,501.8896,149.4505,0.99163014,517.12006,184.81627,0.97295535,508.38892,184.34915,0.97038597,1.04682541,0.2773337,1.00935711,0.01129969
57,1900.0,508.21964,36.934837,0.97852635,512.1432,33.42363,0.96625614,504.72433,33.475563,0.9535893,518.0506,36.395775,0.8199918,499.33606,36.51085,0.71160924,525.50903,59.25911,0.99588627,491.97473,59.67772,0.99695635,534.61774,86.00732,0.9793562,484.18658,85.51242,0.978221,536.85114,112.11324,0.9659058,482.60123,109.0592,0.9605764,520.0271,112.0163,0.99756706,499.15067,112.28382,0.9978928,517.13196,149.7276,0.99259585,500.86902,149.7431,0.9921376,517.7553,184.82637,0.97330916,507.79684,184.67245,0.9720091,1.04676094,0.43847711,0.94327849,-0.11692723
58,1933.3333333333333,509.7196,35.755196,0.9781927,513.48303,32.20961,0.9631905,506.05075,32.259262,0.9557143,518.9044,35.415306,0.79732907,499.99942,35.443756,0.73611766,526.11206,58.84365,0.99571925,492.02112,59.215927,0.99700975,535.59045,86.040375,0.97736007,484.44183,85.73375,0.9786799,537.5721,112.618835,0.96296215,483.28345,109.799095,0.96066684,520.5049,112.27805,0.99754876,499.19754,112.59039,0.9979406,517.1966,150.0205,0.9925545,500.4986,150.16917,0.99237156,517.31866,184.87933,0.9734222,506.87463,185.02286,0.97285765,1.24940412,0.26873611,1.2201209,0.00982582
59,1966.6666666666665,510.3953,34.65438,0.97652996,514.2453,31.045944,0.9630153,506.58633,31.022415,0.9455639,519.8672,34.47599,0.81666404,500.18362,34.37393,0.66987354,526.98456,58.292267,0.99590707,492.69434,58.534622,0.99595815,535.73444,86.400345,0.9803242,485.79758,86.00889,0.9692309,538.15137,112.097916,0.9655276,484.34747,109.45865,0.9475375,520.40466,111.85894,0.99732935,498.96335,112.05998,0.9973236,516.58044,151.37772,0.99227285,500.25528,151.5269,0.9905629,516.6135,188.0808,0.9717845,505.76877,188.15186,0.9668605,1.33935447,0.22304606,1.32034424,-0.02849487
60,2000.0,510.85898,33.903374,0.9775025,514.80804,30.249321,0.96509826,507.0074,30.202065,0.94771004,520.52545,33.66858,0.8227655,500.5603,33.503983,0.67147684,527.6712,57.709747,0.9961073,492.92014,57.894028,0.99611914,536.57495,86.0724,0.98148865,486.0006,85.65255,0.9703016,539.5776,112.290924,0.9673643,484.4402,109.533325,0.9491835,520.69556,111.879974,0.9974874,498.91278,112.03043,0.99746597,516.9116,151.72221,0.9926192,499.81296,151.81717,0.99090815,516.4387,188.59662,0.97272927,504.48523,188.60907,0.96780884,1.01131353,0.02947745,1.01058534,-0.02456454
61,2033.3333333333333,511.0145,33.34884,0.9782159,515.016,29.66082,0.9664406,507.13196,29.580688,0.9492596,520.7206,32.963425,0.8255305,500.5792,32.706886,0.6732465,527.7445,56.937683,0.9963102,492.6071,57.251106,0.9962308,536.7708,85.05224,0.98278296,485.63745,85.31359,0.9709482,540.6873,111.7184,0.9694625,484.0583,109.91267,0.950393,520.7422,111.75995,0.9976792,498.69067,112.005295,0.99762267,517.05676,151.79529,0.9931298,499.4712,152.0132,0.9913812,515.582,188.66563,0.97424656,502.75317,188.83759,0.9692481,0.8745147,-0.17121487,0.84723112,0.13289418
62,2066.666666666667,510.97244,31.9403,0.978299,515.09937,28.21038,0.9673496,507.0895,28.113457,0.94917053,521.00726,31.557312,0.8299046,500.6738,31.304642,0.6669823,528.18115,55.727394,0.99633235,492.73422,56.296906,0.9961701,537.5136,83.604126,0.98299396,485.8987,84.90236,0.97028226,541.78345,109.77267,0.9697725,483.9965,109.99492,0.9494173,520.82263,111.37121,0.9977564,498.56882,111.673004,0.9976724,517.13245,151.99251,0.9934563,499.24146,152.25406,0.99168795,514.64844,189.31952,0.97548556,501.27078,189.52261,0.97052133,1.06274683,-0.04691828,1.04620393,0.18079504
63,2100.0,509.97455,32.580154,0.9797305,514.36426,29.489983,0.9351152,505.9142,29.285004,0.9503766,520.4496,33.08699,0.7417441,499.72995,32.774704,0.80818194,527.5184,57.23089,0.99225885,492.38028,58.0094,0.99615943,538.66907,83.4068,0.96376824,484.24805,86.65881,0.9833761,542.5435,108.31762,0.9466261,482.31717,109.94562,0.96978635,520.0529,112.351845,0.995804,497.87015,112.10006,0.99690944,517.3453,153.46692,0.99068403,497.27832,151.69019,0.99348724,514.5395,190.2372,0.969927,500.06577,188.84232,0.9768242,1.15891015,0.23557398,1.12702128,0.1319116
64,2133.3333333333335,509.69897,31.84169,0.9799122,514.2573,28.731758,0.93155956,505.9328,28.587189,0.95240337,520.7227,32.05191,0.72739834,499.96393,31.60727,0.8055539,528.01294,55.89476,0.99259925,492.76587,57.506348,0.9956696,539.77576,82.442604,0.9653094,485.20877,86.86989,0.98318416,543.63995,107.9742,0.9468491,483.228,109.72809,0.9695845,520.1764,112.18197,0.99570966,497.97534,112.5019,0.99681264,517.7668,152.84108,0.9894639,496.14474,152.69537,0.9925154,515.3235,190.94176,0.9638244,498.25027,191.76025,0.97150224,1.15891015,0.23557398,1.12702128,0.1319116
65,2166.6666666666665,509.38248,31.594368,0.9796705,513.9915,28.333916,0.9338106,505.54883,28.26577,0.9486934,520.6433,31.364143,0.7398002,499.5426,31.106667,0.78601384,527.86523,55.33539,0.9933061,492.71222,57.150925,0.9952898,540.24255,82.42125,0.9698176,484.8183,87.07866,0.9814291,544.294,107.32347,0.9526373,482.79242,110.07963,0.9677164,520.21655,112.46532,0.99623436,498.10785,113.00239,0.9969318,517.3204,153.39386,0.991059,496.22394,154.34871,0.99305105,515.112,192.4149,0.96854615,498.0498,194.80045,0.97371495,1.02334457,0.2557169,0.98135353,0.13707016
66,2200.0,508.92734,31.295074,0.97935814,513.5614,27.952728,0.93386745,505.08456,27.948425,0.94622713,520.33704,30.810379,0.7446119,499.145,30.70134,0.7757422,527.75916,54.807167,0.9936639,492.43085,56.900665,0.99519193,540.6206,82.1062,0.97197443,484.42407,87.23569,0.9810129,544.6083,107.10359,0.9554826,482.35535,110.40026,0.96741396,520.14374,112.91629,0.99658716,497.9546,113.59777,0.99711394,516.8687,154.19403,0.992071,496.05188,155.62698,0.99361515,514.86725,194.0921,0.971659,498.12106,197.10095,0.975774,1.02334457,0.2557169,0.98135353,0.13707016
67,2233.3333333333335,508.36514,31.06858,0.9799763,513.1258,27.679314,0.9357241,504.51505,27.71466,0.94802535,520.25964,30.491669,0.7483601,498.7839,30.439285,0.7780696,527.7967,54.641945,0.99364305,492.14545,56.776672,0.9953585,540.9765,82.23514,0.9716144,483.61,87.16459,0.98182076,545.2514,107.55536,0.95540816,482.05066,110.67225,0.96867496,520.21344,112.99068,0.9966558,497.82547,113.85153,0.9972326,517.4217,154.15627,0.99222386,496.26868,156.55038,0.9939017,514.80963,193.92416,0.97207254,497.62994,198.64001,0.9765029,0.90946451,0.17293439,0.87376083,0.18374279
68,2266.6666666666665,508.01407,30.866722,0.9815497,512.721,27.41994,0.94657445,503.90256,27.426746,0.9457359,519.9681,29.974113,0.8137364,498.38394,29.999645,0.79588765,527.7134,54.44333,0.99664694,492.3047,55.719917,0.9968945,541.9187,83.146385,0.9815128,483.26904,85.945045,0.9828131,544.83887,107.4281,0.96309805,481.87628,111.22239,0.96503854,520.613,112.75787,0.9987154,498.24,113.284065,0.99870706,518.2314,154.91705,0.99692804,497.11917,157.698,0.9972053,514.503,194.36551,0.9876715,498.891,200.31888,0.9887815,0.88593689,0.11373384,0.8644263,0.15721308
69,2300.0,507.39975,30.494217,0.98174495,512.2278,27.028728,0.9475848,503.32562,26.964039,0.9453102,519.65436,29.56242,0.8176852,497.8477,29.413986,0.7919591,527.3133,54.20386,0.99679285,491.79327,55.4766,0.996915,541.9291,83.228035,0.9823852,482.905,85.98096,0.9828554,545.1545,108.141075,0.96456105,481.32596,111.29098,0.9653139,520.38654,112.91699,0.99881846,497.9404,113.53407,0.9987897,518.60834,154.94305,0.9972312,497.12427,158.21265,0.9974463,514.70667,194.86594,0.98890007,498.7843,201.76591,0.989806,0.88494331,0.02186244,0.87081308,0.15598485
70,2333.3333333333335,506.91098,30.272682,0.9815765,511.79834,26.887474,0.9479193,502.94092,26.722286,0.9432873,519.29614,29.517174,0.82124126,497.60016,29.153275,0.78384864,526.7618,53.98437,0.99692684,491.66516,55.474155,0.9968585,541.6303,82.64296,0.98347026,482.70624,86.09683,0.9825921,545.2095,108.064064,0.9664472,480.64008,111.54026,0.96526027,520.29645,112.86818,0.9989176,498.1033,113.68245,0.99885774,519.0788,154.94186,0.99751043,497.5097,158.9624,0.99764234,514.52234,195.40004,0.9899552,498.41486,203.58075,0.9906086,0.88711551,0.06853508,0.87449776,0.13240289
71,2366.6666666666665,506.1623,29.404839,0.98036295,511.27213,26.05423,0.93703425,502.3211,25.993614,0.9469631,519.0675,29.415024,0.75791395,496.8374,29.14196,0.7696433,526.1258,54.247597,0.99410063,491.2704,56.729317,0.99564785,539.5652,82.46747,0.97413176,482.49646,87.81706,0.98343277,544.3308,108.68407,0.959556,478.94873,111.76239,0.9717091,520.0157,113.7361,0.99724007,498.03912,115.0728,0.9977209,518.43274,155.10487,0.99378765,497.45798,159.68633,0.9951853,514.2323,196.47485,0.9767046,497.2836,205.21748,0.9805493,0.92031866,0.20806169,0.88358665,0.15156324
72,2400.0,505.27884,28.988396,0.98065484,510.38446,25.617271,0.9368818,501.4424,25.616768,0.94810456,518.2096,29.042694,0.75766253,496.05814,28.8778,0.77586246,525.44366,54.112846,0.9942384,490.57233,56.777603,0.99591905,538.9128,82.57554,0.97426957,481.68408,88.35361,0.98444563,543.3684,108.38176,0.95968354,478.25897,112.62041,0.9730622,519.9509,114.06232,0.9974228,497.94876,115.568924,0.99792165,518.5783,155.56071,0.9942725,497.70618,160.54823,0.9956737,514.84015,196.77074,0.9785538,497.98724,206.1762,0.98240614,0.95087192,0.31147842,0.87548035,0.20167491
73,2433.333333333333,504.98407,28.611115,0.9817346,510.01926,25.040825,0.93571705,500.8647,25.298904,0.95431834,517.65643,28.33905,0.73916084,494.9869,28.72641,0.8018653,524.8367,53.786545,0.99381304,489.61008,57.04824,0.9963798,538.59766,82.58892,0.9708982,480.8045,88.99277,0.98638004,543.6023,107.702286,0.955676,477.44116,112.48462,0.97562385,519.8393,114.62438,0.9973248,497.59662,116.60155,0.9980445,518.7645,156.0859,0.9940852,497.94736,162.23743,0.9959533,515.38153,196.48285,0.9781927,498.4025,207.52194,0.9831699,0.98233184,0.3178652,0.90274699,0.22132654
74,2466.666666666667,503.604,27.501152,0.98159987,508.61972,23.923218,0.9353074,499.50128,24.243752,0.95362556,516.2932,27.460472,0.7422747,493.7802,27.9458,0.8016512,524.08887,53.44252,0.9939937,488.34113,56.690567,0.9964552,538.1189,82.73941,0.9715427,479.59897,88.39043,0.9866217,542.8251,108.83272,0.9562693,476.5373,111.83226,0.97592896,519.56,114.93987,0.997416,497.007,116.956276,0.99811125,518.5582,156.64865,0.9941858,497.50784,162.71213,0.996027,515.8623,196.27048,0.9784008,498.8044,206.99388,0.98337907,1.05522934,0.34390362,0.95457818,0.28986162
75,2500.0,503.0855,26.739677,0.9821085,508.1892,23.182007,0.93476653,498.9046,23.516693,0.9567032,515.8332,26.939583,0.7319518,492.84558,27.362823,0.8140946,523.3416,53.092407,0.9936134,487.1968,56.276924,0.99663216,537.27246,82.8404,0.96910334,478.09326,87.91104,0.9874364,542.0483,109.73788,0.9536162,475.27472,111.68125,0.97713965,519.4242,114.49072,0.9972583,496.58725,116.71123,0.9981078,518.38873,156.65845,0.9937789,497.1646,163.55273,0.9959781,515.88904,195.9107,0.97686553,498.95975,207.98401,0.98279136,1.05522934,0.34390362,0.95457818,0.28986162
76,2533.333333333333,501.7628,25.666069,0.98225385,506.92715,21.965073,0.93478924,497.46158,22.442749,0.95799714,514.7841,25.736603,0.7286811,491.41727,26.441696,0.81821847,522.56085,52.425964,0.993189,486.0147,55.76496,0.9965947,536.7451,83.09902,0.96643084,476.96027,87.87439,0.98734087,541.8606,110.883194,0.9505301,474.25073,112.2413,0.9769677,518.9412,114.34434,0.99692756,495.88568,116.752106,0.9979443,518.0568,156.6406,0.99293923,496.9953,163.99864,0.995576,516.0305,195.45937,0.9738627,499.35556,208.15848,0.98093206,1.04356488,0.44461825,0.92952234,0.16531938
77,2566.666666666667,501.07767,24.310349,0.9820274,506.22125,20.537384,0.9341137,496.7988,20.99376,0.9573571,513.81274,24.246399,0.7261576,490.5677,24.871338,0.81692404,521.3758,51.32425,0.99323696,484.66608,54.59153,0.99642366,535.5042,82.91517,0.9667928,475.47156,87.41174,0.98654824,540.6019,111.017334,0.9504738,473.27945,112.05151,0.9758202,517.8769,114.24117,0.9968771,494.67648,116.78657,0.9978522,517.9216,157.06052,0.9928196,496.66406,164.74133,0.99537706,516.6959,195.7517,0.9732844,499.45605,208.79329,0.9801413,1.03874037,0.43258162,0.91895959,0.21764186
78,2600.0,500.47925,23.033081,0.9817054,505.45267,19.142975,0.9313082,496.13373,19.794678,0.95743334,512.9496,22.832092,0.7149122,489.98392,23.855637,0.8201747,521.0476,50.463097,0.99286824,484.09647,53.52166,0.99645483,535.1543,82.74635,0.96497744,474.14914,86.12074,0.986955,538.4444,110.31099,0.94853026,471.6159,111.928345,0.9764714,517.6007,114.227325,0.9967355,494.20264,116.735695,0.9978338,517.5983,157.25151,0.99241406,496.46506,165.23859,0.9952846,517.09375,195.82072,0.9716422,499.05673,209.38458,0.97937554,1.04092451,0.44289873,0.90987071,0.24392592
79,2633.3333333333335,499.20053,21.997879,0.9830723,504.02612,17.926765,0.9262201,494.34528,18.982513,0.9640469,511.684,21.622383,0.699999,487.86954,23.58889,0.86611956,520.4804,49.758583,0.99415565,482.28204,53.863907,0.99786156,533.8927,82.00932,0.96456814,472.21533,86.67559,0.9914881,537.31726,110.261246,0.94304574,470.68567,112.1635,0.981202,518.17737,114.468544,0.99814034,493.8152,117.566605,0.998936,518.44196,157.89311,0.9956779,496.01404,166.68213,0.99771106,517.088,195.32393,0.9833556,499.1247,209.96071,0.98913175,1.72410458,0.46991973,1.650983,0.16114341
80,2666.6666666666665,498.0944,20.957024,0.9834288,503.08456,16.86554,0.9280109,493.12164,18.003242,0.96480334,511.0106,20.820648,0.70541424,486.5781,22.9376,0.8677161,519.9839,49.203796,0.99424285,480.91476,53.896477,0.99791855,533.37726,80.95704,0.9647606,470.22104,86.75983,0.99163604,536.8582,109.61726,0.9430443,468.71735,112.591675,0.98143125,518.36475,114.753914,0.9981772,493.4335,118.28691,0.998965,518.63916,158.52762,0.9956494,495.4922,168.32498,0.9977131,517.58624,194.05981,0.9831244,499.34082,210.07608,0.9890203,1.46669898,0.01129969,1.44832551,0.23115236
81,2700.0,497.9187,20.04245,0.9833431,502.81433,15.911575,0.922841,492.79486,17.02594,0.96639484,510.3817,19.854988,0.6778398,485.5703,21.92392,0.87811613,519.1778,48.301857,0.9939376,479.5267,53.31688,0.9980636,532.7888,80.435,0.9622559,468.71838,87.39584,0.99240804,536.30756,109.222565,0.9400151,467.30704,114.45163,0.9828386,518.40314,114.62211,0.9982393,493.04007,118.49619,0.99906105,519.757,158.29498,0.9958845,495.8247,168.92593,0.9979723,517.72565,193.38303,0.98433554,498.9306,210.70581,0.9902076,1.06380328,-0.04716392,1.05652104,0.11496207
82,2733.3333333333335,497.48627,19.874138,0.98310155,502.4304,15.718628,0.9200417,492.3719,16.75039,0.9665872,509.9007,19.519066,0.6636281,484.81888,21.32032,0.88039917,518.4048,47.68029,0.99376017,478.3761,52.654922,0.99808985,532.4679,79.96726,0.9614723,467.0938,86.62627,0.9926831,535.94836,109.031555,0.9392768,466.30417,113.10805,0.9834995,518.56915,114.20347,0.9983088,492.84113,118.39885,0.9991172,521.23425,157.63327,0.9960955,496.08105,169.58826,0.9981242,518.8133,191.90775,0.9852904,498.74506,211.36588,0.9909322,0.87054148,0.00859759,0.85754823,0.14959807
83,2766.6666666666665,497.2606,19.276566,0.98289984,502.01028,15.052513,0.9158154,491.8824,16.115189,0.96676075,509.3852,18.883247,0.64619267,483.90628,20.856941,0.8847607,518.43054,47.43113,0.99377406,477.37866,51.980103,0.99820423,532.0874,80.19852,0.9611126,465.44296,86.26926,0.99321187,535.92847,108.87671,0.9386939,463.66525,114.107956,0.9844535,518.8108,114.34253,0.998429,492.45242,118.19362,0.9992055,522.0903,158.41669,0.9964671,496.4292,168.7316,0.9983546,519.22723,194.35716,0.9867286,498.572,211.22354,0.99202406,0.81628963,0.04544441,0.80154107,0.14763291
84,2800.0,497.25592,18.797623,0.98381305,501.97922,14.55584,0.91955143,491.86877,15.489922,0.9681539,509.25595,18.204185,0.65293306,483.72406,19.9207,0.8878595,518.2475,46.963867,0.99423945,476.91885,50.725594,0.99827886,531.6611,80.109924,0.9632325,464.41458,84.77674,0.993295,536.05945,108.41889,0.94083226,461.46912,113.14313,0.98455507,518.47345,114.25336,0.99853504,491.98145,117.63707,0.9992459,522.3342,159.70218,0.99673957,496.67026,168.36052,0.99845195,520.27124,196.97546,0.9875909,499.31384,211.38226,0.9924861,0.75705537,0.09580172,0.74774472,0.06951766
85,2833.3333333333335,497.10104,18.241455,0.9846199,501.72864,13.924606,0.9255124,491.3671,15.048256,0.96974564,509.10324,16.831383,0.6744481,483.4035,19.450989,0.8933137,518.7467,45.715942,0.9939692,476.44843,49.35691,0.9986791,532.31665,79.81342,0.9614011,463.90375,83.103874,0.99460065,536.586,108.94355,0.9426414,459.90536,111.30507,0.9870733,517.3606,114.163765,0.99876726,490.5589,117.01654,0.9994186,521.75214,159.52173,0.99754155,496.7115,166.68219,0.998944,519.8453,199.04457,0.9911924,499.56735,211.82623,0.99505794,1.14802503,0.32990183,1.09435043,-0.10734706
86,2866.6666666666665,497.84467,17.301704,0.98381585,501.95428,12.975159,0.9178803,491.9537,14.186897,0.9685107,508.5191,15.93409,0.6487368,483.4512,18.89508,0.8963171,518.5744,45.170303,0.99405944,476.1601,48.656914,0.9987081,531.7788,79.1092,0.96214616,463.4862,82.133644,0.9947537,536.27954,108.732666,0.94302225,459.01257,110.51282,0.98735166,517.1233,114.898766,0.9988605,490.31567,117.376495,0.99946266,521.3531,162.53792,0.99775,497.2097,167.34341,0.99902797,519.943,204.4992,0.99176943,500.19318,212.80692,0.9953862,0.89644169,0.18226892,0.87769116,0.00663243
87,2900.0,498.65588,16.471375,0.98427224,502.60812,12.059113,0.9148604,492.54895,13.25412,0.9708344,508.80795,14.989761,0.6231757,483.31204,17.961342,0.9062326,518.7213,44.708984,0.9938293,475.56436,47.914474,0.9987992,531.5227,78.940315,0.95940745,462.85205,81.82452,0.99512756,536.278,108.32257,0.9396878,458.17575,110.715164,0.9880337,517.142,115.50957,0.99884963,489.86615,117.75731,0.9994855,521.7188,164.22702,0.99774987,497.437,167.75325,0.9990752,520.1926,207.27057,0.9918007,500.53375,213.43338,0.9955576,0.89644169,0.18226892,0.87769116,0.00663243
88,2933.333333333333,499.15958,15.538742,0.98457354,503.18515,11.192932,0.9171446,493.087,12.183189,0.97075975,509.3003,14.388008,0.63021153,483.7012,16.918015,0.90523803,518.8944,44.47062,0.994136,475.57645,47.16828,0.99879277,531.15936,78.7943,0.96155703,462.68704,81.52515,0.9949864,536.18677,107.81187,0.9420371,457.9885,110.50488,0.9877829,517.3901,115.949295,0.9988927,489.9418,117.85623,0.99948835,522.1206,165.82123,0.99785537,497.54733,167.86517,0.99908555,521.30774,211.03125,0.99203825,501.54324,214.83069,0.9955987,1.0023672,0.06927201,0.99830307,0.05772668
89,2966.666666666667,499.89902,14.738319,0.9852368,503.98093,10.353256,0.92140514,493.83035,11.191467,0.9716133,509.98907,13.598747,0.6370437,484.15045,15.781418,0.9053388,519.29865,44.018616,0.99425864,475.7005,46.224907,0.9987533,531.2544,78.51984,0.962325,462.76562,80.82842,0.99465394,536.5972,107.79958,0.94262654,457.61383,110.05757,0.98711336,517.96625,116.130745,0.99882835,490.21213,117.65545,0.99944097,522.59973,167.31241,0.99771273,497.21323,167.5622,0.99898416,523.6656,214.77863,0.99134433,502.73264,215.51631,0.99510527,1.05023886,0.11815546,1.04350183,-0.01203663
90,3000.0,500.84866,14.340775,0.98555404,504.92523,9.802856,0.9227115,494.69257,10.603737,0.9720367,510.72394,12.9791565,0.63149995,484.44507,15.022186,0.9051966,519.5729,43.995323,0.994276,475.5624,45.6773,0.9986785,531.4478,79.087204,0.96298736,462.7915,80.40475,0.9942378,537.2372,107.95421,0.94334716,457.4111,109.98628,0.9863811,518.2349,116.73703,0.9987319,490.09155,118.04001,0.99937254,522.9421,168.41354,0.9974496,496.55124,167.81139,0.99881625,526.313,216.52603,0.9901444,503.3554,215.70718,0.99426055,0.9404541,0.2422064,0.90815119,-0.0324252
91,3033.333333333333,502.2565,13.404373,0.9772273,506.0206,8.554199,0.89280087,495.8394,9.203522,0.9525291,510.2191,12.912033,0.55223256,485.20105,14.782654,0.855486,518.8989,44.545692,0.98725665,475.21686,45.501427,0.99713266,529.78613,79.20493,0.9422523,462.38495,80.36365,0.9893757,535.3709,108.030174,0.9223668,456.47723,109.27083,0.97847307,518.5547,116.4806,0.99539125,489.93494,117.158066,0.9976052,522.6373,168.82324,0.9905352,495.29202,166.31512,0.9953087,525.89,217.8765,0.96406543,499.8698,213.62167,0.97814435,1.00962311,0.32523456,0.95457818,-0.04839215
92,3066.666666666667,503.61682,13.68441,0.9854833,507.31015,8.760849,0.91782767,497.1262,9.967331,0.97219366,512.4316,11.723419,0.6004985,485.83728,14.717117,0.90857524,520.9316,43.400955,0.9944067,476.36267,45.789337,0.9987011,532.2003,78.95583,0.964586,463.3949,81.29356,0.99433315,538.4345,107.61217,0.9454303,457.89066,111.03145,0.98662823,519.09985,117.36775,0.99883753,490.31195,118.91892,0.9994168,523.3553,168.9107,0.9977144,495.34152,167.90962,0.9989109,530.3838,218.1394,0.99119955,503.4276,215.50903,0.994776,1.03280497,0.28912468,0.99142499,-0.01301921
93,3100.0,505.8796,13.206474,0.98323894,509.1229,8.303825,0.900268,499.41443,9.586426,0.9687538,513.3589,11.5579605,0.5476313,487.43832,14.7118225,0.9064413,522.08466,43.481934,0.9937431,477.09634,45.76094,0.9986236,534.18964,79.56024,0.9626495,464.0284,81.184204,0.9943785,539.395,109.11832,0.94397664,458.1948,111.48965,0.98690355,519.9099,117.245224,0.99878734,490.7681,118.675476,0.99940467,523.60565,168.97426,0.99760914,494.9648,167.7571,0.9988778,531.2486,218.69276,0.99073046,502.8691,215.35971,0.99453676,1.01875268,0.33751683,0.96121061,-0.00368468
94,3133.3333333333335,507.28613,12.493591,0.9821582,510.46124,7.5451355,0.8920041,500.69525,8.794861,0.9676312,514.66174,10.768066,0.5252423,488.5064,13.922791,0.9065884,523.7884,42.8674,0.9929877,478.04123,45.051895,0.9986059,535.5932,79.47815,0.958491,464.93393,80.95416,0.99450433,540.6033,110.53504,0.9393679,458.7633,111.83471,0.9871007,521.0971,117.160545,0.9986651,491.55008,118.32164,0.9993765,523.9704,170.08571,0.99733305,495.46213,168.02026,0.9988079,529.43176,220.20003,0.98960996,502.0717,215.6347,0.9940725,1.03363042,0.33284957,0.97791449,-0.03586423
95,3166.6666666666665,509.085,11.7591095,0.97870445,512.0698,6.8112717,0.87034744,502.28656,8.267334,0.9615787,516.2937,10.438293,0.49294987,490.17255,14.168259,0.8987478,526.47235,42.874496,0.99207425,479.73227,45.246964,0.9985684,537.671,79.44528,0.95609736,466.33685,80.88045,0.9948419,541.4577,110.83086,0.93774706,459.98303,112.45313,0.98783946,523.1828,117.93278,0.9986809,492.93896,118.92401,0.9994128,524.94775,171.09348,0.9973361,495.96582,168.55667,0.998865,528.85345,221.16528,0.9895253,501.19733,215.90877,0.99421364,1.01766331,0.23852172,0.98651209,-0.07443057
96,3200.0,510.7838,7.9693947,0.9806764,514.03174,4.287655,0.8937159,504.04938,5.0691986,0.96493095,518.2357,10.757942,0.5431362,492.21725,12.946487,0.89407676,528.01135,43.61682,0.9924389,481.70874,44.65465,0.9976172,537.55164,80.18489,0.95120907,469.04272,79.919754,0.98986924,542.6865,111.656784,0.91066855,462.10223,113.80862,0.97416896,525.424,118.24931,0.99703765,495.53555,119.376465,0.99837303,528.171,171.04324,0.9874008,496.5567,170.66382,0.99323034,527.72876,218.45049,0.94170886,498.90067,217.32013,0.96073216,1.02168643,0.11471642,1.01402437,-0.04937473
97,3233.3333333333335,513.30457,7.8861237,0.96527606,516.08936,3.5188751,0.790805,506.9103,4.3797455,0.9370392,519.9525,9.054802,0.4021984,494.5679,11.246323,0.8658774,530.7373,42.822144,0.99078757,482.97327,43.854233,0.9978582,540.63196,80.478836,0.9577565,470.7243,80.55397,0.99397177,545.21783,111.51178,0.937415,466.2139,112.141945,0.9864314,527.90063,118.08304,0.99855524,497.04037,118.47053,0.9993125,529.3349,172.96988,0.9965289,497.97983,168.76476,0.99839896,529.00934,223.12344,0.98453844,499.61554,215.28839,0.9909213,1.03656391,0.05846361,1.03367601,0.05060296
98,3266.6666666666665,517.1609,5.3403015,0.97485185,519.5136,1.5754395,0.83743525,510.5749,2.0223312,0.9579656,521.846,7.661484,0.40849802,496.8523,9.125519,0.89796007,531.70746,40.948395,0.99082994,484.50903,41.18885,0.9977169,542.05664,79.852844,0.9460038,473.30194,79.12679,0.9917739,547.223,113.44977,0.90597636,466.8749,115.858246,0.97851896,529.12555,116.58538,0.9972046,498.6662,117.01138,0.9986206,530.77875,170.25153,0.98805714,497.71982,167.99426,0.99420553,526.82,218.90744,0.9440229,496.2761,214.76608,0.9645726,0.99563103,0.26161239,0.96047367,0.01817776
99,3300.0,518.4865,3.921547,0.9766223,521.45605,0.16817474,0.85970706,511.73386,0.41285324,0.9584455,524.8147,6.433857,0.45802197,498.1946,7.4327774,0.8907482,534.2441,39.91992,0.9918475,486.23087,39.909424,0.9976376,543.38916,78.94612,0.9519114,475.51727,78.37059,0.9909915,549.1345,112.75822,0.9135395,470.24744,114.489555,0.97693264,531.02734,116.25615,0.9973923,499.96954,116.50343,0.9986046,532.0664,170.43086,0.98860055,498.13055,167.87169,0.99403244,526.7955,218.15775,0.9456845,496.61523,213.78955,0.9639941,0.99563103,0.26161239,0.96047367,0.01817776
100,3333.3333333333335,520.798,4.1268463,0.9780262,523.97974,0.41148376,0.8769078,514.1412,0.6084976,0.9606449,527.1787,6.7919006,0.4836941,501.06464,7.488312,0.8960042,536.7374,39.166428,0.99095976,488.13077,39.15087,0.9977416,545.9961,76.97273,0.9474927,476.46902,78.02396,0.99091375,552.7373,109.883385,0.9113678,474.41544,114.40159,0.97726125,533.53064,115.54838,0.9970071,501.6609,115.75427,0.9984207,534.06244,171.3215,0.98695266,498.94763,168.61949,0.99348575,528.4823,218.46254,0.9383565,497.2748,213.66592,0.9611137,1.07897055,0.35520331,1.00763759,-0.15058065
101,3366.6666666666665,522.906,4.2529716,0.97336745,525.81036,0.1386528,0.8601444,515.94727,0.5732155,0.94894034,528.88745,5.9600563,0.46738368,502.52756,7.306328,0.8718999,539.0536,38.352165,0.99064505,489.82153,38.509953,0.99709785,548.5697,76.20441,0.95182866,477.87378,77.4714,0.98889774,556.81964,109.3569,0.9182007,477.7726,114.844826,0.9741363,535.932,115.97562,0.9968336,503.6536,116.18303,0.9981285,535.2877,172.07242,0.98574984,500.85757,168.861,0.99201596,529.3229,220.03926,0.930501,498.11615,213.3466,0.9527412,1.21878155,0.16237164,1.20439959,-0.09211704
102,3400.0,525.72705,3.2382965,0.89445186,527.51605,0.0,0.568655,519.6921,0.0,0.7877828,528.5215,4.407608,0.2609296,506.8582,6.138214,0.69885796,539.63544,37.507477,0.9786816,491.61435,37.9057,0.99416167,550.9492,74.30983,0.9524906,479.09372,76.73193,0.98912907,560.4382,109.8902,0.94283134,480.1033,113.18373,0.98190844,535.4385,115.864655,0.9971486,504.0556,115.478935,0.9983785,532.6393,174.21564,0.9934087,502.21487,168.58934,0.99634856,528.64404,224.10649,0.9702047,498.21954,213.50299,0.9801245,1.20960746,0.16900406,1.19678458,-0.04790086
103,3433.333333333333,529.1166,3.848526,0.8849208,530.6682,0.0,0.5181637,523.1856,0.0,0.7825769,530.6259,5.4183044,0.21319662,509.3387,6.680954,0.7116568,540.6658,38.181953,0.97492665,493.31668,38.269974,0.9940851,553.17566,75.236626,0.94604355,480.6814,77.631,0.9897775,563.3703,110.11803,0.9385508,483.47388,114.18313,0.98318535,537.41437,115.52425,0.99687093,506.4292,115.32732,0.9983368,533.1344,174.52556,0.9930125,504.0633,170.56732,0.9963697,528.04407,226.29196,0.9679455,499.35648,218.35574,0.97933424,1.06059293,0.13952661,1.05136248,0.00515855
104,3466.666666666667,530.87,4.4879,0.88844895,532.8405,0.22518921,0.54405874,525.14185,0.34259033,0.7849256,533.06305,5.731781,0.22313304,511.3585,6.2198486,0.6928573,541.9579,37.50019,0.970697,495.6585,37.3515,0.9923833,556.0076,74.23404,0.94008976,483.00433,76.089874,0.9869306,567.0769,109.88039,0.9347307,485.51813,113.39557,0.98009205,539.46436,114.620705,0.994862,509.2726,114.81992,0.99712354,534.80695,174.44919,0.9872858,507.70297,173.4676,0.9930407,528.5099,226.47247,0.93803334,502.33713,223.74406,0.9580172,0.97551214,-0.15598485,0.95138479,0.14886114
105,3500.0,532.7234,4.73349,0.88233143,535.1387,0.3450775,0.5258304,527.17566,0.110198975,0.78030676,535.58856,4.668915,0.20622848,513.2981,4.207733,0.6857957,542.9367,35.56906,0.9641185,497.07416,34.873703,0.9914955,556.42,72.428085,0.92950386,484.00534,74.8029,0.9861195,568.6332,106.33919,0.92702967,486.18173,113.48203,0.97941005,540.7853,114.53643,0.99318004,511.02853,114.88147,0.9963451,536.17255,174.11606,0.98301286,510.82538,174.58664,0.99110186,528.68524,225.47697,0.9187341,506.02707,226.13147,0.9459198,0.97551214,-0.15598485,0.95138479,0.14886114
106,3533.333333333333,533.431,3.7992249,0.8661256,536.2024,0.0,0.42163724,527.54626,0.0,0.77371866,537.71014,4.2126846,0.16710772,512.8021,3.4806213,0.72548777,545.39343,35.1377,0.9746085,496.38034,34.03858,0.9932325,559.01514,74.40076,0.937493,483.68588,74.79248,0.98975426,571.9426,104.51766,0.91869956,487.2556,113.856606,0.98039335,542.3641,116.11969,0.9964049,510.8028,116.99446,0.99819285,539.4776,175.69582,0.985672,511.2497,177.24756,0.99284184,529.0469,226.51982,0.91727996,508.9527,229.02911,0.9453913,1.07520361,0.09359091,1.06290782,0.13240289
107,3566.666666666667,536.38464,4.0948486,0.81623256,538.8646,0.0,0.30883345,530.7743,0.0,0.7180617,539.13873,4.3114777,0.11739861,515.1891,2.6292114,0.7114292,546.0007,34.96927,0.96480036,496.90906,32.93914,0.9922052,560.2241,74.578476,0.9225627,483.64804,74.09679,0.9898962,574.0463,102.80186,0.9074926,489.1357,113.08647,0.98126894,543.7322,117.25354,0.99558014,512.58704,118.09331,0.9979625,541.13446,177.63669,0.9818786,515.48456,179.69772,0.9916678,527.97534,227.51302,0.89599586,513.08923,231.33095,0.9339397,1.23485115,0.42987952,1.14691856,0.15696744
108,3600.0,537.9332,4.9762115,0.8749289,540.84656,0.46380615,0.47424817,532.21985,0.0,0.7876021,541.65063,3.6649323,0.17037646,517.3097,1.8102951,0.7351233,546.91394,33.636906,0.96528816,499.35434,31.28606,0.99302727,559.89026,72.73895,0.92081547,485.23447,73.592,0.9882138,575.08215,101.51681,0.91179836,490.40228,112.50433,0.97974944,544.04175,116.962585,0.9941764,513.54346,117.54596,0.9970932,540.85803,177.38371,0.97824544,519.6628,179.55748,0.98970056,527.55585,227.2137,0.8843185,516.94867,231.29135,0.9268246,1.05500444,0.33235828,0.99756613,0.08622155
109,3633.3333333333335,540.23724,8.857162,0.8470691,542.73444,4.225937,0.40063584,535.2351,3.357048,0.7552058,542.2855,4.805969,0.13567965,520.55,2.492569,0.7205048,546.59,32.11486,0.95541024,501.1385,29.678291,0.99183214,560.188,72.834915,0.9079032,485.31693,73.41023,0.98774606,576.13165,102.15431,0.90144235,490.84833,112.50119,0.9791895,543.928,117.46167,0.99233705,515.06226,118.439255,0.996332,540.55817,178.59213,0.96912986,522.6178,182.75854,0.98589605,526.71936,226.4129,0.83848125,519.74695,233.56418,0.8975934,1.01128209,0.30877632,0.95752592,0.10243415
110,3666.6666666666665,541.9876,5.256729,0.72711533,544.0745,0.8160019,0.24259716,537.0939,0.0,0.5825072,542.79346,2.685913,0.09786908,522.46826,0.6758499,0.614534,547.1657,30.737991,0.9398146,502.27716,29.018356,0.98781455,559.66724,71.27795,0.9050362,485.32758,73.62723,0.9854746,576.37726,101.5312,0.9022988,491.1536,113.41159,0.97714955,544.6585,116.102776,0.9917241,516.5669,117.44019,0.99582976,540.4358,178.45193,0.96631104,526.4652,183.12773,0.98373556,523.1225,226.22226,0.8172515,522.522,233.73709,0.8790103,0.94625442,0.30361776,0.89071036,0.09924076
111,3700.0,542.7756,5.4675217,0.749436,545.10736,0.8111801,0.26993737,537.7136,0.014762878,0.60826355,544.1457,2.0844345,0.10586272,522.933,0.1869812,0.62063116,547.4524,30.068787,0.9405234,503.13837,28.353268,0.98739004,559.06775,71.061356,0.90416384,485.7582,73.31971,0.98422676,576.7208,101.320755,0.90190744,491.6038,114.099884,0.975679,545.1745,115.49019,0.990489,517.58167,117.068016,0.99507105,541.20154,178.48763,0.96066594,528.8736,183.79575,0.98035747,524.8916,227.44391,0.78788483,525.9941,235.863,0.8551945,0.89947434,0.23876737,0.85877646,0.12061191
112,3733.3333333333335,545.75055,5.8627853,0.6062283,547.2417,1.6680222,0.14451608,541.511,0.5906906,0.45833677,544.0782,3.1722565,0.06441038,526.74603,0.65345,0.55865884,547.2344,29.57763,0.9094238,504.84766,27.469753,0.983205,559.0241,70.33295,0.8828298,486.35483,72.081375,0.9839326,576.34955,101.56513,0.8875291,491.83203,113.98505,0.97574437,545.9558,114.165405,0.9881783,519.6209,115.66834,0.9943059,543.00885,177.51323,0.95049924,531.922,182.7445,0.9767594,525.5961,227.62305,0.7399236,527.9521,236.14252,0.82511896,0.90025424,0.17268874,0.87621728,0.11348819
113,3766.6666666666665,546.1003,6.5837555,0.6513484,547.97107,2.4566574,0.18001986,542.3377,1.0660095,0.50283825,545.05945,2.8564377,0.08215804,528.6289,0.0,0.581001,547.3403,28.830467,0.91938615,506.3816,25.738976,0.98419684,558.2517,70.407814,0.8843892,487.51318,71.05043,0.9825499,575.8141,101.56811,0.8832619,492.74988,114.632774,0.97239786,544.5329,115.00954,0.9866431,519.8558,115.959885,0.99331164,539.8754,181.48026,0.93956065,533.89667,185.14703,0.9702537,523.6989,231.91545,0.68698484,533.72504,238.587,0.7802757,0.98100277,0.23852172,0.94426107,0.11766417
114,3800.0,548.7392,5.629265,0.5595185,550.2068,1.6052856,0.12060576,545.22034,0.1408844,0.41837513,545.9209,2.0547562,0.060231294,531.01105,0.0,0.550446,547.7596,27.643265,0.89548254,507.80896,24.79272,0.9815258,557.5288,70.26218,0.86647856,489.35385,71.83618,0.982265,574.86816,101.76315,0.8688738,493.5194,117.760315,0.9716205,546.27625,115.16909,0.98413104,522.1931,116.221176,0.9924787,540.8509,183.56613,0.9250325,535.758,186.83157,0.96431524,525.6796,233.85498,0.62755924,536.7809,239.85855,0.7367631,1.02741624,0.36527477,0.94868269,0.14886114
115,3833.3333333333335,551.57904,6.5388107,0.12774919,551.9433,2.0475006,0.011976413,548.36395,1.3671417,0.086197086,545.9347,0.45044708,0.017190568,534.19946,0.0,0.28180966,549.6533,24.29206,0.703301,509.96902,22.769272,0.9425452,555.9776,70.57548,0.78188217,489.33713,69.9915,0.97693616,574.0013,104.074326,0.82581156,495.9317,120.45917,0.9685028,547.49097,114.15832,0.9682694,524.93,115.504196,0.9870488,542.11957,184.91568,0.8629592,539.95044,187.17651,0.93744975,524.82855,238.0043,0.43568993,540.8628,240.0,0.56692994,1.00661356,0.38050479,0.92215298,0.1346137
116,3866.6666666666665,551.2902,5.355835,0.10816379,551.75073,0.74337006,0.010005377,548.2373,0.22886658,0.07046437,546.2954,0.0,0.016750969,535.2975,0.0,0.25239852,550.0385,21.971474,0.6865581,512.1789,21.7108,0.9416271,554.1648,68.57477,0.7813543,492.31757,70.565506,0.97866005,570.40247,102.89491,0.82773024,496.4425,122.07268,0.9703743,547.04346,114.302475,0.9701322,525.5608,116.00162,0.98823905,542.7587,184.56314,0.87006587,542.22455,187.52368,0.9432685,524.0167,237.30692,0.45049176,541.9728,240.0,0.5884622,0.97085896,0.40899966,0.87646293,0.08425639
117,3900.0,555.3831,8.322212,0.1411475,556.015,3.945465,0.012264717,552.55206,2.794426,0.10557208,549.3053,0.30043793,0.016799,538.3555,0.0,0.333992,550.37103,22.277443,0.68212104,514.7513,20.70366,0.95279336,552.75977,70.577705,0.74637324,495.83954,69.77641,0.98116297,568.6027,105.79489,0.80151814,500.0275,120.23883,0.97221464,548.6094,115.43605,0.9649165,528.4686,116.70769,0.9876199,544.41394,187.54099,0.84622604,544.3869,190.31952,0.9382757,524.6006,238.91034,0.40817136,544.2439,240.0,0.5621222,1.00266938,0.39819126,0.9130641,0.11447077
118,3933.333333333333,554.44275,5.006912,0.12880029,555.2709,0.47216797,0.011174943,551.6973,0.0,0.09688973,549.86993,0.0,0.018653154,540.11163,0.0,0.3320741,551.6433,20.863396,0.6666879,518.93463,19.094315,0.96086156,550.62036,70.980225,0.72367144,499.03442,67.95072,0.9852657,567.04803,107.76665,0.7830606,502.39508,120.605576,0.9758901,549.4185,117.20878,0.96833557,531.34546,118.26288,0.9903488,544.20654,189.15912,0.85541314,548.057,192.05914,0.9504364,522.0456,238.32986,0.42852953,545.5026,240.0,0.60905784,0.97457908,0.31000454,0.91773136,0.10710141
119,3966.666666666667,555.7746,3.9323654,0.16582543,556.36676,0.0,0.014002632,553.07153,0.0,0.15006167,549.3484,0.0,0.020816965,541.0918,0.0,0.45312613,551.002,19.95913,0.65765744,521.31146,19.21962,0.97138727,548.5805,72.95093,0.6434859,501.98987,68.86922,0.9872498,565.3573,115.588455,0.70703644,505.84985,119.52635,0.9756526,552.6951,118.08882,0.96482843,536.6065,119.56194,0.99111724,545.81177,191.70447,0.8463284,549.92505,195.6294,0.9557354,521.125,236.71051,0.4398094,544.66766,240.0,0.6482242,0.9738271,0.29452888,0.91748572,0.14075484
120,4000.0,556.1681,4.721634,0.29262233,557.45935,0.77114105,0.030852849,553.88086,0.0,0.28308797,551.3366,0.0,0.026150882,542.0622,0.0,0.5692715,550.62787,19.236702,0.6787564,522.4147,16.81511,0.98033136,548.501,74.361084,0.597421,508.2447,71.999596,0.98838145,564.7497,116.14885,0.6597605,513.4961,121.69406,0.97572845,554.2194,116.883316,0.96859735,537.7748,118.11682,0.9927751,547.5609,189.6551,0.87252915,549.1339,195.11072,0.9680866,522.1199,234.53247,0.5532831,544.7949,240.0,0.7604968,0.87731793,0.23999559,0.83814224,0.09801253
121,4033.333333333333,557.42957,9.33136,0.13260575,557.324,4.942932,0.012014628,555.52454,4.0987396,0.15031186,547.3391,0.0,0.020669537,544.7144,0.0,0.48342693,546.5987,16.791634,0.5111825,529.1553,15.67807,0.9532416,540.7015,67.49307,0.43509582,513.64685,62.09829,0.9759921,560.8453,109.29139,0.50684226,517.6296,116.47009,0.95113313,552.40356,115.01324,0.9385269,543.4584,115.76616,0.9851741,546.0582,191.967,0.8180857,551.1942,194.49934,0.9496861,523.03265,236.68527,0.48068997,540.9127,240.0,0.6942669,0.87731793,0.23999559,0.83814224,0.09801253
122,4066.6666666666665,560.59985,4.145912,0.095005065,560.36646,0.05519867,0.007986079,559.57434,0.0,0.11855211,550.0522,0.0,0.013329618,550.58563,0.0,0.4820665,547.7695,13.837379,0.3929245,532.3245,11.165894,0.95556074,540.1488,68.62734,0.33296627,518.7937,63.531975,0.9793881,557.2916,110.94879,0.4124779,523.81995,118.55672,0.95376647,550.57416,114.783676,0.94615334,541.81537,115.356575,0.98944163,546.0088,188.44821,0.8560047,550.78503,191.94356,0.96921843,523.3036,236.20741,0.608154,541.8258,240.0,0.81707895,0.9137666,0.2800358,0.86196985,0.11643594
123,4100.0,561.3357,7.5861206,0.10965843,561.1777,3.324356,0.011835468,560.50867,2.6600494,0.1066243,551.89734,0.0,0.020496959,553.2025,0.0,0.38617474,550.6248,16.701172,0.41538817,534.9656,14.546005,0.93561625,544.44965,64.45877,0.43072495,521.39844,57.558502,0.9707117,562.569,110.67258,0.5419747,531.2734,111.47618,0.9499422,552.05835,113.347275,0.90746635,543.1699,114.11673,0.97569615,544.8266,190.49626,0.7704261,547.86523,194.41599,0.92987823,531.8892,234.47208,0.4173771,540.87,240.0,0.63018906,1.78884295,0.27143821,1.76299732,-0.1346137
124,4133.333333333334,562.9249,6.082672,0.048323393,561.48315,2.0285645,0.0035952555,563.0337,0.94316864,0.0643727,547.8833,0.0,0.008860766,555.22516,0.0,0.4219036,546.05743,9.991272,0.30114692,535.62805,9.112602,0.9356583,541.3413,61.77887,0.30203333,528.2926,59.568375,0.97750604,559.9541,103.254005,0.3943746,542.53687,108.336205,0.9512135,548.95465,111.17366,0.9340383,542.43933,112.456635,0.98692465,547.8869,189.6529,0.80551374,549.14026,193.61475,0.95623416,531.26624,239.14503,0.49107292,539.17786,240.0,0.7329503,0.89702019,0.05600716,0.89513198,-0.01572131
125,4166.666666666667,563.7361,7.3840637,0.037803695,562.0126,3.2194672,0.0033570284,565.073,2.1290588,0.04366732,545.0337,0.0,0.013837393,559.4015,0.0,0.37014073,539.5736,11.950409,0.32007733,540.7947,11.460754,0.8997227,535.26874,59.752914,0.3523755,535.5787,55.86782,0.9601406,557.3665,104.93945,0.45306998,553.6727,109.58426,0.92665535,541.5886,110.10866,0.89331245,542.6293,111.60058,0.9705751,544.5288,188.31754,0.76644754,547.9273,192.84569,0.92563695,538.00946,236.923,0.42874908,538.83545,240.0,0.6309583,0.95472371,0.34292103,0.89021907,-0.03758375
126,4200.0,565.0717,7.135956,0.021024358,562.97797,2.7834473,0.0020922567,567.1691,1.3645325,0.02180138,544.0551,0.0,0.014762261,563.13464,0.0,0.29034144,536.181,10.230804,0.31224924,545.98615,9.162491,0.8417808,532.22156,60.867157,0.37795758,545.3746,55.275024,0.9362806,559.2297,105.244446,0.45883566,564.5543,108.153885,0.8894955,537.2067,112.86951,0.878188,543.1563,114.19155,0.9569207,545.51685,190.99782,0.7211379,548.60596,195.32025,0.8854799,540.48535,237.59549,0.35924903,536.81116,240.0,0.52065647,1.00228026,0.35741411,0.93443525,-0.06042878
127,4233.333333333333,567.4504,5.4360237,0.023944678,564.42224,0.59812164,0.002311235,568.46765,0.0,0.031109044,545.2374,0.0,0.013275986,563.158,0.0,0.3833935,537.61383,8.072319,0.34469214,548.556,7.1241684,0.8622206,539.0454,62.40821,0.31655338,553.2985,56.82785,0.93505055,572.0598,104.05023,0.32361972,578.9427,103.811966,0.85394794,535.98474,113.79343,0.9163727,542.1441,115.45697,0.97223717,545.251,196.9059,0.6730214,552.9917,201.68228,0.8701925,536.5235,240.0,0.30474478,537.32587,240.0,0.46993372,1.02521039,0.15770437,1.0071463,-0.10882093
128,4266.666666666667,564.401,3.3528252,0.010441238,559.7604,0.0,0.00090902735,566.82153,0.0,0.010376855,538.8991,0.0,0.011351622,566.42896,0.0,0.28718498,533.4638,4.6135178,0.38479406,553.94006,3.5984573,0.87081575,541.28876,57.864113,0.44853354,560.61566,51.57475,0.95686686,578.76245,101.99427,0.45882735,586.677,101.27468,0.90261024,532.8513,113.51045,0.94252,545.8926,115.15695,0.980531,540.22974,196.65672,0.68138915,557.02527,201.6706,0.871047,535.3155,240.0,0.24271595,541.3023,240.0,0.38957986,1.01459584,0.25399738,0.94966527,-0.25104964
129,4300.0,559.00323,5.9663925,0.008419479,553.8511,0.7030182,0.0005785247,561.6185,0.41025162,0.0103885885,528.73486,0.0,0.011169059,561.5756,0.0,0.41758978,519.1128,9.344971,0.38440967,554.3265,5.322006,0.91486365,521.6436,64.89624,0.38159323,566.5871,49.56021,0.9712724,556.6232,98.29506,0.39874622,597.45624,97.26045,0.92267656,526.20483,115.81101,0.9433653,548.4547,116.45761,0.9851775,534.6713,193.64478,0.7082641,558.88995,197.23996,0.9063823,533.97327,240.0,0.28532687,545.26184,240.0,0.48026863,1.07476191,0.3070568,1.00665501,-0.2178875
130,4333.333333333333,566.1622,8.153282,0.0033690915,560.4225,2.8101463,0.00017361216,569.834,2.400032,0.0042136787,530.7819,0.0,0.0064381086,568.5153,0.0,0.32372707,517.99255,7.7089233,0.32261747,559.399,3.2444954,0.88797206,515.8124,66.531204,0.4017214,575.90436,49.238976,0.9743479,548.90607,97.33423,0.44102144,609.57587,96.53323,0.9331605,521.101,114.54051,0.942177,547.319,114.30681,0.98524565,531.32544,196.44254,0.65949845,558.49695,198.83888,0.8870843,531.85535,240.0,0.20563124,545.9677,240.0,0.3705268,1.01059746,0.25547126,0.95580641,-0.20609652
131,4366.666666666666,570.04706,5.671852,0.003988219,564.21027,0.9319992,0.00019119181,574.9177,0.015151978,0.0039919633,533.2397,0.0,0.0062219473,572.2345,0.0,0.22720145,517.19464,6.8259354,0.2833377,562.85944,2.6489792,0.8526266,518.8808,62.15953,0.45253378,584.31476,48.70277,0.97441745,553.36926,91.066605,0.56139565,620.7186,99.60249,0.9496204,518.86505,114.35856,0.90769374,546.8458,114.29981,0.9746113,531.4656,196.35388,0.53569925,558.16534,199.68024,0.82063603,535.456,238.33989,0.109289154,545.3566,240.0,0.21621776,1.03391401,0.18398843,0.99560097,-0.20953556
132,4400.0,568.2634,6.098488,0.0038504773,561.53564,1.3685455,0.00019539335,573.18854,0.40986633,0.0034318927,528.81256,0.0,0.0074383356,571.0477,0.0,0.23187083,511.29276,9.231682,0.34845698,564.5039,2.890915,0.85904837,509.99387,65.74657,0.5300537,589.512,47.515717,0.9736397,537.3122,92.399414,0.6119921,625.5263,98.25227,0.94967675,515.5062,114.71258,0.92470384,547.8311,113.844185,0.9770974,528.7014,195.36269,0.5845511,559.19366,197.93578,0.8341379,535.10425,237.03079,0.12433968,544.45825,240.0,0.23068842,1.02165622,0.13780709,1.00149646,-0.14763291
133,4433.333333333334,567.0886,9.493946,0.0022757375,560.60095,4.0780907,0.0001234247,570.5669,3.924221,0.00228377,528.4565,0.0,0.00796998,569.12695,0.0,0.29889107,511.94614,11.86676,0.44556922,563.194,4.7390747,0.88099,502.647,67.74686,0.57644343,587.2153,42.54494,0.9715902,524.6279,96.06616,0.5783834,625.6774,90.99462,0.93165016,516.66064,113.169846,0.9566399,548.3684,111.9149,0.98535454,524.75116,195.1087,0.66992724,560.4849,196.63013,0.8583065,529.83813,240.0,0.16821279,549.47943,240.0,0.27278045,1.02165622,0.13780709,1.00149646,-0.14763291
134,4466.666666666667,563.4551,9.690571,0.0032755143,557.19855,4.252548,0.00021414568,566.964,4.050476,0.0027037323,525.9067,0.0,0.014027176,566.6544,0.0,0.30031076,509.6258,13.468174,0.5829785,563.21136,6.624939,0.8915936,498.80475,69.95737,0.6872908,590.4219,44.633217,0.96793133,515.6102,102.69583,0.6513644,630.06177,89.9673,0.92462003,516.472,114.61594,0.96482384,549.2878,113.458206,0.9853646,523.65735,195.00598,0.6950534,559.9688,197.12384,0.84654856,529.1964,239.65985,0.1747892,549.1468,240.0,0.25552198,1.04073784,0.17563649,1.01697212,-0.13436806
135,4500.0,564.3842,8.992676,0.006003886,557.79083,4.354965,0.00048735744,568.8762,3.3822021,0.0032859582,526.016,0.0,0.019778797,566.70593,0.0,0.1860796,507.59143,14.315628,0.6372009,563.87695,6.523323,0.82117754,498.74216,71.17576,0.7867801,597.2403,46.116932,0.9437114,507.60175,112.18653,0.769341,635.9583,93.47659,0.91094327,513.72974,115.79229,0.9536911,547.4328,114.16203,0.9720213,521.6842,193.87808,0.6906275,557.9701,196.87404,0.79756373,529.4817,238.1329,0.16591218,546.83264,240.0,0.21019538,1.0059038,0.14566775,0.98602079,-0.13559628
136,4533.333333333333,560.0268,8.243042,0.0072158417,553.4965,3.5908737,0.0005818138,564.5924,2.5483627,0.004176937,522.0064,0.0,0.022478482,563.2195,0.0,0.21751201,503.6826,13.612076,0.6266599,562.9014,6.154129,0.8502649,496.1901,70.19176,0.75352335,598.59174,46.731094,0.9522134,508.11676,108.33292,0.7395376,636.3525,92.55268,0.9190619,512.9295,116.756,0.94987345,548.5274,115.301254,0.9735179,520.9706,194.93408,0.6713669,557.6766,197.7103,0.8067855,528.97894,237.7944,0.15778016,546.72736,240.0,0.21731812,1.05141052,0.13485935,1.03465859,-0.12945515
137,4566.666666666666,553.32587,6.8907394,0.008594793,547.04834,2.1809158,0.00083527336,557.9193,1.17482,0.004169775,517.5837,0.0,0.03148126,558.05414,0.0,0.18606357,500.14172,15.281311,0.6741423,560.88727,7.164978,0.839729,491.70312,73.05584,0.7923036,598.4172,47.850296,0.944132,500.12573,117.59866,0.7641218,635.5453,94.42057,0.9107102,512.24347,120.42258,0.95089644,548.3452,118.7657,0.9706673,519.64014,196.09761,0.6628179,556.51776,199.1424,0.7825844,528.0255,238.65982,0.15097135,545.6235,240.0,0.19812812,1.06734346,0.15819566,1.05332764,-0.06853508
138,4600.0,554.47235,6.3910217,0.0105894515,548.3299,1.5455017,0.0010685887,558.9508,0.5772171,0.004997279,518.63916,0.0,0.036702175,558.5512,0.0,0.1973746,500.026,14.834831,0.7030513,561.38586,8.143089,0.84222454,490.47015,73.5705,0.8071342,599.54193,51.37672,0.93984354,496.93134,119.563,0.7747481,634.9125,95.31935,0.905553,510.7386,120.03244,0.94945866,547.01416,118.85417,0.96787006,518.2255,195.49942,0.6564849,554.0191,199.51212,0.76601464,526.81915,239.62834,0.14548944,542.706,240.0,0.1840647,1.02458036,0.16335422,1.00591808,-0.10587318
139,4633.333333333334,546.35065,6.0859528,0.012134772,540.2439,1.2536011,0.0013246917,551.0073,0.30410767,0.0054253736,512.94147,0.0,0.04152406,552.83417,0.0,0.19137925,496.41656,16.429596,0.69327176,559.2728,8.174606,0.8551733,486.698,74.907036,0.79152274,597.35614,50.975574,0.9448464,490.65292,119.63258,0.75994724,630.8291,98.28199,0.9122224,511.81702,123.872665,0.94718957,548.8889,122.101105,0.96930814,516.96344,199.20227,0.6333194,554.87494,202.00136,0.7667623,525.99457,240.0,0.1347431,544.20624,240.0,0.1830137,1.05719131,0.23090671,1.02385019,-0.12675305
140,4666.666666666667,543.8874,6.2139816,0.003993989,539.10236,0.58338165,0.00045252437,548.15515,0.0,0.002069737,512.6872,0.0,0.04399532,554.22296,0.0,0.22583985,498.1101,15.743553,0.70225424,559.2222,8.913582,0.86935896,484.18372,74.40927,0.78228766,590.8661,50.382465,0.9461396,491.845,119.57481,0.72032213,621.67834,97.49966,0.8937686,513.1075,123.70514,0.9617475,549.64014,122.35832,0.978115,522.06305,199.67477,0.70114654,553.3922,202.27832,0.8124002,526.8938,240.0,0.17981698,542.363,240.0,0.23611209,1.05379781,0.29059856,1.00395291,-0.1346137
141,4700.0,532.97797,6.6041565,0.0060452265,528.373,1.0996857,0.00094822276,537.75824,0.4286499,0.0022577043,506.7008,0.0,0.075434275,548.0207,0.0,0.17267269,496.8396,18.162857,0.77129376,556.21643,10.161491,0.86409336,485.8098,77.513306,0.8418269,587.6024,50.968338,0.93559223,491.1401,119.672005,0.79066956,612.8211,96.710205,0.8884224,514.1254,123.0096,0.96707225,550.5082,121.25101,0.9773153,520.85126,197.3484,0.7901136,552.8735,198.67786,0.8555954,527.1346,240.0,0.26042858,543.2892,240.0,0.31781593,1.08013076,0.22525687,1.05013425,-0.11471642
142,4733.333333333333,535.5308,6.307556,0.006693,531.33386,0.9383011,0.0011021486,540.36145,0.0,0.002323503,508.14767,0.0,0.09088574,548.56506,0.0,0.16112205,496.37177,17.857216,0.8259743,554.68713,11.925758,0.85371435,484.33807,77.87236,0.8830322,583.0625,55.40519,0.9208507,491.73877,119.14607,0.83213896,606.0565,96.508804,0.8698141,513.1415,121.974075,0.9733739,549.1496,120.95308,0.97718334,520.6786,196.95868,0.8283034,552.1536,198.98929,0.85677826,526.2771,240.0,0.30072904,543.9814,240.0,0.32562032,1.08013076,0.22525687,1.05013425,-0.11471642
143,4766.666666666667,536.18585,5.8501663,0.009924033,531.9936,0.3148651,0.001554285,540.2979,0.0,0.0036041457,506.18857,0.0,0.112581626,545.65027,0.0,0.211921,490.92633,18.033188,0.8843746,552.5849,12.42923,0.8779514,478.76318,77.62472,0.90693754,577.26874,57.133224,0.9186387,490.28946,118.83036,0.8442869,596.62524,97.19308,0.86200184,509.2068,123.552734,0.9803572,547.2081,122.623,0.98118156,520.62225,196.32079,0.84607863,553.0021,199.10999,0.858575,524.76764,240.0,0.33012655,542.4517,240.0,0.3341114,1.0223322,0.11987497,1.01058534,-0.09752124
144,4800.0,524.6502,7.8457756,0.017238593,521.06946,1.8171539,0.0038335128,527.372,1.2837372,0.0056217425,500.4424,0.0,0.24857615,537.4683,0.0,0.29802033,487.92465,21.021168,0.9430748,549.3294,14.485962,0.9366881,475.21228,79.31555,0.9311491,573.0978,58.3714,0.93136024,487.55383,117.46486,0.8414746,590.4746,98.06044,0.849053,507.79102,121.40671,0.98992467,546.8593,120.427734,0.98977345,517.6652,196.50145,0.89663655,554.0855,197.40045,0.8988603,523.2698,240.0,0.43578497,547.1743,240.0,0.43197718,1.02549584,-0.00663243,1.02507842,-0.02849487
145,4833.333333333333,519.78674,6.552826,0.021537047,516.7221,1.146843,0.0051394426,524.2031,0.0,0.0054241307,497.01715,0.0,0.2612308,533.74506,0.0,0.18302543,484.3284,23.001999,0.94419116,546.4925,14.809593,0.8886962,474.40015,80.91945,0.9462821,568.0526,58.5515,0.89444244,488.31046,117.74762,0.8918236,579.1243,99.33501,0.83647215,506.79233,122.93771,0.98601127,545.7089,120.79146,0.98201275,519.3464,195.7484,0.89624715,553.09827,195.8414,0.8800112,525.36896,240.0,0.42775807,545.6787,240.0,0.39878088,0.98340828,-0.0486378,0.98209047,-0.01498437
146,4866.666666666666,514.18494,7.0661087,0.027861286,511.72333,1.8672409,0.008194154,519.0084,0.24337769,0.0058980426,494.30203,0.0,0.36338407,530.26996,0.0,0.16225305,482.32,24.64164,0.96082395,543.87915,16.839363,0.88586205,471.5857,80.19934,0.9601765,563.1588,60.422546,0.87122667,484.36084,119.42763,0.9083771,569.66064,103.62729,0.806171,505.1039,123.20557,0.9875213,543.97,121.02995,0.9806256,519.4841,195.72348,0.9049402,553.9354,194.65845,0.8710437,525.4644,240.0,0.4427153,548.87714,240.0,0.38827705,1.02013316,-0.13633322,1.00640937,0.09604737
147,4900.0,511.19592,5.6555023,0.024698323,508.7304,0.61800385,0.0077277133,515.7728,0.0,0.0048297904,492.63095,0.0,0.33800605,526.90234,0.0,0.1334616,481.57092,26.70996,0.95462483,540.4308,18.059631,0.8592966,472.4737,83.31592,0.9601729,560.15436,61.082,0.8499541,480.75107,122.25029,0.91661644,561.15875,108.0875,0.801938,503.64056,122.587814,0.985468,541.1245,120.32646,0.97625595,519.13416,194.39124,0.9130961,554.25574,192.72864,0.87737346,527.11426,240.0,0.47345042,551.77,240.0,0.4168405,1.00221383,-0.04642699,0.9936358,0.12233143
148,4933.333333333334,504.37567,8.217293,0.049055953,502.9326,2.2562103,0.025836479,506.85883,1.0572205,0.0072620525,493.3815,0.44709778,0.6323639,523.3809,0.0,0.20689803,481.0257,29.673431,0.9776638,540.8868,22.122047,0.92055285,468.69577,84.87125,0.97295433,555.9739,64.82028,0.83316916,475.62762,125.183304,0.9273083,539.7604,103.42064,0.75759864,500.88025,122.43855,0.9891493,540.1773,121.23654,0.97854656,518.4532,193.97362,0.9359683,550.578,192.78395,0.885129,524.78687,240.0,0.5579481,549.29,240.0,0.46502602,1.00221383,-0.04642699,0.9936358,0.12233143
149,4966.666666666667,494.02094,8.083565,0.07343424,493.68396,2.3804932,0.04855831,497.752,1.06427,0.008778304,490.2147,1.7608185,0.74946856,518.7448,0.0,0.17110734,480.1391,32.634903,0.98364407,538.53,23.488922,0.92541933,466.55554,87.57633,0.97826946,553.6595,64.137245,0.82283044,473.52295,126.74811,0.93850046,541.00543,98.55846,0.7492529,500.65894,123.09712,0.99035585,538.9546,121.364,0.97899616,517.4511,193.96303,0.94293666,550.09174,192.82324,0.890317,524.5437,240.0,0.58231366,551.1206,240.0,0.4827854,0.96980913,0.13535064,0.95236737,0.12331401
150,5000.0,490.97842,9.129478,0.09012787,490.91992,3.526535,0.0628289,494.7147,2.156189,0.010869181,487.978,3.761673,0.78626543,515.8745,0.10404968,0.18540809,478.5047,35.377968,0.9856925,536.3043,26.506912,0.9301543,465.71536,90.72702,0.978626,551.2704,68.188545,0.8146467,473.65305,128.86923,0.93670666,537.95447,99.951035,0.73456573,500.5431,124.586075,0.98970264,538.57434,122.86847,0.9770846,516.6717,194.22775,0.9386182,549.048,192.59735,0.8801817,524.1045,240.0,0.56770384,551.63025,240.0,0.46513617,0.96786557,0.03856633,0.94401542,0.21002685
151,5033.333333333333,488.6328,10.015541,0.0909709,488.38123,4.6778946,0.060378123,491.91586,3.1733475,0.011830294,484.54932,6.351082,0.7693457,512.2148,2.2561264,0.20882404,475.8834,38.793,0.984974,533.1106,28.87185,0.9354525,465.3243,91.7774,0.97679263,549.88367,66.31188,0.83106333,471.62482,128.84995,0.9318042,535.9604,95.18181,0.75140804,499.8555,125.78351,0.98942554,537.6453,123.6758,0.9781466,516.3321,194.24094,0.93705267,549.2004,191.53851,0.88598186,522.92535,240.0,0.5659893,551.97156,239.65154,0.47812253,1.04433827,0.00098258,1.01942857,0.22673074
152,5066.666666666666,486.16046,9.683151,0.09640884,486.25146,4.505707,0.06960953,489.3073,2.8859253,0.011716419,482.87347,7.5937653,0.80379117,509.206,3.3879623,0.1944186,474.16388,41.25682,0.9876397,530.7605,31.974442,0.930594,463.91373,93.97474,0.98038757,546.8412,72.254684,0.803142,471.8696,132.65479,0.9387123,532.16315,106.24165,0.7235093,499.79205,126.8262,0.9901743,537.2947,124.79451,0.97693276,516.1658,194.4443,0.94167274,548.669,191.23975,0.8808525,522.5963,240.0,0.58442336,552.40674,239.19145,0.4757898,1.01107609,-0.01154534,0.98921419,0.20879862
153,5100.0,487.21683,22.75415,0.141437,486.8842,17.628746,0.09455933,489.7955,15.673523,0.021952737,480.6348,16.627747,0.8102359,507.66064,11.827591,0.29575986,471.1344,45.09191,0.98884565,528.59033,34.273743,0.9471609,463.27246,97.76641,0.9778857,545.4365,72.66331,0.82762295,472.1484,134.81668,0.92938584,531.94727,106.64548,0.73751837,497.5527,128.45966,0.9893166,536.0223,125.88995,0.97706974,515.3187,194.08133,0.93927723,549.6637,189.40146,0.8858853,521.4055,240.0,0.60063744,553.3684,237.77089,0.5070762,0.96446747,-0.01473873,0.94720882,0.18104069
154,5133.333333333334,487.10605,26.821884,0.14749701,487.47098,22.011932,0.080373645,490.2071,19.571327,0.033282008,477.89087,20.904984,0.78669596,505.15182,15.227356,0.3843221,467.67157,49.624817,0.9876716,526.4033,36.34523,0.94906175,459.64273,103.52301,0.9676097,541.3845,71.55885,0.84238803,472.182,137.24564,0.9018837,532.1455,103.70117,0.7454685,496.6247,130.16756,0.98660177,535.3937,125.92099,0.97594655,516.15106,193.67064,0.9313086,550.0287,186.80289,0.89499867,518.8261,240.0,0.597061,552.22815,239.47983,0.5375813,0.95103611,0.10906658,0.92952234,0.16900406
155,5166.666666666667,485.7533,30.38704,0.15501331,485.92093,25.74939,0.080751464,488.8739,23.201134,0.036730405,475.85773,25.49205,0.77159625,503.313,19.607483,0.39918685,466.059,54.734116,0.9875907,524.0212,40.662697,0.9518483,459.4715,107.48753,0.9662335,538.55853,74.19481,0.8516058,472.28674,140.098,0.8990518,530.5751,105.89839,0.75693715,494.97382,132.48428,0.9868058,533.40533,127.84422,0.97716033,515.34454,192.98883,0.9359801,550.04443,185.08525,0.9054435,517.6606,240.0,0.6275701,552.07477,238.8172,0.576006,0.91877795,0.05207683,0.8995536,0.17956682
156,5200.0,485.8337,35.92163,0.22329469,485.9443,31.297867,0.12491469,488.63504,28.679451,0.057012867,475.2269,30.582901,0.8065732,501.61438,24.96434,0.4356776,465.17694,59.50151,0.9901952,522.0378,46.034126,0.95369667,458.97986,112.18949,0.9692452,535.26996,80.5692,0.8338365,472.69238,142.83374,0.90487444,529.2392,110.61217,0.7363632,493.88733,133.65616,0.98669934,531.86554,129.14722,0.974626,514.5988,190.24931,0.94272727,550.47217,182.01993,0.90662986,515.8994,240.0,0.6733911,551.2347,237.47357,0.6071821,0.97887895,0.05527022,0.94426107,0.25203222
157,5233.333333333333,486.22897,41.256393,0.28751573,486.05417,36.53636,0.16490312,488.63834,34.11817,0.07963741,475.2927,34.841522,0.81431097,500.59875,30.023369,0.46234065,465.78778,62.99881,0.9913685,520.4422,50.117004,0.95709115,459.051,115.7212,0.9713883,533.5377,84.87276,0.8387957,472.19138,144.76285,0.9120953,531.2806,112.28958,0.74790657,492.8957,134.32806,0.98722655,529.33856,130.01917,0.9749756,515.31006,189.1644,0.94744706,550.83105,180.91122,0.9122285,515.33295,240.0,0.7014582,548.61145,236.08917,0.6334157,0.94045898,-0.02235374,0.9049578,0.25497997
158,5266.666666666667,480.35117,46.347916,0.27717015,480.05417,41.929565,0.17703089,482.4848,39.27104,0.06063604,473.02026,41.46675,0.82401294,497.49918,35.697197,0.40894574,465.34515,69.282715,0.9916004,516.73334,55.628204,0.96394014,459.00464,119.23229,0.97664523,531.829,89.12652,0.8631676,470.26178,149.60957,0.9275871,529.9765,115.60463,0.7822898,491.91388,138.87126,0.98993313,526.7934,134.70357,0.9801696,512.9817,189.15858,0.9566864,547.8806,180.22238,0.9254651,511.7445,240.0,0.74425673,546.0746,231.73782,0.68239784,0.84175882,0.04667263,0.81554286,0.20314878
159,5300.0,484.70282,51.187454,0.2467273,482.84976,47.082253,0.09305266,486.00516,44.613083,0.0821021,468.5885,47.817825,0.63078076,492.97052,43.061844,0.53034294,461.38162,76.72161,0.98991346,510.36032,61.23764,0.9713163,456.72864,125.06537,0.9687864,530.01355,89.6606,0.91786534,467.03467,153.56549,0.9121897,538.18097,119.26116,0.8553402,489.49268,142.44936,0.99302965,521.49084,136.5976,0.9898003,513.13367,188.8273,0.9759044,546.3014,175.54065,0.9696823,510.6475,240.0,0.86570126,541.27435,228.5805,0.85338223,0.8480158,0.09309962,0.80792785,0.24024124
160,5333.333333333333,477.39822,59.10437,0.24907883,476.41565,55.01995,0.15316448,479.32797,52.296906,0.053601865,467.97894,55.351486,0.8055283,493.19592,49.644585,0.39779207,460.5862,82.976105,0.9925724,512.4129,67.401794,0.96408826,454.6066,130.58086,0.9805854,529.6368,95.00156,0.87046343,468.6503,159.26501,0.9408783,530.90845,123.42746,0.7971749,486.94556,144.155,0.99337316,521.908,138.85861,0.9861297,511.2378,188.25735,0.9796539,544.93024,173.79715,0.9625246,512.6556,240.0,0.89081204,543.75195,220.43924,0.85612786,0.89613187,-0.08179993,0.87326954,0.18374279
161,5366.666666666666,474.64407,67.94001,0.32573292,473.40085,63.572296,0.21107426,476.14807,61.03932,0.07612467,466.98972,62.74417,0.8236186,491.4563,57.40033,0.44440064,462.08975,90.918015,0.9936242,511.80765,73.55314,0.97274154,454.00623,139.00078,0.9807403,528.89246,102.07616,0.8933127,467.38986,163.28226,0.94044787,529.98706,130.4047,0.8264933,486.16803,151.1554,0.99435234,519.55365,144.61179,0.9891334,512.0449,187.38866,0.983957,542.5369,169.72441,0.97336966,511.44638,237.31885,0.92485535,536.49207,212.53043,0.9068862,0.74526511,-0.22550251,0.69370272,0.15279146
162,5400.0,473.5741,74.66749,0.307783,472.22995,70.37382,0.20873939,475.1158,67.903824,0.067922585,466.24225,70.04388,0.82757497,490.97812,64.82968,0.41393736,463.08066,98.12956,0.993764,510.60062,80.76086,0.970979,453.05508,144.07578,0.9814152,525.37915,107.637115,0.8844672,465.14664,167.98633,0.9387211,522.99994,132.43878,0.81140786,485.96115,157.53896,0.9944066,518.09827,150.35701,0.9888321,509.9381,189.62671,0.9837346,538.6045,169.16295,0.9719563,509.27576,235.56955,0.92895275,533.36145,206.09448,0.91016674,0.67020216,-0.19749893,0.59544455,0.23581962
163,5433.333333333334,472.11505,83.80552,0.30144277,470.91232,80.335205,0.19585207,474.25613,77.346436,0.07611256,464.8207,80.37256,0.7735821,489.2772,73.53215,0.4097375,460.61172,107.07721,0.98868805,507.98703,88.259895,0.96163327,452.03052,151.32184,0.9698827,525.1089,109.48497,0.8736959,464.25476,172.84132,0.917377,518.07043,133.53139,0.80153227,484.6657,162.09532,0.9888593,516.5417,154.9701,0.9811349,508.8086,196.25638,0.96621823,534.95996,178.23764,0.950411,508.2816,232.75278,0.8731233,529.05707,208.99484,0.8546469,0.75136953,-0.16581067,0.5762842,0.45272455
164,5466.666666666667,471.66446,90.98281,0.2817042,470.67493,87.391556,0.16684702,474.39603,84.97859,0.068796486,464.30792,87.04488,0.74480784,487.50034,81.69833,0.3429602,462.97144,111.46435,0.99237156,504.65826,95.03975,0.9615189,454.70847,151.07224,0.98047847,519.9512,114.81434,0.8911807,459.0197,171.03886,0.93882567,519.3402,132.49283,0.8304457,484.33633,165.34056,0.99560934,510.5991,158.32228,0.99168915,508.54327,196.25502,0.98844016,529.25916,181.42264,0.9818687,507.26352,232.20726,0.9520774,522.7029,215.52095,0.94080746,0.99397783,0.13043773,0.94598059,0.27585983
165,5500.0,470.1359,98.20186,0.30133042,468.46356,94.99469,0.20381065,472.38376,92.581406,0.06667169,464.75763,95.69928,0.69917524,487.25024,89.824066,0.3088424,460.84662,117.96719,0.9823231,502.04047,103.217926,0.9510253,453.54996,156.13857,0.96770567,517.1797,119.33389,0.86762583,454.0155,181.23224,0.91933393,506.57922,134.47885,0.8021754,480.73004,166.18564,0.98492056,507.87592,161.69244,0.97440106,503.39233,196.34149,0.95183396,524.1561,186.19838,0.926575,504.65936,230.5332,0.81847733,518.2795,216.35294,0.7866074,0.95761481,0.67675319,0.67503367,0.05797232
166,5533.333333333333,470.0429,104.23282,0.3585483,468.43726,101.14789,0.23898259,471.6927,98.8662,0.08718566,464.3512,102.02757,0.70477706,484.35275,96.72463,0.33576953,460.4509,123.99382,0.98588437,497.8262,109.90032,0.958839,452.45163,161.5741,0.97334045,512.2911,125.60214,0.884539,451.5808,186.6329,0.9329359,505.68756,139.72295,0.82741606,478.93185,168.28226,0.98788923,503.73657,163.9465,0.978874,500.1262,197.97182,0.9601366,521.6488,187.87999,0.937219,499.55914,231.0002,0.8434031,515.5227,216.42883,0.8110249,0.77085089,0.43037081,0.55122837,0.32425198
167,5566.666666666666,468.32275,108.776535,0.32203165,466.68063,106.19249,0.19660023,470.19492,103.723915,0.08033879,462.22534,109.21542,0.6448876,482.4781,103.38259,0.32445976,458.56128,131.7485,0.98213184,494.98932,116.85189,0.95616895,451.72134,169.7048,0.9687139,510.22882,131.85207,0.89417595,448.7298,195.27258,0.9276478,506.94427,145.19417,0.8446599,476.8941,173.44226,0.9855033,500.69073,168.99364,0.9769703,500.09558,194.65405,0.9540481,520.9043,185.57993,0.93444043,497.61682,230.21121,0.8328795,513.56287,217.90778,0.8084821,1.07014355,0.30017873,0.9963379,0.24982141
168,5600.0,469.56055,117.55437,0.32027158,467.48624,114.57013,0.1772524,470.3384,112.21344,0.095427476,460.7144,116.23508,0.5715459,479.41574,110.79265,0.37360573,457.35504,137.35602,0.9804745,492.43683,121.69791,0.9579271,452.43192,174.50957,0.9614858,504.2231,137.14842,0.9009498,448.7414,200.92047,0.906181,499.07343,151.68874,0.8523563,478.9502,177.70766,0.98784584,501.59128,172.85094,0.98250467,502.29718,188.76437,0.9701047,520.75256,180.93076,0.9618924,497.49036,227.71191,0.9041617,508.675,218.0575,0.89549875,1.16540237,0.60625294,0.95163043,0.29158114
169,5633.333333333334,477.42404,121.26398,0.26483694,473.1125,118.47778,0.09476459,476.3516,116.114746,0.097295955,459.34506,121.61502,0.3017881,475.97214,117.08891,0.4518649,451.4046,143.11528,0.97569895,486.00748,127.67305,0.94615734,448.29373,179.10492,0.9572936,496.61017,140.04865,0.8922578,442.72653,204.77618,0.9014191,482.76828,150.45421,0.859158,472.70914,181.63277,0.9871049,494.6716,177.0829,0.98089015,507.86798,189.77588,0.97030747,525.20776,182.00214,0.9611867,495.97134,230.65158,0.90702736,504.43622,219.11041,0.89453506,1.29644405,0.70647628,1.04399312,0.30288083
170,5666.666666666667,471.13232,127.728516,0.19119151,467.88184,125.04898,0.07654819,470.5166,122.99785,0.08282711,456.95193,127.74278,0.29634368,473.43265,124.03006,0.41148552,451.24637,146.60602,0.9441716,483.5015,135.02464,0.92207754,447.3199,178.4812,0.8899058,492.78522,151.5647,0.84843117,446.07712,200.8201,0.7796013,479.0888,163.42816,0.7821273,470.6136,185.40967,0.97387403,491.88953,182.09012,0.9695686,505.23434,191.90587,0.95484006,524.3003,184.0978,0.95390886,491.11606,231.86218,0.89822686,508.2673,221.41324,0.90126365,1.62691709,-0.57112565,1.50629784,0.22746768
171,5700.0,472.1298,135.05594,0.21912317,468.63226,132.15504,0.06707574,471.4261,130.5199,0.1262896,454.8458,133.43886,0.23231488,470.905,131.23033,0.53357726,446.56116,150.25508,0.93754166,478.82175,142.25656,0.94202065,439.18976,180.22624,0.8613326,488.58435,159.51346,0.890036,440.95355,203.65573,0.7452819,481.2803,173.20752,0.82221854,467.23813,189.7339,0.97082686,488.15524,188.09277,0.97241116,504.11417,191.97293,0.9485791,523.17365,185.99428,0.9564678,491.03,229.92102,0.8914901,508.3963,221.46252,0.9046059,1.62691709,-0.57112565,1.50629784,0.22746768
172,5733.333333333333,472.39822,140.88634,0.21123476,468.88287,137.69688,0.04971063,472.0432,136.54678,0.17522712,452.2368,137.4812,0.1713429,469.13168,136.7331,0.6359351,442.08087,155.58836,0.89619887,475.59695,146.08902,0.9444534,431.44235,189.11446,0.7230559,481.89352,161.84097,0.8987968,438.01108,203.34024,0.58917695,472.01843,170.50108,0.819828,458.89627,198.8863,0.9495912,480.464,196.24515,0.96696144,494.469,189.64699,0.936811,516.67676,183.43407,0.96253324,486.84775,227.2428,0.90278363,507.76666,222.65851,0.9293831,1.55140166,0.11766417,1.52742334,0.2449085
173,5766.666666666667,469.83676,143.60245,0.24487196,466.4311,140.08594,0.05337988,469.77402,139.25299,0.20208198,449.307,139.28128,0.17684886,467.3552,139.34169,0.66124165,438.67645,158.02988,0.9044068,472.06067,150.30392,0.9581838,426.30673,194.03229,0.74068856,475.71887,172.66101,0.92520124,435.21902,204.50879,0.6202185,465.68726,187.25548,0.85527647,453.86365,205.73222,0.9419156,475.5017,203.89546,0.9653058,488.03412,189.20476,0.91884404,511.4694,183.38873,0.9550587,485.97104,228.47202,0.8700573,507.3161,224.34613,0.90889585,1.00829006,0.17096923,0.98380999,0.13977226
174,5800.0,455.00537,147.9745,0.115674816,451.63324,145.66309,0.027017122,456.06595,144.01994,0.07921252,437.56775,147.58292,0.12592119,457.4244,144.99669,0.43058708,432.01703,166.76164,0.81512666,465.52243,154.05226,0.9161852,425.4858,200.6044,0.6700039,474.0044,171.93408,0.90217704,434.8499,207.06644,0.5781389,462.01187,189.79744,0.839078,455.30496,211.98622,0.91737074,476.62497,208.42963,0.9526065,486.16226,186.24707,0.9048995,507.53754,179.49011,0.9501001,488.20938,228.49887,0.86468774,508.25098,226.23111,0.90960366,0.69247101,-0.22009831,0.64776702,-0.10710141
175,5833.333333333333,434.17065,152.23184,0.099241294,431.91693,150.22891,0.0337061,436.46185,148.06493,0.043868363,424.2915,153.0627,0.1879864,443.65265,148.16588,0.23663363,422.6123,172.45464,0.8151387,458.92322,156.2247,0.8642598,420.23914,205.8415,0.72622114,473.641,169.99333,0.855621,428.67117,203.56796,0.66652626,456.3477,179.31326,0.81536555,452.56412,210.33325,0.88667643,476.24738,205.3413,0.9187031,476.97116,185.37354,0.86009914,503.33862,176.81714,0.90920025,480.39395,228.32535,0.7849949,510.61432,225.76862,0.8397547,1.04247537,0.28249226,1.00321598,-0.02259938
176,5866.666666666666,432.93542,155.05336,0.10118221,430.68463,153.00642,0.035228636,435.41196,150.90314,0.04093342,422.9406,154.7168,0.20739642,442.01038,150.29645,0.21325368,421.008,172.14568,0.85351425,455.89017,158.0149,0.8750605,416.44516,204.42633,0.7914238,468.1416,174.74493,0.86591333,425.21902,202.71637,0.73133385,451.42596,187.73914,0.8283538,451.36615,208.20079,0.92393124,474.14453,203.89365,0.9407216,474.90027,185.80995,0.9063688,500.50854,177.07068,0.93380535,479.8949,228.20227,0.8457667,509.23267,224.7245,0.8801207,1.49455145,0.29133549,-1.21889267,0.81431463
177,5900.0,433.66458,154.34436,0.08896221,430.70782,152.5923,0.02385302,435.62286,150.76624,0.042764988,420.67688,155.71397,0.13284922,439.8113,151.87624,0.25224566,419.14172,174.30988,0.82248485,451.34094,159.15266,0.8894593,415.93268,205.4186,0.75795275,466.89966,170.58836,0.90035486,423.28235,201.48148,0.7134451,455.81613,178.31137,0.8690135,448.2241,209.63007,0.93101054,468.83972,205.24437,0.9549952,474.79752,185.17719,0.9179605,498.78766,176.5631,0.95194685,481.62695,226.12666,0.8698992,507.87112,222.79822,0.9097884,1.37791174,0.22845026,0.3800135,1.30462293
178,5933.333333333334,445.10553,158.29262,0.07400045,440.68222,156.47026,0.0141132865,446.3708,154.83125,0.050342966,424.88687,158.34976,0.05903305,444.06238,155.47717,0.30868313,420.6991,175.34482,0.7220195,447.3114,161.37114,0.87016165,418.57285,204.44002,0.65539676,460.2008,168.5491,0.89890593,424.83777,203.40392,0.62928444,450.1065,174.15532,0.86758244,444.28094,209.135,0.9169494,461.23343,205.7219,0.95258033,479.94568,187.54703,0.9126221,498.37732,178.68756,0.9547058,491.0807,227.38628,0.87904906,506.8398,222.09695,0.92142856,1.78569586,0.10587318,1.21889267,1.3006926
179,5966.666666666667,457.69687,157.73944,0.2667234,453.4034,155.7297,0.039356455,457.79642,153.84082,0.3012198,434.54312,155.59082,0.041585743,446.76434,152.49527,0.63218325,427.82092,169.50131,0.7117382,439.37402,160.95735,0.9283608,440.49646,190.47629,0.5004348,457.11206,171.66139,0.9255185,459.7115,179.8026,0.5124051,460.43326,170.62993,0.8872999,440.10977,206.61615,0.8837923,448.28,205.44826,0.94869864,481.75867,190.46869,0.88732505,491.88937,180.77425,0.95426255,494.95245,227.76544,0.8717488,506.3585,218.7887,0.92767817,2.90999035,-1.16018341,0.36674864,2.64339058
180,6000.0,452.4273,160.56696,0.19473372,448.07983,158.42572,0.02836422,453.07474,156.88347,0.21331103,428.67252,158.36722,0.041168544,442.99506,155.84071,0.56992227,423.0807,172.35118,0.7069214,434.11963,164.44989,0.9157297,433.62643,193.45995,0.5196815,450.3339,175.00827,0.91428673,451.48288,183.44048,0.51716805,456.51743,174.9521,0.8705261,438.36865,208.02194,0.8949466,446.15073,207.42596,0.9507388,478.48422,190.90149,0.9022486,487.5057,181.44658,0.9573243,500.78284,225.21133,0.8923125,510.5059,215.83438,0.9368365,2.90999035,-1.16018341,0.36674864,2.64339058
181,6033.333333333333,439.06625,156.35535,0.14232482,434.71814,154.14102,0.025391294,439.59122,153.62305,0.1249072,418.4853,156.41838,0.04807773,432.57278,155.72472,0.4090347,420.1802,172.94609,0.71983266,425.29892,167.81807,0.8853654,433.6886,190.35985,0.586994,443.89697,176.65495,0.8868668,445.29898,175.62875,0.56589055,447.84473,169.33257,0.8442946,440.0473,208.3117,0.90815157,444.4721,208.87254,0.94910836,475.62704,191.31587,0.9109598,484.01416,182.22752,0.95406175,506.09616,219.53865,0.89742553,517.588,209.06746,0.93412274,0.96485489,-0.25350609,-0.33113005,0.87007615
182,6066.666666666666,436.85278,159.38655,0.20590635,432.70242,156.99486,0.04315522,436.95773,157.08307,0.17414582,417.89856,159.66489,0.06534196,429.80878,159.944,0.44124317,420.71677,176.46664,0.77773315,423.32376,172.91939,0.8991168,437.7395,189.6009,0.64123446,444.32785,177.38185,0.88418853,446.29416,177.44484,0.60766363,446.1619,169.44662,0.84283257,440.90375,207.77872,0.92119956,443.69604,209.25302,0.9529613,475.62372,190.81981,0.92125684,481.22382,183.69386,0.95607156,512.9306,213.88373,0.9099746,520.31146,205.455,0.939356,1.13698172,1.01451567,-0.4767978,-0.19012957
183,6100.0,428.6848,152.544,0.15757704,424.24164,149.52634,0.038541712,428.52698,150.71628,0.12747777,409.08377,153.7807,0.06999001,421.4508,156.68053,0.3446799,414.21234,173.59773,0.7231556,415.25293,174.94238,0.8266536,434.2554,187.03938,0.583974,434.46118,182.55821,0.78818536,445.22607,176.73602,0.54449224,440.87363,172.53563,0.7436916,439.29114,202.50394,0.8716665,441.88605,206.86009,0.90800697,473.82578,187.6903,0.86967576,479.553,184.85687,0.91130567,517.63855,206.2443,0.85308635,523.7607,201.25644,0.8866217,1.13698172,1.01451567,-0.4767978,-0.19012957
184,6133.333333333334,424.13605,160.87105,0.15784675,419.51596,158.71945,0.037586257,423.78888,160.54926,0.14964311,407.61932,163.01308,0.07218653,420.66824,167.08441,0.46071932,414.64142,179.04639,0.7321548,417.082,181.19757,0.9127612,434.60828,184.46104,0.5741021,436.7603,180.4921,0.8945818,440.43164,173.93694,0.51465666,436.03534,170.01953,0.82537955,439.69672,199.59314,0.92741996,443.75085,204.15974,0.96238613,472.7007,183.62895,0.91390145,478.0036,183.77399,0.95740473,514.0742,193.06947,0.89754844,518.4711,192.89178,0.9350121,0.87075699,-0.81529721,-0.14222871,-0.27070127
185,6166.666666666667,418.62433,142.2908,0.10988218,413.64865,139.88167,0.021333188,419.27652,140.95264,0.10490478,398.17035,146.33081,0.062492207,418.1173,149.37198,0.44257498,405.9261,169.40186,0.7016326,416.82584,172.5083,0.90386856,435.57755,187.69571,0.51194304,446.1219,188.00717,0.8973016,462.7132,178.59299,0.4909536,468.19025,175.64957,0.8338602,433.10303,200.75182,0.8894514,442.81082,205.95456,0.94474626,467.7737,177.16325,0.8608767,477.7108,179.4062,0.9350637,496.81616,187.12689,0.8363271,505.65527,190.34558,0.8975198,2.12762245,-0.60969198,0.89120165,1.83325192
186,6200.0,417.215,147.83511,0.1464869,412.09814,145.04105,0.038788218,417.71527,145.52528,0.124432646,395.9422,150.23894,0.08002439,413.51196,152.54617,0.3320635,401.48425,172.2301,0.6362573,414.8474,174.1262,0.78468645,428.71808,190.77858,0.44590366,434.20755,190.03018,0.7513779,456.04086,180.23764,0.44635478,456.1465,179.29079,0.7128211,433.6626,200.4909,0.7498484,444.2462,205.54787,0.82843536,470.7796,179.7891,0.71356994,480.98868,181.27313,0.81481385,494.02945,183.16238,0.70439255,502.07153,184.36728,0.7747539,1.44278552,0.77746782,-0.80301494,0.91232716
187,6233.333333333333,416.57956,150.58818,0.13772228,411.66907,148.1287,0.02754364,417.9099,148.7355,0.11300936,395.92065,153.67636,0.08320716,417.0365,155.91342,0.38388288,398.5282,176.09631,0.69194764,425.66116,173.1735,0.8759006,428.459,191.48045,0.5350026,467.32816,179.31253,0.8980596,470.52527,183.54248,0.5812959,513.19855,174.0431,0.86702204,428.68704,203.86678,0.82238644,446.7196,206.60849,0.9042498,463.2125,181.09222,0.72947574,481.51294,180.13011,0.86087286,490.09293,185.96774,0.66325325,503.3002,185.84048,0.77019423,1.49211187,0.61067456,-0.99928565,0.92460943
188,6266.666666666667,424.6407,166.88245,0.20890142,421.43427,164.66223,0.04923566,425.1741,165.2889,0.18843144,409.75958,167.4616,0.121652834,423.87906,169.73883,0.49943975,408.0169,183.3555,0.73828053,432.18616,181.79752,0.918031,426.78156,187.81314,0.5701186,474.37366,181.73378,0.92280394,457.67273,180.92245,0.61432076,515.3508,176.39764,0.8937905,432.40012,199.99007,0.8623845,447.57672,202.7622,0.93297255,465.56708,184.86732,0.8008456,481.237,185.74692,0.90814924,491.83847,188.13362,0.72456694,505.2646,192.73169,0.822085,1.82867873,0.47483263,-1.07838348,1.39845949
189,6300.0,413.2422,151.012,0.20477577,409.61893,148.7319,0.050499763,415.62323,148.61539,0.14358649,395.2915,153.09875,0.16257672,416.7284,152.93404,0.44012454,395.01672,175.50174,0.84625983,423.42603,167.5638,0.9177678,405.819,198.67982,0.6974003,465.91754,175.98933,0.90557057,429.8416,193.1002,0.6740956,515.679,173.20183,0.86461955,422.97446,203.31297,0.9024151,440.19562,203.75826,0.93932176,457.05835,186.22122,0.8401268,474.0712,181.32353,0.90921414,491.9907,191.66748,0.7741672,503.98492,188.09767,0.83962244,1.95962631,0.24196076,-0.98405563,1.67726706
190,6333.333333333333,417.04596,154.421,0.26514122,414.95563,152.48604,0.081502154,418.84177,151.70612,0.20332697,402.4748,156.3438,0.19814867,418.06873,154.6429,0.48065707,400.18774,178.54945,0.8477824,421.55597,169.27661,0.9092992,409.3239,198.67029,0.6453547,463.02017,177.88754,0.8563764,433.82117,192.65802,0.5979078,508.48254,177.28368,0.79348624,423.20618,206.30362,0.89572215,436.13278,205.70193,0.92965233,454.30676,187.78189,0.88009655,467.82227,180.30032,0.92602676,496.04526,192.2857,0.8571863,508.88638,186.00053,0.89411265,1.13046498,0.44486389,0.04347924,1.03834327
191,6366.666666666666,419.51266,149.05348,0.16895401,415.78973,147.59708,0.03215946,421.36722,146.53954,0.15007493,397.75916,152.56122,0.10329058,418.32773,150.38803,0.55533683,396.23096,172.59724,0.854014,415.5308,163.75154,0.94148207,410.20166,194.91885,0.67783743,447.01996,170.89111,0.920944,435.25394,186.69717,0.59710044,469.69244,169.40582,0.8488162,416.77515,206.68066,0.952841,429.8911,205.68394,0.9734142,451.25378,196.29747,0.93710876,462.3471,185.3887,0.967138,488.111,211.27737,0.92201364,496.86786,198.72357,0.9493116,0.85185355,0.26284062,0.09260833,0.80498011
192,6400.0,420.82516,152.74536,0.18814787,417.5611,150.96649,0.040939018,421.30096,150.57025,0.18908978,403.7453,154.39978,0.084928185,417.14758,153.5111,0.5630682,404.60406,172.56136,0.7886272,411.30847,165.31665,0.9310884,420.73007,186.76143,0.56760055,435.80298,168.43208,0.9014137,437.93533,178.74094,0.48124906,437.72534,169.94786,0.8148364,419.37042,204.72476,0.9465827,425.00372,204.194,0.97299385,457.46585,197.1809,0.9479251,462.0563,186.59488,0.97576255,499.042,213.42538,0.94309527,503.05222,201.92029,0.96589255,0.8975126,0.55908902,-0.2156767,0.6681556
193,6433.333333333334,421.15393,153.97006,0.109891325,417.83255,152.07648,0.025641657,422.0238,151.60706,0.1125999,403.99915,154.66621,0.06934256,418.326,153.72267,0.44935593,405.21497,171.57446,0.7016667,410.83536,164.21829,0.8757392,418.53015,186.28584,0.48765466,431.8226,168.46977,0.83570427,434.3261,177.1793,0.39844903,434.13196,172.20818,0.71955115,419.56436,201.66798,0.9273276,424.68988,201.03612,0.95921046,457.79523,198.36697,0.93693817,462.57892,187.13979,0.96736914,499.3706,213.21625,0.93731403,503.86035,200.74814,0.95984185,1.31720119,0.76150086,-0.28470306,1.03637811
194,6466.666666666667,416.18964,152.94926,0.09624235,412.84128,151.24872,0.025984183,416.9771,150.82564,0.09696635,399.91016,154.82053,0.07820654,414.16168,154.06638,0.4025661,403.91064,172.68427,0.67116576,408.88037,165.07526,0.8442613,417.98416,187.28477,0.44282353,430.43677,168.45378,0.78773487,435.51917,177.28754,0.34991404,436.3541,171.21416,0.6534964,424.28256,199.77797,0.90987813,429.21954,199.11232,0.94669217,460.16367,200.92264,0.92172974,465.29846,188.77615,0.95705193,503.00067,214.28833,0.9224081,508.17676,199.91226,0.9486418,1.29485928,1.01746341,-0.4119474,0.68682465
195,6500.0,414.39896,144.4013,0.13957323,410.81207,142.22678,0.035542827,415.38846,141.8162,0.14892569,395.83032,146.63437,0.095273525,412.9581,145.9055,0.52359277,399.00555,168.75247,0.71563476,408.01138,162.96591,0.89001304,414.33807,184.75719,0.4179731,427.9043,168.53403,0.81298965,428.34448,173.2878,0.3175573,425.65775,165.49792,0.6712114,420.65387,200.83022,0.9008504,428.82083,201.0083,0.9467578,458.90067,200.68073,0.9133658,466.2932,189.9397,0.95720196,502.3309,215.21094,0.91384953,508.639,203.34955,0.9468485,1.4079376,0.77132668,-0.83666837,0.82905336
196,6533.333333333333,410.41013,152.09454,0.13380806,406.8604,149.96892,0.040084973,410.91724,150.34938,0.12520294,395.92462,153.50969,0.09975466,409.54727,154.27824,0.4309071,402.36945,171.03313,0.72147685,406.09335,167.9295,0.87835026,415.24762,178.8262,0.4975008,423.8578,168.70438,0.81497866,417.33563,164.55019,0.3916719,417.61646,162.90536,0.6976123,427.76788,196.82068,0.9285774,431.96274,198.26262,0.95878726,464.89566,201.62332,0.935345,469.1848,193.23407,0.96561927,508.7104,216.0803,0.92813045,512.43286,206.33368,0.9538924,1.20227737,0.5038188,-0.79761074,0.74528826
197,6566.666666666666,403.39514,155.98007,0.09164999,400.0641,153.52641,0.031651225,403.90768,154.76764,0.084010735,391.45636,155.55807,0.09123505,403.43103,158.42393,0.30638275,400.20343,170.23073,0.62498224,400.08078,169.28839,0.79622984,410.66385,173.51642,0.44373906,414.03247,165.76678,0.7354965,414.9472,162.90279,0.35767755,416.2654,162.96214,0.6200848,428.48654,193.58015,0.9125814,430.05182,196.50653,0.94452065,465.53247,200.78458,0.92666286,468.8767,195.23975,0.95704013,510.1632,214.25969,0.92274415,512.9693,207.15504,0.9471782,0.95032427,0.28765081,-0.38787415,0.8184906
198,6600.0,411.61453,159.66743,0.16297942,408.9601,156.4555,0.07052465,412.8816,157.60744,0.101276435,400.52182,157.12315,0.17258853,412.44482,159.86342,0.22391713,405.17084,171.66211,0.7420777,409.49524,171.62444,0.7489769,411.90906,181.04292,0.6148013,420.36057,175.57938,0.6610382,416.64374,172.10638,0.54218394,422.97372,171.53401,0.6198375,428.23343,195.46529,0.86465394,432.01837,198.7463,0.87894917,464.09308,199.60074,0.8669867,469.497,195.84753,0.8893614,511.63605,214.11429,0.83803433,513.18427,210.03079,0.86150753,1.14850206,0.17416262,-0.4767978,1.03023697
199,6633.333333333334,414.75012,151.8087,0.17284271,412.04135,148.44055,0.068217486,416.20987,149.26419,0.1171002,401.7469,150.27267,0.17051555,415.48462,152.46846,0.26945925,405.0689,169.23953,0.7352158,410.8091,168.95613,0.78219086,411.40747,182.9008,0.5649835,420.0256,176.81131,0.68651325,419.32697,172.63478,0.49331138,422.9112,171.03673,0.62951225,426.9275,197.46086,0.84244084,432.21912,200.77493,0.8717604,465.5171,200.51457,0.8443438,471.73688,196.0763,0.8826733,512.1338,216.29721,0.8137354,514.5351,211.85107,0.85022634,1.14136687,0.43037081,-0.35741411,0.99486403
200,6666.666666666667,400.33347,155.57652,0.08961673,397.70102,153.14253,0.03194023,400.63525,154.59787,0.0840633,390.01196,155.13634,0.093344174,399.2684,158.64659,0.28360605,398.86404,168.96779,0.59996563,394.08197,168.3244,0.7765153,404.2921,174.3251,0.42394945,401.27194,165.85258,0.71623063,413.31845,163.00755,0.34692594,414.29892,163.14049,0.60176486,431.26746,192.57812,0.9011486,429.58688,196.53563,0.9363784,467.0606,201.36717,0.9155879,468.71515,197.98724,0.9488481,512.70013,216.02089,0.9081606,515.7738,211.07915,0.9353669,0.96365895,0.35937928,-0.20290313,0.87081308
201,6700.0,400.65668,156.85924,0.064822845,397.9626,154.27711,0.02140933,401.2744,155.76181,0.061357923,389.85522,155.56079,0.07523585,399.9043,159.32,0.25002986,398.08368,168.92403,0.5479719,393.10892,168.77011,0.7542334,400.69464,173.79462,0.40683013,397.83124,166.26611,0.72080064,411.3143,162.12332,0.3456577,412.14075,163.07045,0.6141389,429.9285,192.48302,0.8973111,428.2724,196.74597,0.9356705,467.35458,201.82452,0.91016287,468.99854,198.44427,0.9467613,512.79675,216.24571,0.89873624,515.727,211.07515,0.9295623,1.00387781,0.22255477,0.00073694,0.97889708
202,6733.333333333333,399.35272,160.5686,0.05485031,396.59045,158.03595,0.017410291,399.54053,159.88481,0.0510142,387.83875,159.10553,0.06906411,396.46252,164.09572,0.2244644,395.64374,170.62958,0.5480098,388.74286,171.93361,0.7472345,394.3519,174.81781,0.44286233,387.9172,168.67477,0.7337531,410.17456,162.95906,0.39105088,408.78906,163.34375,0.64354837,432.42752,191.7547,0.91120213,429.42093,197.32416,0.942797,468.99582,201.4465,0.92087805,469.5569,199.93246,0.95060253,514.67004,216.78229,0.90312606,517.0631,212.58116,0.92983204,1.03043604,0.34095587,0.0513399,0.97103642
203,6766.666666666667,400.8878,158.50848,0.05489517,398.45416,155.79984,0.016016765,401.035,157.4565,0.047333907,390.18396,156.21098,0.06438192,397.53677,160.69672,0.21472707,398.13986,167.74191,0.59489244,387.10123,168.14621,0.7790402,395.2025,175.96503,0.5190858,383.64557,168.5816,0.78396827,410.96057,163.66753,0.4659527,407.89203,162.9978,0.7058251,432.92596,193.1966,0.9289889,427.08313,198.57944,0.9539968,469.56363,201.61786,0.92903006,468.46002,199.95898,0.9551889,513.2949,218.97453,0.9028348,516.3223,214.47345,0.92879254,1.03043604,0.34095587,0.0513399,0.97103642
204,6800.0,400.40356,153.3455,0.057552714,398.0763,150.20476,0.014954193,400.26138,152.21078,0.050709657,390.76038,150.50479,0.055673536,397.0426,155.58102,0.2314783,400.03094,163.1937,0.59496456,385.82742,164.40756,0.8145352,398.52106,175.52371,0.51453257,384.44113,169.80154,0.82748353,412.60632,165.15892,0.46327728,408.67975,164.17093,0.7491091,431.69147,193.64772,0.9322909,423.63562,199.2785,0.96061987,469.83917,200.25797,0.9288566,467.7114,198.5564,0.9601054,512.3271,218.97365,0.9018074,516.4603,214.20477,0.9333098,1.10700106,0.21125508,-0.05969184,1.08501591
205,6833.333333333333,396.26257,147.99477,0.07509972,394.05603,144.65256,0.019439843,395.64532,146.69885,0.06243669,387.63922,145.20572,0.057058208,391.54886,150.04634,0.2390471,398.76703,159.19644,0.63629097,380.6789,160.71606,0.8250515,402.6785,173.28394,0.5600015,384.0308,168.8661,0.8345249,413.9286,165.08221,0.51275873,410.78238,164.47012,0.77027744,431.24017,191.3543,0.9342012,420.61954,197.3111,0.95987767,468.91702,198.8717,0.92597026,465.86145,198.2232,0.956779,511.18698,219.90718,0.88987774,516.17053,216.20238,0.923065,1.0821394,-0.08744978,0.0216168,1.07838348
206,6866.666666666666,400.28033,158.24931,0.08596461,398.61774,155.08917,0.028889671,400.77618,156.37924,0.058863062,391.8676,156.5051,0.099488474,398.41394,159.69382,0.19491313,398.08356,169.87505,0.712563,389.55426,169.64684,0.7688219,397.47473,178.85103,0.6480724,387.83777,171.37898,0.7492947,408.77435,168.13016,0.573042,409.99774,166.00388,0.6858871,429.5701,195.16852,0.91695154,424.9978,200.07745,0.9306638,466.95395,200.80428,0.89817876,466.9722,199.07068,0.9179928,508.66928,220.6326,0.85470974,513.86523,216.30275,0.8759749,1.0987179,-0.11324255,0.05158554,1.09164833
207,6900.0,401.23608,162.11197,0.047312114,398.90765,158.75403,0.016864952,401.4276,160.64061,0.034682862,390.30957,160.20111,0.07049708,397.3608,165.03317,0.138632,394.64508,173.04247,0.55718046,388.66296,174.47232,0.6002902,392.7301,180.41742,0.5295886,385.36487,173.72832,0.60203147,405.7752,169.32704,0.47688004,406.54132,167.29932,0.56185436,426.78406,193.26419,0.8620893,423.9898,199.24623,0.87606823,462.85767,199.36993,0.8603588,463.979,200.69763,0.8771485,507.2165,218.02231,0.8248279,509.83362,217.45642,0.84038,1.05050685,0.03537294,0.15377405,1.03858892
208,6933.333333333334,392.92288,157.15991,0.049726654,389.94016,153.97333,0.014508801,392.7988,155.70677,0.04171677,378.37247,156.13272,0.05963619,386.7777,160.93471,0.18135153,383.4485,170.2732,0.53856695,379.1383,172.00629,0.67301196,384.15518,182.98636,0.4749291,379.2202,176.4397,0.68565446,404.50024,171.20618,0.44045216,407.35376,169.20729,0.63369256,424.44327,194.97578,0.85267836,422.7292,201.71936,0.889998,462.8393,198.12758,0.8492176,464.34445,199.00632,0.88986206,507.772,218.14677,0.8122524,512.1904,216.4998,0.8481481,1.05050685,0.03537294,0.15377405,1.03858892
209,6966.666666666667,386.47888,156.86504,0.07053956,382.99857,153.79668,0.020641457,386.19305,155.54877,0.058299016,371.25574,155.97417,0.06977512,380.07745,160.89609,0.20948777,378.90558,170.3611,0.59882355,375.06976,173.0198,0.7289734,385.90384,182.2373,0.5138586,379.01703,177.51694,0.72938323,407.26688,173.09497,0.47740036,408.69623,170.83412,0.6806586,426.21964,195.28061,0.8805966,424.83768,202.74173,0.9127782,467.68704,199.57516,0.8749209,468.99728,201.02307,0.9119111,512.33215,221.66623,0.83404464,515.72534,220.2707,0.8693695,1.11240312,0.30754809,-0.09973205,1.06438169
210,7000.0,387.35568,158.65813,0.08276386,383.82504,155.79012,0.023138037,387.11783,157.39268,0.06624052,372.0686,158.08755,0.07503139,381.11484,162.724,0.23069096,379.91724,171.75266,0.64441067,375.45844,174.73834,0.7845497,385.8395,182.52795,0.5660016,377.62274,179.19821,0.7901994,405.83295,173.2491,0.53322446,407.51755,170.86664,0.7462637,427.5827,197.24629,0.8962612,425.84366,204.79958,0.9280764,468.45575,199.82765,0.8795681,469.76163,201.21613,0.91905385,510.2212,223.2641,0.82609874,515.0535,221.59402,0.86685145,1.07089475,0.34807959,-0.13682451,1.00346162
