frame_id,timestamp_ms,nose_x,nose_y,nose_conf,left_eye_x,left_eye_y,left_eye_conf,right_eye_x,right_eye_y,right_eye_conf,left_ear_x,left_ear_y,left_ear_conf,right_ear_x,right_ear_y,right_ear_conf,left_shoulder_x,left_shoulder_y,left_shoulder_conf,right_shoulder_x,right_shoulder_y,right_shoulder_conf,left_elbow_x,left_elbow_y,left_elbow_conf,right_elbow_x,right_elbow_y,right_elbow_conf,left_wrist_x,left_wrist_y,left_wrist_conf,right_wrist_x,right_wrist_y,right_wrist_conf,left_hip_x,left_hip_y,left_hip_conf,right_hip_x,right_hip_y,right_hip_conf,left_knee_x,left_knee_y,left_knee_conf,right_knee_x,right_knee_y,right_knee_conf,left_ankle_x,left_ankle_y,left_ankle_conf,right_ankle_x,right_ankle_y,right_ankle_conf,acc_x,acc_y,acc_z,acc_mag
0,0.0,490.7306,96.01487,0.9123662,492.41565,93.958305,0.88257295,489.50372,94.11738,0.7932874,496.47763,94.322464,0.7593758,488.25418,94.86569,0.481887,502.73785,105.59018,0.9925402,485.5839,106.66896,0.9919071,508.2347,120.0974,0.96583563,479.96164,122.91626,0.93605745,504.86618,130.92633,0.9381282,473.31686,137.50926,0.8947828,500.12454,136.70207,0.99578816,489.45612,136.91512,0.9954673,501.23813,161.44604,0.9900225,489.27515,161.48758,0.98718446,503.13278,186.58679,0.9777319,491.79477,186.36015,0.973177,0.81803347,-0.3313757,0.73104083,-0.15795002
1,33.333333333333336,489.21118,96.347725,0.890119,490.88144,94.30539,0.8706164,488.35422,94.42412,0.7228351,495.4395,94.54061,0.778807,487.9848,94.995415,0.38410878,502.31665,105.69805,0.99193394,485.70474,106.51428,0.98846185,507.8416,120.3513,0.9680495,479.93484,122.56596,0.9089932,504.3781,131.40804,0.9399927,473.21408,137.00253,0.8626526,499.47684,136.90176,0.9957247,489.21164,136.91422,0.99465394,500.75607,161.40933,0.99083066,489.15082,161.2923,0.98624796,502.71884,186.64594,0.980229,491.6976,186.08891,0.9732674,0.61061058,-0.14149177,0.57603856,-0.14493081
2,66.66666666666667,489.2836,96.42975,0.93272686,491.26617,94.29329,0.91551226,488.02255,94.41076,0.82803994,495.91763,94.490074,0.8104694,486.854,94.93357,0.49318817,502.21164,105.88188,0.9937004,484.5535,106.68633,0.99237615,507.3611,120.865814,0.9687326,479.4147,122.757996,0.92973906,504.7842,132.74942,0.9414587,473.2679,137.09637,0.88639104,499.32187,136.92078,0.9955166,488.41727,136.98192,0.994902,500.3298,161.60298,0.9890698,488.71066,161.4689,0.9851028,502.22263,186.60155,0.97563905,491.85648,186.05833,0.9693244,0.80594086,0.22009831,0.6973874,-0.33874506
3,100.0,488.47778,96.580765,0.9263461,490.46844,94.46603,0.90954334,487.3494,94.558304,0.8109293,495.23853,94.78421,0.8076775,486.4588,95.13745,0.47059858,501.5886,106.405,0.9932066,484.14703,106.97445,0.9914035,506.49976,121.80911,0.9670373,479.0753,122.99921,0.9218753,504.5697,134.81947,0.93769264,473.1524,137.59233,0.8753196,498.76923,137.21498,0.99518496,488.06403,137.19585,0.9944101,499.73962,161.52167,0.98861223,488.58185,161.32733,0.9841908,501.81155,186.22964,0.97524434,492.0655,185.56534,0.96837056,1.29247428,-0.0729567,1.19383684,-0.48981701
4,133.33333333333334,488.23798,96.48981,0.9232184,490.15106,94.38918,0.9008464,487.05225,94.50192,0.81217635,494.60883,94.78664,0.7885052,485.97427,95.15409,0.4917977,500.8019,106.52075,0.9928347,483.4226,107.099236,0.9917436,505.6964,122.16669,0.9642013,478.4505,123.22397,0.92772084,503.76782,135.84024,0.93298376,472.9691,138.1141,0.88106793,498.36404,137.31084,0.99507695,487.69754,137.37225,0.99458003,499.1344,161.50761,0.98822916,488.23685,161.39877,0.9845673,501.42554,186.05043,0.97440696,492.13156,185.53108,0.968617,1.26605543,-0.06362217,1.16313116,-0.49595814
5,166.66666666666666,487.1832,96.21093,0.8862202,488.89145,94.21014,0.8601776,486.36588,94.28288,0.72663033,493.31512,94.785965,0.7599703,486.0832,95.039215,0.40932396,499.9207,106.50392,0.99115294,483.527,106.93804,0.98849875,505.2045,122.003815,0.96243376,478.33594,123.07474,0.91122186,503.2165,135.32588,0.9293422,472.73032,138.10454,0.8608068,497.63025,137.30634,0.99508446,487.62814,137.28452,0.9942286,498.64713,161.22353,0.98930407,488.1922,161.08139,0.98510265,501.20535,185.83028,0.9773852,491.99612,185.21552,0.97098416,1.14730821,-0.03389907,1.03809763,-0.48736055
6,200.0,486.30145,96.36723,0.8741531,487.9433,94.3593,0.8493409,485.556,94.44834,0.698162,492.34122,94.91468,0.75753284,485.55106,95.1833,0.38521802,499.13898,106.63562,0.9906984,483.19427,106.970955,0.9871207,504.74316,122.37988,0.9617863,478.07803,122.93004,0.9020141,503.15518,136.7478,0.9269581,472.3859,137.97806,0.84868366,497.1172,137.23415,0.9950264,487.43692,137.18724,0.99397403,498.15817,160.98984,0.9895989,488.02777,160.85066,0.9850751,500.89508,185.5831,0.97836477,491.96625,184.95406,0.97159845,1.02526815,-0.02112551,0.93787429,-0.41366692
7,233.33333333333334,486.84152,96.53417,0.8960061,488.5239,94.4973,0.86762816,485.84616,94.61184,0.7532343,492.69595,94.92792,0.75908333,485.18024,95.257225,0.4418896,499.24637,106.54728,0.99165416,482.637,106.99553,0.98979634,504.6898,122.34973,0.96237487,477.8863,122.983215,0.9193923,502.9572,137.03592,0.928953,472.4046,138.12434,0.86990166,497.24896,137.11794,0.995259,487.11096,137.16185,0.9946319,498.11453,160.98224,0.98953956,487.70215,160.90536,0.9859736,500.68127,185.54779,0.9777265,491.66577,185.06119,0.9721835,0.94245192,0.01793212,0.88088455,-0.33456909
8,266.6666666666667,487.07196,96.58402,0.8946274,488.68347,94.54049,0.859156,485.96658,94.684,0.7607611,492.60858,94.92926,0.7373383,485.04327,95.2922,0.46593043,499.06387,106.462944,0.99135417,482.33917,106.85607,0.99049723,504.4613,122.442795,0.9603112,477.61066,122.68216,0.9285458,503.23758,137.84814,0.9262065,472.3716,137.75296,0.8810911,497.22345,136.87848,0.99528474,487.0422,136.94025,0.9949753,497.84537,160.71695,0.98940116,487.59326,160.6607,0.98668426,500.06656,185.24136,0.9772017,491.40533,184.83615,0.97287434,0.97505243,-0.03070568,0.92829412,-0.29673969
9,300.0,486.50684,96.44595,0.8924413,488.15414,94.43729,0.8617046,485.49814,94.5456,0.74951583,492.21338,94.9395,0.7503715,484.82013,95.20875,0.44532308,498.66595,106.56265,0.9913175,482.21136,106.77608,0.98955756,504.1408,122.456406,0.9608156,477.31952,122.28795,0.91942245,503.2102,137.86717,0.92613196,472.3628,137.03581,0.8693597,496.7494,136.80823,0.9950805,486.76053,136.78288,0.9944976,497.4709,160.47043,0.989129,487.46884,160.34297,0.98566854,499.69382,184.87308,0.97684413,491.2485,184.33582,0.9714462,1.01588619,-0.05551587,0.937383,-0.3876285
10,333.3333333333333,486.35385,96.63005,0.91028166,488.1181,94.593185,0.882737,485.20743,94.6984,0.7881131,492.2381,94.958885,0.76757455,484.1838,95.23193,0.47980887,498.6193,106.40451,0.99223584,481.53882,106.69028,0.9909807,504.097,122.22342,0.96264035,476.9905,122.19353,0.92647666,503.12558,137.36923,0.92970896,472.67575,136.66292,0.8789036,496.7097,136.59859,0.995135,486.31686,136.61621,0.994665,497.36163,160.57315,0.98869085,487.34558,160.45547,0.9853741,499.3935,185.14575,0.9753043,491.3885,184.62155,0.9699873,1.0650771,-0.03119697,0.95064785,-0.47925425
11,366.66666666666663,486.13248,96.46663,0.89117235,487.805,94.46525,0.86060274,485.09433,94.55734,0.7478646,491.83466,94.939674,0.7500613,484.263,95.17488,0.4430969,498.31863,106.398926,0.9912567,481.48715,106.7305,0.9892162,503.96033,121.95921,0.9607468,476.74188,122.401825,0.9166515,502.76398,136.46136,0.92633957,472.6647,137.06348,0.86631763,496.46158,136.71503,0.9950464,486.2496,136.75026,0.99437827,497.17178,160.55276,0.98910195,487.36932,160.46631,0.9854498,499.09088,185.14346,0.9766981,491.40295,184.6416,0.9710025,1.0795038,-0.01866905,0.94376978,-0.52371608
12,400.0,486.00742,96.40007,0.8745168,487.61426,94.395966,0.8389916,485.01837,94.492096,0.71907544,491.58948,94.8954,0.7277321,484.3162,95.12441,0.42582363,498.1713,106.39714,0.9900636,481.40552,106.76826,0.9876809,503.92227,121.978516,0.9567046,476.5215,122.770996,0.90963614,502.8866,136.72203,0.9190905,472.94107,138.14609,0.8557763,496.36548,137.07985,0.9946526,486.2324,137.13663,0.9939162,497.1704,160.9122,0.98838985,487.5412,160.84659,0.98457897,498.69547,185.43343,0.9754515,491.4757,184.95085,0.9696036,1.11381453,-0.03905762,0.97422981,-0.5384548
13,433.33333333333337,485.6184,96.35258,0.8712342,487.26505,94.341835,0.8417749,484.70874,94.42627,0.70376366,491.41348,94.844986,0.74116933,484.19016,95.0457,0.399956,498.10294,106.45655,0.98989886,481.348,106.75995,0.9860503,503.8158,122.2529,0.9572968,476.56998,122.82791,0.89562345,502.964,137.49994,0.91870964,473.63718,138.21309,0.83823633,496.28638,137.52649,0.9942141,486.17282,137.5513,0.9930206,497.1862,161.53157,0.98727185,487.76816,161.44313,0.98211145,498.57004,186.06012,0.9729892,491.7798,185.50104,0.96518385,1.10842817,-0.13092902,0.93394396,-0.58242534
14,466.6666666666667,485.14526,96.24462,0.8348188,486.68713,94.249954,0.80904293,484.47888,94.32201,0.62625384,490.92892,94.915436,0.72912854,484.64026,95.04331,0.33762503,497.68,106.83956,0.9878642,481.9605,106.814995,0.9805993,503.43835,123.1461,0.9537422,476.65103,122.753876,0.8638274,503.17117,139.68436,0.90981114,474.07272,138.19846,0.79852283,495.84235,138.4285,0.99325186,486.4047,138.30792,0.99119496,496.8893,162.38873,0.9854997,487.84692,162.22693,0.97811186,498.10123,186.72847,0.9697678,491.34448,186.04276,0.9590087,1.07561653,-0.01645824,0.96145625,-0.48195635
15,500.0,485.03973,96.214905,0.83115107,486.6011,94.24952,0.81458753,484.41885,94.31559,0.6080054,490.90082,94.921196,0.7467695,484.54437,95.03349,0.3097648,497.56525,106.71993,0.98794913,481.85352,106.55226,0.9779896,503.2915,122.95386,0.9568037,476.20755,121.7657,0.8447169,502.6114,138.32402,0.9150387,474.6618,134.81778,0.7810252,495.68564,138.44388,0.99300635,486.2023,138.28883,0.990168,496.68478,162.94379,0.9848017,487.93677,162.80057,0.97521555,497.80234,187.6664,0.96769965,491.36182,186.97769,0.95368093,0.99625556,-0.29207243,0.9211704,-0.2422064
16,533.3333333333334,485.2108,96.36887,0.8366329,486.76828,94.40083,0.819013,484.50693,94.49134,0.62056243,491.00003,94.989395,0.74612534,484.36768,95.14754,0.31803137,497.61588,106.64388,0.98787653,481.60867,106.40388,0.9782956,503.35852,122.89456,0.95648646,475.75162,121.04373,0.84837055,502.30127,137.37534,0.91569513,475.07718,132.13724,0.78720295,495.8837,138.53793,0.9926559,486.24597,138.39642,0.98979723,496.478,163.45383,0.98326033,488.43454,163.34393,0.97305995,497.28625,188.2688,0.9634066,492.16656,187.63152,0.94810647,1.43345735,-0.47041102,1.35375202,-0.02947745
17,566.6666666666666,485.26297,96.18662,0.79716074,486.6732,94.242386,0.77853924,484.75784,94.299576,0.55195004,490.87518,95.018486,0.7212875,485.3368,95.02631,0.28580534,497.41876,106.94041,0.98544544,482.7473,106.257355,0.9729336,503.3296,123.53128,0.9502559,475.93054,120.816086,0.8231998,502.61414,138.43866,0.90310615,475.02353,132.18817,0.756426,495.65298,138.90775,0.99178493,486.96567,138.55292,0.9883441,496.26035,163.63248,0.98220706,488.9203,163.3576,0.9709482,497.1008,188.38379,0.9623179,492.62823,187.53069,0.9460169,1.07734013,-0.22132654,1.02679794,-0.2395043
18,600.0,485.63446,96.26696,0.8007236,487.02106,94.31004,0.7755464,485.0554,94.364426,0.5656228,491.09595,95.02513,0.7099421,485.50616,95.043,0.30202198,497.62384,106.87308,0.98539007,482.86624,106.4025,0.97460145,503.60574,123.401566,0.9486872,476.3458,121.81172,0.8347076,502.85477,138.74892,0.9004692,474.99585,135.3794,0.76595473,495.7559,138.97516,0.9917503,487.0534,138.67754,0.98870087,496.33405,163.78665,0.98177284,488.96564,163.51714,0.97135496,497.0356,188.63554,0.96111864,492.8097,187.82195,0.9458906,0.70776338,-0.3259715,0.59397067,-0.20462265
19,633.3333333333333,486.21265,96.25648,0.758483,487.24222,94.29417,0.70182896,485.76968,94.29724,0.5255095,490.45502,95.07596,0.6452079,487.33444,94.87596,0.34103805,495.92902,106.98336,0.982577,485.67038,106.13838,0.97588557,501.9928,123.966156,0.9322647,479.54648,122.50232,0.85026693,502.45413,139.74075,0.87011606,476.8998,138.0962,0.76970106,494.65277,138.8465,0.9910357,488.83615,138.348,0.9892168,495.94373,163.19528,0.98099226,489.20587,162.70186,0.97417974,497.46292,187.77464,0.96128726,491.99872,186.76689,0.951626,0.83912723,-0.38885673,0.73325164,0.12355966
20,666.6666666666666,487.34393,96.82129,0.8579697,489.0235,94.81584,0.79994476,486.07687,94.79384,0.6935146,492.55798,95.26469,0.6821015,484.81454,95.17958,0.41398296,499.01312,107.00965,0.9875882,481.15195,106.74933,0.9860941,504.53534,123.43364,0.95307374,476.384,122.14755,0.9244829,503.47217,139.67885,0.9193764,474.39136,138.4202,0.88245374,496.238,138.59982,0.9928762,485.4199,138.44333,0.99257666,495.86658,162.71689,0.98308426,486.35767,162.43698,0.97972953,495.9417,185.63466,0.9579839,489.1367,184.89313,0.9513387,1.17640352,-0.24711931,1.14790114,-0.07197411
21,700.0,486.94565,96.50466,0.6840169,487.70877,94.52127,0.5727028,486.75266,94.46065,0.4363106,488.94775,94.95861,0.65083885,490.21732,94.54471,0.44278678,490.2668,106.85022,0.9857253,490.6571,105.734276,0.98498535,488.46194,123.732635,0.94134766,488.62775,121.75441,0.9151849,485.4983,140.2348,0.8836578,483.94092,138.75307,0.84671533,490.3999,138.55435,0.9922976,490.7514,137.90933,0.9923793,492.39496,162.63274,0.98136765,490.20267,161.95634,0.97948563,494.54694,185.2652,0.9541772,490.4411,184.24109,0.9510822,1.19597906,-0.28396613,1.06487298,-0.46451553
22,733.3333333333333,486.59216,96.61969,0.39318532,486.76666,94.37953,0.29712725,486.9259,94.43855,0.1845823,485.51974,94.540565,0.7116011,493.3321,94.67083,0.48725283,482.56534,106.103004,0.98780197,498.09915,106.44185,0.98515874,476.07626,122.2787,0.94353485,505.2258,123.8528,0.89964855,472.7519,138.43553,0.8551789,503.93222,139.89993,0.7812375,485.16528,137.98975,0.99341255,494.81415,138.00949,0.99300957,487.8993,162.47008,0.9829506,494.76788,162.50842,0.98002267,490.5396,185.45114,0.9576815,494.2612,185.38531,0.953008,0.93506159,-0.35888799,0.80719091,-0.30656551
23,766.6666666666667,486.47372,96.14963,0.27519318,486.3269,93.785904,0.20322143,486.8474,93.81593,0.118221395,484.58112,94.38226,0.6944749,494.01257,94.45774,0.4697053,481.2511,106.334045,0.9871726,499.5111,106.61422,0.9842679,475.22455,122.615295,0.9461563,505.5423,124.72348,0.9013675,472.0055,138.18735,0.8515724,505.12253,140.65332,0.77339286,484.5044,138.4228,0.99431807,496.1211,138.3661,0.9939612,486.739,163.50061,0.9850525,495.58463,163.50021,0.9822432,489.3144,187.5693,0.9625531,495.84137,187.54402,0.9579784,0.97789999,-0.3692051,0.8968515,-0.12503353
24,800.0,486.19647,95.558945,0.23750171,485.95636,93.20196,0.17134726,486.61813,93.20146,0.101768605,484.02444,94.17868,0.67631274,494.17618,94.11798,0.4742507,480.4147,106.48688,0.9861248,499.7822,106.52757,0.98365176,474.2098,122.91609,0.9427313,505.27194,124.65134,0.9022794,471.41183,138.25465,0.8400193,504.6735,140.3458,0.7688502,484.14114,138.71938,0.9940065,496.5105,138.57207,0.99378115,486.43115,164.14072,0.9833174,496.03485,164.08,0.9807082,488.55588,188.5127,0.95764506,496.0733,188.44168,0.95347303,1.07970261,-0.32548021,1.02728923,-0.06706121
25,833.3333333333334,484.60455,95.203415,0.21370518,484.48154,92.86621,0.16326886,485.3256,92.81752,0.08438828,483.44232,93.87597,0.68795377,493.71295,93.749435,0.4238039,480.4923,106.13933,0.9855729,499.61798,106.24586,0.98179424,474.0012,122.38072,0.9455881,505.081,124.6987,0.8959492,470.10593,136.91174,0.8460663,504.44916,140.24426,0.7615219,484.23734,138.7001,0.99419135,496.40573,138.49521,0.9937723,485.9553,164.50299,0.9840866,495.51892,164.41064,0.9808657,488.05542,189.3016,0.9592507,495.44754,189.08667,0.9540113,0.93969424,-0.27659676,0.89758844,-0.02923181
26,866.6666666666667,483.17087,95.07214,0.22366047,483.27872,92.71749,0.18125618,484.1521,92.653046,0.08196651,483.14563,93.70067,0.72459114,493.50455,93.51665,0.40250832,480.29456,106.111176,0.9865231,499.6228,106.12395,0.9814497,473.19995,122.85112,0.94809616,505.15308,124.84178,0.88570344,469.06543,137.65735,0.8486377,504.27277,140.37758,0.74373144,483.86102,139.3759,0.9941454,496.16104,139.09332,0.9934383,484.66284,165.86432,0.9835383,494.85638,165.76236,0.9791758,486.50723,191.4801,0.95733047,494.74637,191.16646,0.9501324,0.86155031,-0.14640468,0.84772241,-0.04691828
27,900.0,482.33517,95.34761,0.22335953,482.5088,93.0101,0.18454957,483.46838,92.92924,0.07957667,482.7242,93.96663,0.7416214,493.2609,93.72364,0.40318215,479.84518,106.32704,0.98734367,499.50623,106.241486,0.982742,471.59244,122.97302,0.9519772,505.1986,124.65997,0.8934125,466.6294,137.63036,0.85734373,504.05447,139.8105,0.75620794,483.7318,139.46265,0.9942213,496.2131,139.1136,0.9935876,483.9014,165.48933,0.98261327,494.63672,165.3439,0.9780969,485.4132,190.5366,0.9534494,494.3494,190.14687,0.94591844,0.81309728,-0.20069232,0.7865567,-0.04667263
28,933.3333333333334,481.40646,96.14789,0.1854411,481.63507,93.68669,0.16167773,482.73273,93.56286,0.059159815,482.2566,94.50798,0.7544912,493.27646,94.207886,0.35431376,479.68237,106.86467,0.98743725,499.6283,106.80304,0.9809473,471.21155,123.2484,0.96126544,505.1494,125.25653,0.8951729,466.07312,137.57498,0.88307977,503.92975,140.51439,0.76902306,483.26285,140.34845,0.9954039,496.15103,139.93141,0.99457836,482.07928,165.77017,0.9885156,493.7216,165.53429,0.9843211,483.68903,190.81458,0.9686092,494.53464,190.27327,0.9612092,0.88325209,-0.23532833,0.85116145,0.01670389
29,966.6666666666666,480.10736,97.12653,0.15291183,480.52255,94.598335,0.15720852,481.474,94.299126,0.049495675,481.49896,95.48853,0.8478498,492.48175,94.9435,0.4202405,477.88693,107.4374,0.9921206,499.6952,107.24228,0.98825175,469.89807,123.67934,0.9688553,505.304,124.99078,0.90738165,464.88425,137.6297,0.8799143,502.77554,140.09882,0.7467085,481.40656,140.12375,0.99676824,495.52545,139.85175,0.9960515,481.0431,165.73499,0.9901326,494.9089,165.86053,0.9852858,481.98267,191.64938,0.97384584,495.10544,191.21129,0.9649903,0.9546333,-0.28396613,0.91134458,0.01179098
30,1000.0,479.71786,97.89858,0.15025988,480.01382,95.38754,0.15150954,481.01276,95.07566,0.049651008,480.7245,96.209076,0.841417,491.8656,95.60865,0.43047965,477.15054,108.002304,0.9921697,499.2457,107.69348,0.989027,469.0782,123.97336,0.9698371,505.10168,125.22557,0.917586,464.1642,137.66817,0.8842259,502.50018,140.3345,0.76759535,481.22607,140.8261,0.996869,495.4887,140.49254,0.9963133,480.96066,166.66776,0.98991334,494.6264,166.69772,0.9855069,481.8347,192.58961,0.97250193,494.4836,192.05638,0.96423954,1.11458442,-0.41833418,1.03171085,-0.05355071
31,1033.3333333333335,478.971,99.72389,0.1666965,479.3803,97.15785,0.1808809,480.23422,96.853294,0.05079506,480.4021,97.75334,0.87559843,491.32553,97.12085,0.41661683,476.71008,109.365906,0.9934088,499.14023,108.83158,0.9888629,468.5824,125.679855,0.9733373,505.33377,125.9258,0.9007281,463.25165,139.6738,0.8915867,501.6922,140.27321,0.7336088,480.7002,141.70505,0.99703515,495.3299,141.27667,0.99612576,479.79022,167.37918,0.99072415,494.70468,167.37311,0.98502886,480.83398,193.27646,0.97513944,495.38068,192.6528,0.96473163,1.24269236,-0.52789205,1.1228453,0.06951766
32,1066.6666666666667,479.40805,101.70596,0.17279726,479.71188,99.12743,0.18624638,480.43735,98.956436,0.05314616,480.13687,99.354904,0.8681342,490.8795,98.932144,0.40235448,475.98776,110.62614,0.9926508,498.50302,110.07933,0.9864959,466.9868,127.13942,0.9704579,505.0916,126.621826,0.8788842,462.3111,142.02213,0.8830865,501.15253,140.79839,0.6975014,480.32864,142.60913,0.9963714,494.9047,142.24213,0.9950118,479.77087,167.62872,0.9890047,494.08255,167.6792,0.981529,480.7789,192.70709,0.9710702,494.34946,192.2144,0.95783424,1.00112464,-0.36159009,0.93320702,0.02505583
33,1100.0,477.34903,103.01616,0.1891051,478.25095,100.44385,0.23856425,478.93378,100.24296,0.048140936,480.88434,100.75687,0.9093402,491.19196,100.224594,0.33186567,476.59714,112.007614,0.9933537,498.9526,111.40886,0.9823987,465.846,127.88573,0.972961,505.3204,127.51128,0.8121471,461.90033,141.49794,0.8854003,501.12857,140.73697,0.5999592,479.97855,143.70021,0.9958905,494.32318,143.26462,0.9931004,479.37302,167.9813,0.98834723,493.6028,168.13919,0.97594464,480.5105,192.83417,0.9707964,494.09134,192.20712,0.95051515,0.66526268,-0.03488165,0.66397962,-0.02210809
34,1133.3333333333333,480.31726,109.46022,0.7202421,481.97464,107.31546,0.73963976,480.06403,107.140884,0.3986777,487.9415,105.65848,0.7185978,480.6456,105.28087,0.14067638,498.01917,113.928764,0.984174,476.79926,112.285965,0.9674867,504.54755,129.65689,0.9748942,466.37427,125.582855,0.8777446,499.81665,142.08646,0.9557942,462.47516,140.29428,0.8509034,493.08548,144.53702,0.9947916,479.91098,143.13995,0.99216664,493.7049,167.55031,0.9893471,478.05685,166.04546,0.980441,492.46332,191.52184,0.97290516,478.62952,189.03677,0.9573002,0.54979527,-0.30681115,0.44682905,-0.09211704
35,1166.6666666666667,480.5091,111.852646,0.8121037,482.28424,109.592094,0.81481886,479.5232,109.5571,0.55688167,487.7685,107.486046,0.7484889,478.9359,107.46904,0.21812338,497.63843,114.90536,0.98787814,475.0016,114.140465,0.9792371,504.61194,130.1611,0.9762123,466.0598,128.19447,0.9108738,500.63254,142.92632,0.9578374,462.70804,143.50218,0.8815956,493.06906,143.87993,0.994503,479.04593,142.92273,0.9925633,493.00116,166.01328,0.98698807,476.82495,164.84877,0.9785836,490.72238,190.04556,0.96490145,477.55624,188.12694,0.94918644,0.77895594,-0.30853067,0.71433694,-0.03610988
36,1200.0,478.48923,114.9075,0.8602045,480.31744,112.70555,0.8573837,477.6728,112.63561,0.6007608,486.5171,110.665565,0.79249835,478.16495,110.53119,0.21247104,497.38504,118.37172,0.9884016,475.36996,116.71266,0.97834355,504.68228,135.01524,0.97407985,465.98672,129.5182,0.90050465,501.38208,151.23454,0.95447403,464.07538,145.70844,0.8754148,493.52048,144.70021,0.9922801,480.12988,143.33476,0.9894264,492.80273,164.78792,0.9819567,477.73444,163.1655,0.9701863,489.81476,187.92729,0.9503591,478.99524,185.25443,0.9273908,0.9902595,-0.21371153,0.96145625,-0.10267979
37,1233.3333333333335,482.47293,121.1676,0.89448535,484.30298,118.58122,0.86015224,480.52313,118.61499,0.73358697,489.32794,115.07007,0.7305326,478.86716,115.118744,0.36448556,498.05566,121.07965,0.9888602,474.91742,120.62526,0.9857056,503.97552,138.94173,0.9646316,468.0096,138.29195,0.92662096,501.442,158.48436,0.9392958,467.43262,161.4766,0.8924883,492.9265,145.39537,0.99194396,478.4692,144.76987,0.9909315,494.77838,165.35277,0.98192763,476.60553,164.47777,0.97622126,490.3802,189.39395,0.95247203,474.84604,187.94443,0.9412033,0.95484926,-0.12896386,0.88309536,-0.339482
38,1266.6666666666665,484.24167,126.731735,0.9499892,486.28674,123.40115,0.91333145,480.82263,124.01218,0.90472186,490.84778,118.521,0.6780294,476.91968,120.27869,0.654324,499.56638,122.315155,0.9920546,471.95728,125.18149,0.9959369,506.32602,141.17143,0.9715917,467.74454,146.77751,0.9834145,502.6237,159.54572,0.96169394,469.92328,168.65265,0.97208947,496.36862,142.7177,0.9953969,479.23267,143.84448,0.99675936,496.31784,162.30534,0.99009424,478.54117,163.01492,0.9917504,489.10208,190.12665,0.9763234,479.83664,191.17276,0.97937304,0.82047037,-0.15254582,0.76543119,-0.2530148
39,1300.0,484.16415,128.65402,0.906363,486.0891,126.00514,0.8616038,481.5513,126.191025,0.78455615,490.24155,122.66556,0.7067749,478.5578,123.223465,0.45758983,497.4609,127.30209,0.98824185,473.91702,128.48102,0.9860028,502.92505,143.46066,0.9573878,468.39932,146.44366,0.923897,500.3731,158.23607,0.93223524,472.07544,165.08594,0.89169234,493.66916,147.00821,0.9909609,479.11972,147.55217,0.99010277,496.7424,171.18237,0.98186743,483.3189,171.51093,0.9773456,490.90347,195.50795,0.95329803,483.70895,195.54399,0.9443402,0.7791897,-0.1940599,0.75462279,0.00466726
40,1333.3333333333333,486.3787,135.74469,0.89478207,488.50803,132.48596,0.8210744,483.26053,132.7319,0.8212467,492.86835,127.24904,0.54915303,478.76697,127.86467,0.57781875,499.40695,129.56883,0.9829266,472.67838,131.99478,0.9870591,505.11896,148.86296,0.92853254,470.3286,156.91864,0.9346029,501.98148,168.0719,0.88692975,472.54007,182.58536,0.8875428,495.06757,149.30534,0.98714256,478.1487,150.51324,0.9887581,498.61993,162.9258,0.9783236,479.48035,163.93585,0.9788977,493.5662,191.91101,0.9541173,481.15765,193.24707,0.95487505,0.75534794,-0.24097818,0.70868709,-0.10120592
41,1366.6666666666667,486.82407,140.35165,0.82499313,488.70758,136.99683,0.69994336,483.73288,137.41032,0.728865,492.76242,132.1706,0.4311118,479.37225,132.94507,0.52681917,499.68805,134.7443,0.97439915,473.6694,136.23224,0.9843024,502.60602,158.9956,0.9110461,472.29337,162.7673,0.9428482,498.3743,182.99269,0.8615468,476.76105,188.81578,0.8953825,497.1617,150.27528,0.9861415,480.84586,151.10927,0.98938584,496.43243,168.749,0.9768971,480.43716,169.33508,0.9801775,492.64096,196.88249,0.9479703,486.85513,197.76279,0.9531753,0.56056058,0.04077714,0.50529267,-0.23925866
42,1400.0,488.31326,146.84341,0.23114833,489.0682,144.06602,0.13792129,485.48532,144.79633,0.17173815,491.70844,140.26544,0.09127085,481.0451,141.85233,0.14507419,499.07553,140.34729,0.7291872,474.0489,142.71329,0.78454226,501.62662,158.91348,0.7254949,472.69803,163.7687,0.79055405,497.65594,182.33662,0.7425358,476.7608,188.08139,0.7876222,494.76694,145.95381,0.96044016,478.06723,147.2727,0.9661972,497.16052,166.36177,0.9713499,481.11252,167.84866,0.97426987,491.41028,195.43863,0.9658591,481.32483,197.54736,0.9684229,0.53300345,-0.06607862,0.43995098,-0.2935463
43,1433.3333333333333,43.54013,134.6484,0.0928884,40.418915,131.99857,0.019088425,44.351933,132.44556,0.07353394,28.814306,129.91827,0.094205625,45.896523,131.32161,0.47457626,21.697788,135.33185,0.73960745,47.9578,136.2133,0.94398504,7.0984344,148.03691,0.6728953,69.48703,141.55646,0.95767987,4.5386353,164.09569,0.6595716,89.15918,145.27107,0.9174413,21.47247,173.04213,0.95653194,35.684326,173.2579,0.980569,19.979046,196.09244,0.905843,29.256805,195.46518,0.95726055,10.653561,219.67117,0.7837614,15.502205,218.1708,0.8639444,0.43305312,0.07934348,0.16359986,-0.3930327
44,1466.6666666666665,491.0417,152.58923,0.33866924,491.49634,149.50157,0.13490282,488.25082,150.56621,0.31996706,493.65167,145.06949,0.05909804,483.4595,147.62183,0.35506693,499.89606,145.5593,0.85519797,474.4583,150.06113,0.95799834,501.04263,167.72484,0.8288759,473.95074,176.5473,0.97266406,499.3657,197.09496,0.8380349,479.65637,206.42625,0.957293,496.04718,159.29826,0.98242205,479.38925,161.83792,0.99157155,497.82004,179.25487,0.9708284,481.51013,182.02219,0.9854081,490.76727,207.64053,0.93828875,481.5293,211.97472,0.9630964,1.53916732,-0.33284957,1.43899099,0.43307291
45,1500.0,501.8232,134.54659,0.7712669,503.0489,132.23785,0.5033942,499.92307,131.88835,0.74341726,504.2751,133.59738,0.19992143,493.73587,132.41525,0.64441705,504.8268,144.01923,0.9479346,482.1134,143.47063,0.97716033,507.54642,164.2527,0.82023716,474.89084,167.25511,0.9388993,504.76718,176.87752,0.7912764,478.11612,187.49788,0.8961292,492.9308,165.55792,0.98095644,477.37753,165.3385,0.987257,497.21442,189.0873,0.96998334,475.88538,189.26422,0.9790871,496.3482,217.28369,0.94462144,475.08728,218.67216,0.957949,1.22609238,-0.22009831,1.10343931,0.48711491
46,1533.3333333333335,490.4649,173.43477,0.2812432,491.43283,170.25728,0.17560114,487.72305,171.0026,0.19430263,494.9793,163.70161,0.120096765,483.62207,165.17291,0.15511614,501.4107,159.05545,0.8509005,475.34937,161.32422,0.84205514,502.99316,183.29016,0.87696457,475.31558,188.94257,0.84290105,501.74817,216.12166,0.83227056,481.39502,220.70274,0.79600155,491.6701,158.22888,0.971958,472.88577,159.57945,0.97078305,503.48917,187.7199,0.9615707,476.54135,189.47977,0.958887,499.6147,217.48447,0.89865845,473.9835,220.30585,0.89392537,1.75065956,-0.34685136,1.71509646,0.05428764
47,1566.6666666666667,492.41196,175.62614,0.43379194,493.59595,173.08203,0.25639865,490.17953,173.29169,0.3877844,496.75653,167.54689,0.12119338,485.7575,167.4668,0.31462872,501.36835,162.88785,0.8902662,474.98123,162.49783,0.9317047,506.10132,179.10437,0.8811443,467.01028,178.13068,0.934816,506.29364,193.29353,0.8622253,469.11154,189.40916,0.9091624,490.08954,165.06378,0.98349077,471.01144,165.32834,0.98746735,504.29156,195.79843,0.9705381,474.88525,196.69945,0.9767503,502.5338,224.17274,0.92121714,470.17587,226.06598,0.9331624,0.50748005,0.02923181,0.46697198,-0.19651635
48,1600.0,495.1961,188.1248,0.42081273,497.52023,185.03802,0.24848774,492.51633,184.8048,0.3846785,501.3609,177.87358,0.1134809,486.95438,176.59413,0.32015327,506.04233,172.38841,0.85884273,471.92743,169.82707,0.9244513,507.8429,194.5763,0.861713,464.11884,186.36392,0.94113415,500.49066,213.4147,0.84045345,472.21204,195.50035,0.91376525,492.2657,177.03212,0.9602216,468.0929,176.63124,0.9724037,504.10785,204.7287,0.8920196,470.92926,204.91406,0.9214166,499.10522,229.47481,0.6902114,468.95172,230.40034,0.7431245,1.12763033,-0.64457363,-0.71753033,-0.58414486
49,1633.3333333333333,484.76974,204.31895,0.84390455,488.94836,200.7343,0.83341867,481.18567,199.96161,0.7415968,496.71066,193.13544,0.5765278,476.16016,190.85153,0.32552382,504.98587,188.52184,0.9347105,466.02316,184.77895,0.9308568,506.455,215.09662,0.89215016,459.63156,209.52068,0.84731805,502.34012,235.37177,0.8427797,464.22247,235.35185,0.7917137,493.38324,186.1697,0.8390356,467.39157,183.96384,0.83410704,498.97717,212.48015,0.53763884,463.0254,209.72285,0.50433904,500.04,231.6386,0.2589556,471.08035,227.92165,0.23862104,2.02982518,-1.40189852,-1.25721336,-0.75781618
50,1666.6666666666667,492.1253,201.5058,0.27372542,494.90652,198.33998,0.19743581,489.74655,197.998,0.21646416,499.76404,192.54358,0.13111332,484.91217,191.09067,0.16077508,506.24213,189.87994,0.80252296,469.39084,187.39108,0.84703606,508.34406,214.27562,0.8844455,459.52194,208.69821,0.9123567,502.05878,235.42447,0.850541,468.6765,228.1037,0.87439764,492.6052,197.18959,0.90010405,466.98715,196.34085,0.91435754,499.79544,222.3482,0.61848605,464.86993,221.6959,0.6456412,494.41876,237.45981,0.25195557,465.24036,237.1463,0.27010867,2.24291379,-1.0557841,-1.97523498,-0.12012062
51,1700.0,507.22693,211.96967,0.1718909,504.4181,206.07375,0.02385181,506.73486,206.50093,0.2872821,466.5696,204.45557,0.081542335,498.81476,208.32118,0.88421327,444.80103,222.58028,0.31774017,500.27426,232.23601,0.559632,449.53998,223.99039,0.032113124,512.1242,238.83212,0.1939187,481.4759,222.19446,0.034902256,507.85757,232.93526,0.10872542,448.9332,240.0,0.020279963,487.01016,240.0,0.037575837,472.2754,225.49211,0.008852566,503.73413,227.88034,0.018419115,474.0358,229.87477,0.017303621,505.89764,235.70068,0.029330716,1.96156611,-1.1768873,0.12847256,-1.56402451
52,1733.3333333333335,509.95474,217.17314,0.40893587,508.45975,210.74487,0.06625126,507.80463,211.39621,0.61623544,477.2984,207.91525,0.036027197,492.8558,211.75723,0.8691546,459.61484,222.77226,0.24627757,486.69257,234.20647,0.39371663,474.5123,226.93427,0.031598978,502.1362,240.0,0.13286349,496.0831,228.12518,0.048192743,511.0342,234.41377,0.11094191,460.5071,240.0,0.01456099,477.91473,240.0,0.021863712,487.6993,227.41953,0.006584452,497.8715,233.17294,0.011680793,487.00357,229.41272,0.01186301,498.5445,239.68553,0.017774213,1.61243324,-1.41761983,0.16581067,-0.75020117
53,1766.6666666666665,31.427052,138.57407,0.113900244,29.385588,136.0886,0.031729978,33.017982,136.60553,0.070908844,24.09932,133.41008,0.12964952,39.145554,134.22897,0.3376088,21.94036,137.59984,0.7242715,44.19426,137.72221,0.92731535,9.451736,146.3612,0.68839616,60.891754,141.67197,0.9464454,6.625477,149.3934,0.6861075,76.0197,141.16077,0.9078162,27.918283,175.65877,0.9405604,39.86354,175.88684,0.97121227,20.359163,193.30626,0.86808103,29.905418,194.53815,0.93455523,14.230991,211.63577,0.7155941,21.40696,214.19604,0.8098378,0.73295351,-0.54238513,-0.4092453,-0.27487725
55,1833.3333333333333,619.45447,20.838821,0.041148186,619.5529,13.156174,0.024264738,621.9043,12.112701,0.01096135,617.38586,3.7983246,0.08141463,630.4605,2.0591125,0.024261339,622.76306,43.893448,0.2998785,626.903,42.06903,0.17883834,604.5022,153.19214,0.39442977,609.18866,150.09587,0.16931854,595.3878,170.04028,0.37248817,597.45966,167.03763,0.20556848,633.1951,203.49013,0.16597246,633.6853,203.33955,0.12366712,615.7843,212.89658,0.0521599,620.8615,214.02568,0.033716347,620.2219,211.33745,0.028983388,626.2643,207.7985,0.020904746,1.59674959,-0.7757483,-0.45223325,-1.32034424
56,1866.6666666666667,43.55552,130.78067,0.120357916,40.85161,128.29498,0.026568519,44.25548,128.38126,0.09417064,29.658087,127.07948,0.10601309,45.165955,127.79283,0.48240677,22.460938,133.6544,0.7599317,46.896175,134.83688,0.9442514,8.496708,146.96085,0.67739433,62.593163,143.97797,0.9518096,6.046583,158.38551,0.66017544,77.00991,149.01425,0.9097492,24.833944,172.54019,0.9592417,38.014454,173.05205,0.9809337,23.96343,195.88606,0.920383,31.764801,196.69934,0.9625698,12.362701,218.91394,0.82226706,15.774527,220.36192,0.8871378,2.98311204,-2.71683856,-0.64776702,-1.04792345
57,1900.0,503.86325,238.62704,0.7553155,507.8595,236.68959,0.42798617,503.52377,234.47427,0.8001986,506.37085,230.31303,0.10610306,496.5492,224.03787,0.73984396,491.47766,218.85559,0.8095095,475.4218,215.34596,0.8576404,494.9372,217.36273,0.6326725,470.18423,220.6391,0.77292895,498.6147,201.8847,0.692815,486.48932,214.25829,0.75897956,461.09534,208.1753,0.6325289,447.51266,207.72607,0.6561125,469.8337,229.06593,0.251771,459.45178,229.99805,0.2969569,456.53046,226.93669,0.083658926,448.30386,229.59743,0.1002879,2.42359546,0.13928096,0.22034396,-2.40953612
58,1933.3333333333333,41.080963,127.669785,0.09481659,38.816578,125.115005,0.023027606,42.420685,125.49928,0.07282696,28.963171,125.36612,0.1115801,45.712162,126.4348,0.424862,22.196293,134.67906,0.6996887,46.76815,135.4726,0.9236493,6.859251,150.43738,0.6123944,62.05944,144.32935,0.93355244,4.185831,165.30919,0.5912625,78.191055,146.83359,0.876144,21.018269,175.55814,0.93214077,34.417824,175.83788,0.9672532,18.53718,200.31006,0.8562385,26.763496,200.98335,0.9282974,11.161795,222.25198,0.6984846,14.922139,223.24681,0.7943973,0.62655369,0.16581067,-0.2048683,-0.56842355
59,1966.6666666666665,24.406204,147.02113,0.1807479,23.678057,145.0741,0.059606332,26.160841,145.62651,0.10229691,23.492287,142.93044,0.17533734,33.464348,143.11908,0.31729135,23.235195,146.7348,0.7837835,39.665276,145.86913,0.9392622,13.3242035,150.49124,0.7485497,57.77043,145.78134,0.95195454,9.291901,146.58385,0.7455966,76.548615,146.16934,0.9187029,31.749039,185.87625,0.9561412,39.923798,186.22253,0.9777003,20.926476,205.81046,0.8905161,31.749117,208.59488,0.94369495,20.888863,219.49246,0.73835313,33.85657,225.29141,0.82269394,0.89578233,-0.30607422,-0.77157233,-0.3367799
60,2000.0,470.96527,219.5044,0.053686883,470.66202,218.9144,0.015453088,472.57724,218.61963,0.055871353,458.0279,220.5401,0.033776928,471.09122,220.1017,0.22183628,452.57236,217.85052,0.48178476,462.95926,220.98691,0.5801667,457.711,198.20015,0.5799726,471.0572,205.25023,0.77883637,478.24484,190.7572,0.6754204,484.4538,197.65454,0.7938275,457.75772,215.14719,0.7662671,462.77234,218.06143,0.8075747,478.32062,219.75055,0.49720407,479.75317,221.45137,0.58651215,491.0482,215.38165,0.29882205,491.22174,217.61469,0.35658842,1.89893898,0.81505157,-0.87007615,-1.47804861
61,2033.3333333333333,482.9119,212.24004,0.18222609,481.95215,209.9859,0.030717557,483.3464,210.01404,0.2655944,464.49332,209.89175,0.028268835,477.95328,211.01791,0.62335354,454.20142,212.32732,0.5301732,473.2323,216.6264,0.8117138,457.1169,208.71808,0.26565,476.3905,215.53104,0.82587385,480.0742,204.82993,0.34655416,485.10223,209.50241,0.76969117,453.6384,220.21751,0.61220765,465.83212,222.61943,0.77687114,472.78143,215.32224,0.43026423,478.73914,216.3705,0.6602271,468.7393,216.65811,0.44520348,473.1828,219.4055,0.6193032,1.63378712,0.1643368,-1.01181357,-1.27219773
62,2066.666666666667,485.2065,215.92987,0.20583208,485.17297,213.66237,0.037978902,485.77612,213.77948,0.22729662,467.22433,212.64888,0.057188276,480.43146,214.48997,0.5802281,453.3958,213.29758,0.7519916,472.72833,219.24533,0.8353249,452.28723,207.1253,0.541576,477.56094,217.72841,0.8063761,477.4723,197.23804,0.59088933,486.13754,206.68352,0.7653076,441.96973,218.72658,0.785069,454.18994,221.8576,0.8330679,464.17905,212.902,0.568086,475.16885,214.97357,0.6765522,459.30493,209.35411,0.46764475,470.69797,213.32513,0.55228704,1.73155382,0.27635112,-0.64874961,-1.58146534
63,2100.0,44.309906,134.27621,0.12720312,41.840828,131.8459,0.0214355,45.1342,132.09747,0.110666506,29.240051,130.8183,0.084894605,44.591152,131.53458,0.55562896,20.323421,137.76086,0.75539976,44.959393,138.09912,0.9617998,5.6721306,148.16722,0.6833798,64.77007,140.5606,0.97291505,5.1257553,152.8856,0.68767077,87.653824,139.79367,0.94311064,22.71297,181.80722,0.9559093,35.491596,182.31053,0.98303175,15.800032,204.42715,0.88079166,25.228825,205.80751,0.9511105,10.652182,223.69641,0.704842,16.310469,225.9026,0.81714183,1.38073062,0.13928096,-0.52715511,-1.26851305
64,2133.3333333333335,475.89536,214.4072,0.090040274,475.67072,212.67044,0.02089556,477.48074,212.5647,0.09624405,458.1844,213.65042,0.050351724,474.7718,214.71458,0.3735218,447.443,214.90382,0.6753101,465.2789,220.46446,0.77808815,447.72482,196.8922,0.673546,470.90472,207.40631,0.8648051,474.327,185.66377,0.73820865,481.42896,196.28387,0.8498228,442.97678,221.66365,0.7869804,453.61682,225.08463,0.83399504,467.69135,216.30048,0.4731601,471.8899,218.38272,0.5800235,469.2262,207.93324,0.2968544,471.32986,211.41042,0.36766848,1.45806504,-0.01694954,-0.95236737,-1.10393061
65,2166.6666666666665,475.24774,215.2621,0.092703156,474.80145,213.28845,0.021516649,476.7887,213.41283,0.09594191,456.77667,213.1903,0.06114783,474.6374,215.03006,0.4050051,446.24677,214.17198,0.71772105,466.22375,220.77364,0.8137973,445.6197,195.20367,0.7136308,472.35934,208.12439,0.88797486,472.68076,183.32877,0.7592673,480.6494,197.83047,0.8655275,441.08926,224.4793,0.7793747,453.27274,228.1599,0.830408,467.02686,219.57832,0.3932035,472.9669,221.7992,0.5045386,468.9022,211.43704,0.20147797,472.86362,215.08075,0.26163286,1.22039982,-0.03021439,-0.8941494,-0.83003594
66,2200.0,476.66656,217.40662,0.104996234,476.25287,215.24341,0.024472514,478.23608,215.63121,0.11030267,458.27496,213.89241,0.069420986,476.16864,216.45695,0.434535,447.3965,213.80989,0.7359656,467.51703,221.12668,0.8293446,446.05536,193.71065,0.7156656,473.62393,207.06744,0.8927172,474.16165,180.96455,0.7611165,481.6209,194.70865,0.8687415,439.24945,223.31296,0.7797751,451.55072,227.23114,0.8310283,465.09332,218.5473,0.3890068,471.5623,221.0809,0.500138,466.3144,208.263,0.19810213,470.79004,212.34877,0.25684425,0.96494772,0.01768647,-0.64138024,-0.72072372
67,2233.3333333333335,476.88812,219.64496,0.1017347,476.40768,217.47978,0.02368571,478.52884,217.82217,0.106625415,457.98395,215.43687,0.0623855,476.28537,217.8125,0.4054692,447.35602,213.94775,0.7107985,467.3773,221.10156,0.80355394,447.08255,193.26587,0.7160069,474.12015,206.10936,0.8858965,475.1137,181.83691,0.76907563,481.33527,194.48915,0.8672267,439.69617,222.64578,0.76725334,451.78094,226.55127,0.817139,466.29337,219.82468,0.36848304,472.13083,222.33228,0.47373855,467.96347,210.02367,0.17541474,471.47668,214.10574,0.22720449,1.13010642,-0.0297231,-0.76715071,-0.829299
68,2266.6666666666665,471.99197,214.8359,0.084002756,471.46042,212.95924,0.020416114,473.63843,213.03134,0.08617804,454.28555,212.75696,0.056814566,472.10974,214.21823,0.36539727,445.38153,213.34142,0.69654924,464.3936,219.16254,0.7980309,448.61383,194.831,0.7064797,472.79993,205.64572,0.8864097,475.4321,184.22404,0.75649774,481.8028,195.39069,0.8662791,442.4196,223.18256,0.79698056,453.94495,226.62071,0.8459296,467.18695,219.38663,0.43961433,471.58365,221.4092,0.5538037,471.1009,210.7821,0.24097772,473.051,214.0931,0.30866066,1.26062983,-0.02235374,-0.74528826,-1.01648083
69,2300.0,479.25983,220.96988,0.10039099,479.29803,219.10727,0.02351831,481.1416,218.819,0.11458875,461.4652,218.26608,0.045256894,477.27917,218.75465,0.36721408,449.4972,217.15393,0.603223,465.29828,222.34937,0.7021488,450.00488,196.44128,0.615853,470.90207,206.1827,0.8158429,476.49857,186.53592,0.7124573,482.78574,195.0751,0.81681424,441.61523,222.44078,0.7090548,450.65,225.82481,0.7582109,464.08972,217.34059,0.39027545,467.4614,219.5933,0.48077255,463.42624,206.54355,0.24184069,464.81635,210.46048,0.29531586,1.25104058,-0.0859759,-0.62664152,-1.07936606
70,2333.3333333333335,479.3593,220.4312,0.11257616,479.6116,218.6307,0.026457384,481.25073,218.24512,0.1270303,462.38153,217.83772,0.047195498,477.37506,218.04128,0.3791148,450.00702,216.71655,0.6213562,464.84836,221.45102,0.71901494,449.60944,196.00586,0.6238276,469.42993,205.12637,0.8215284,475.6724,186.68903,0.7193099,481.99893,194.8286,0.82295406,440.8945,222.02638,0.7222546,449.2521,225.1958,0.77022743,463.34482,216.82399,0.40835556,466.4527,218.91806,0.5002846,461.6015,206.41429,0.25830662,463.0401,210.1208,0.31455418,1.1387713,-0.11250561,-0.48514974,-1.02409584
71,2366.6666666666665,475.05704,218.62453,0.08421059,475.07117,217.00395,0.021492425,476.66467,216.51854,0.095480956,459.35007,217.44836,0.03950104,472.97037,217.11029,0.30762714,449.58786,217.60449,0.5347131,462.00153,221.06758,0.63946927,453.20993,196.8767,0.5765917,468.2984,203.3156,0.7912186,477.5357,188.34293,0.6874956,482.43112,192.62263,0.8035801,444.44476,222.93112,0.67920566,451.35645,225.64964,0.7339654,464.89682,215.33847,0.37668103,466.94333,217.02075,0.4694974,464.09793,205.6615,0.24758302,464.88065,208.7015,0.30380514,1.08782859,-0.1589326,-0.42717742,-0.98774031
72,2400.0,477.6134,220.19128,0.091985136,478.16275,218.61252,0.024374297,479.17737,217.82191,0.10472108,463.03497,219.50179,0.03944127,474.6199,218.2706,0.29882377,451.82565,219.49127,0.51923335,461.8119,221.91652,0.6022269,453.93964,198.97519,0.56624305,465.89682,203.68703,0.7517943,477.33582,189.99207,0.6864408,481.8199,191.94647,0.77975214,445.11417,222.09026,0.67536,450.26196,224.49988,0.71742,464.17703,216.12332,0.40584305,465.59448,217.66028,0.4802605,462.37335,205.97392,0.2830618,463.14355,208.85373,0.32991034,1.08170395,-0.12036627,-0.47188489,-0.96587787
73,2433.333333333333,480.50125,223.27637,0.10540696,481.46008,221.60031,0.027635979,481.8921,220.62906,0.12560414,466.66626,222.62244,0.037135627,476.2925,220.79807,0.31915873,453.7972,222.1168,0.49738643,461.9268,223.98296,0.57085603,454.42108,199.95213,0.5422949,464.3347,203.98111,0.7171272,477.4497,190.51361,0.6817877,481.57687,191.21765,0.7643827,445.20416,221.62396,0.65737724,448.88782,223.96086,0.69340384,464.0359,216.4176,0.41681746,465.077,218.08208,0.4818353,460.2925,205.13437,0.30663747,461.2558,208.28671,0.34856635,1.11036657,-0.11103174,-0.43110775,-1.01721777
74,2466.666666666667,483.43875,223.89803,0.13760322,484.28152,222.23737,0.034885846,484.80475,221.20667,0.16539569,469.02994,223.53505,0.042316496,478.66873,221.57881,0.3835091,455.06555,223.54599,0.5505925,463.97864,225.08899,0.62034076,454.61484,200.82942,0.55228055,464.90872,204.30162,0.72162837,477.5252,191.81866,0.68512404,481.44415,192.09271,0.7644627,444.85928,222.5683,0.6686253,449.0428,224.72328,0.7002735,464.74133,217.01138,0.43122032,465.99158,218.57664,0.49299026,459.73038,205.24512,0.32581943,460.7306,208.4403,0.3664445,1.15446627,-0.19037522,-0.43724888,-1.05136248
