frame_id,timestamp_ms,nose_x,nose_y,nose_conf,left_eye_x,left_eye_y,left_eye_conf,right_eye_x,right_eye_y,right_eye_conf,left_ear_x,left_ear_y,left_ear_conf,right_ear_x,right_ear_y,right_ear_conf,left_shoulder_x,left_shoulder_y,left_shoulder_conf,right_shoulder_x,right_shoulder_y,right_shoulder_conf,left_elbow_x,left_elbow_y,left_elbow_conf,right_elbow_x,right_elbow_y,right_elbow_conf,left_wrist_x,left_wrist_y,left_wrist_conf,right_wrist_x,right_wrist_y,right_wrist_conf,left_hip_x,left_hip_y,left_hip_conf,right_hip_x,right_hip_y,right_hip_conf,left_knee_x,left_knee_y,left_knee_conf,right_knee_x,right_knee_y,right_knee_conf,left_ankle_x,left_ankle_y,left_ankle_conf,right_ankle_x,right_ankle_y,right_ankle_conf,acc_x,acc_y,acc_z,acc_mag
0,0.0,568.91516,81.29099,0.9349055,573.6809,77.25067,0.94251186,569.1115,78.21872,0.5659192,587.9166,78.61852,0.9368613,574.7685,79.65659,0.17462508,596.07416,99.874916,0.997689,577.1313,98.307785,0.9666987,584.06445,129.21059,0.99528944,561.522,121.82741,0.826179,552.18823,136.96793,0.9883017,545.22003,134.4863,0.8175915,581.2998,150.15872,0.9969567,569.28345,145.24832,0.98814964,531.88354,159.21103,0.9922099,522.70264,154.45062,0.9687353,539.58545,207.18283,0.96261376,534.0204,199.49783,0.91458046,1.0160361,0.59053164,0.6357304,-0.52862899
1,33.333333333333336,568.64233,80.49289,0.93662465,573.50635,76.55606,0.94447494,568.8924,77.42494,0.5706227,587.8009,78.31478,0.9383576,574.4983,79.117874,0.17420584,595.73126,99.86891,0.997735,576.7498,98.31794,0.96635187,583.7362,129.0903,0.9953571,561.32184,122.02487,0.8219843,552.20325,137.02866,0.9884179,545.1606,134.67523,0.8142004,581.21204,150.09201,0.9969042,569.15845,145.24304,0.98774827,532.03125,159.0823,0.99204105,522.6671,154.45721,0.9675413,539.8109,207.14671,0.9616579,534.2771,199.71426,0.91157484,0.99827807,0.43921405,0.63720427,-0.63057184
2,66.66666666666667,568.49146,80.22168,0.93898934,573.43207,76.30133,0.94681996,568.77295,77.15123,0.57908595,587.81635,78.182106,0.94015443,574.3977,78.898575,0.17669602,595.41437,99.89632,0.9978036,576.6861,98.306145,0.96683,583.31445,129.0911,0.99544203,561.2706,122.01108,0.82102275,552.0596,136.99078,0.98855734,544.8315,134.64737,0.813243,580.94366,150.0502,0.9969221,569.0381,145.24585,0.9877116,531.81915,159.0258,0.99208015,522.51086,154.56871,0.9673969,540.27875,206.98602,0.96177274,534.6801,199.82237,0.91130626,1.02406864,0.59716406,0.63229136,-0.54066561
3,100.0,568.23584,80.101944,0.9424712,573.2533,76.17207,0.95034295,568.3959,76.997635,0.59369224,587.68384,78.109634,0.942313,573.7789,78.81011,0.17953648,595.0806,99.94025,0.9978637,576.29675,98.43979,0.9667685,583.0919,129.20502,0.99549246,561.12366,122.36493,0.8171338,552.3644,137.01604,0.98867023,544.8253,134.81018,0.81052095,580.8659,150.03589,0.996852,568.9125,145.30722,0.9872464,531.9745,158.55568,0.9919517,522.6298,154.23257,0.96639645,540.0956,206.82587,0.96129584,534.57056,199.82344,0.9094036,0.96541899,0.48293893,0.5195401,-0.65489074
4,133.33333333333334,567.879,80.277695,0.9444927,572.89246,76.26678,0.95222956,568.00366,77.146,0.6018727,587.35254,77.97891,0.94372976,573.3768,78.80376,0.18166359,594.8411,99.780975,0.9979233,576.03894,98.416115,0.9672833,583.0708,129.26628,0.99557245,560.9314,122.54028,0.81751823,552.3594,136.9192,0.9888425,544.6432,134.83621,0.8110746,580.82477,150.19676,0.99687344,568.8701,145.5452,0.9872644,531.94714,158.40492,0.992011,522.68494,154.21356,0.9664596,540.3786,206.78519,0.96159005,534.83057,199.89018,0.90975696,0.96541899,0.48293893,0.5195401,-0.65489074
5,166.66666666666666,567.6408,80.23648,0.9457674,572.5752,76.158005,0.9537769,567.6117,77.12189,0.6068409,586.8667,77.780876,0.9453577,572.9122,78.83323,0.1838375,594.5102,99.67915,0.9979674,576.02405,98.53456,0.9671891,583.19336,129.27975,0.99563193,561.1936,122.775696,0.8146969,552.6467,136.71745,0.988943,544.8321,134.85342,0.8089754,581.00726,150.21439,0.99681795,569.2962,145.68428,0.98689145,531.9433,158.31552,0.9918051,523.07104,154.36874,0.9652112,540.30945,206.6445,0.9604256,534.8452,199.91632,0.90645576,0.98685707,0.33014747,0.6757706,-0.63892379
6,200.0,567.3256,80.301865,0.95075035,572.1608,76.20671,0.9572793,566.8324,76.97706,0.6068088,585.3904,77.974594,0.9465551,571.1529,79.044464,0.16717087,592.5668,100.34271,0.99803776,574.3156,99.039734,0.9668315,583.49133,130.43864,0.9964612,559.2856,123.843704,0.8239409,552.29266,136.19469,0.99194616,545.28076,134.7543,0.8341868,580.2804,150.70447,0.99707747,568.43414,146.20737,0.9874406,531.487,158.5929,0.9934476,522.5719,155.15552,0.96985,539.8856,207.88184,0.9714011,533.36285,202.1243,0.9271765,1.08501374,0.35151862,0.75093811,-0.69984386
7,233.33333333333334,566.8215,80.78998,0.9459224,571.43964,76.6036,0.95290816,566.31824,77.537155,0.58367634,584.5369,78.05148,0.94361246,570.9221,79.4966,0.1612144,592.2194,100.17103,0.9979219,574.283,99.0216,0.96542424,583.3449,130.47437,0.9963482,559.3751,123.87799,0.82257795,552.2971,136.1719,0.9917196,545.5588,134.61536,0.8328543,580.0379,150.71399,0.99701536,568.4352,146.26633,0.98728985,531.1513,158.55496,0.99333245,522.7458,154.9947,0.96962255,539.9707,207.93173,0.97111255,533.546,201.70154,0.92696595,2.06114162,0.81529721,0.7487273,-1.73867842
8,266.6666666666667,566.15735,81.65755,0.9451434,570.6048,77.35468,0.95332426,565.7109,78.383194,0.57259977,583.7873,78.21098,0.94520146,570.72784,79.929085,0.1543231,591.9041,99.957375,0.9979887,574.4117,98.966225,0.9640418,582.9055,130.59854,0.9965042,559.2661,124.2027,0.81550735,551.9805,136.2785,0.9919675,545.6432,134.73616,0.8278855,579.807,150.8591,0.9970674,568.53876,146.43181,0.98707634,531.1669,158.48187,0.99348664,523.27606,154.74207,0.96936494,539.8129,208.1723,0.9717882,533.3703,201.36183,0.9272718,1.17571207,0.75511408,0.74700778,-0.50406444
9,300.0,565.6849,82.43251,0.9451679,570.0059,78.00891,0.95408106,565.17584,79.14019,0.5689771,583.23785,78.32741,0.9464219,570.41754,80.3139,0.15165417,591.73846,99.723755,0.99800485,574.709,98.82676,0.96325463,582.8203,130.62944,0.99653196,559.55365,124.2218,0.81115884,552.14,136.30022,0.99199706,545.6971,134.70348,0.82472616,580.0738,150.84335,0.9970306,569.15344,146.40018,0.98675144,530.9014,158.19395,0.99346817,523.5266,154.30823,0.96889853,539.3737,208.32375,0.97186285,533.1125,201.06578,0.92697823,1.81157385,0.90004489,1.05504716,-1.16558761
10,333.3333333333333,564.76044,83.28351,0.9352253,568.7527,78.79079,0.9469209,564.4706,80.014114,0.51407194,581.88995,78.57153,0.9439911,570.5426,80.77102,0.13375482,591.39197,99.387215,0.9979081,575.1577,98.64198,0.9591035,582.85675,130.47453,0.99660504,559.84106,124.25894,0.8013992,551.88904,136.3667,0.99211156,545.4614,134.50603,0.81823987,580.31946,151.12201,0.997024,570.00104,146.65495,0.98634493,530.7381,158.19073,0.993451,523.91565,154.0686,0.96799314,539.2112,208.66412,0.97164404,532.9285,200.74617,0.92538124,1.81157385,0.90004489,1.05504716,-1.16558761
11,366.66666666666663,564.43604,84.05136,0.9448402,568.5846,79.44765,0.95520204,563.73065,80.74372,0.56174463,581.8083,78.88617,0.94863534,569.10583,81.32373,0.14683451,591.15656,99.533035,0.99803716,574.42596,99.01042,0.9614158,582.808,130.57935,0.9966047,559.7727,124.490036,0.80176604,551.78455,136.4357,0.99208224,545.22437,134.88557,0.81789464,580.5819,151.04868,0.99695385,569.91473,146.67021,0.9860306,530.7718,158.14728,0.9933344,523.75854,154.10553,0.9673982,539.19525,208.75375,0.9714218,533.0785,200.88449,0.9247562,1.46795994,0.81775367,1.02016551,-0.66741866
12,400.0,563.64795,83.967354,0.93682706,567.60974,79.3689,0.94881874,563.09937,80.69057,0.52031434,580.7627,78.780174,0.94562423,568.9569,81.269455,0.13457036,590.79614,99.3371,0.99793977,574.30383,98.815346,0.9587291,582.8973,130.61383,0.9966228,559.7111,124.503784,0.7984936,551.5663,136.5796,0.99213797,545.021,134.89246,0.81636935,580.5312,151.21667,0.9969688,570.04596,146.79901,0.98598784,530.8445,158.06628,0.9933482,523.8967,153.86386,0.967272,539.23193,208.98395,0.971311,532.9522,200.80066,0.9242917,1.39727557,0.74528826,0.98356434,-0.65538203
13,433.33333333333337,562.94867,84.30716,0.93897444,566.8471,79.61131,0.95243365,562.39453,81.02085,0.52062035,580.1915,78.747055,0.94975656,568.6157,81.45819,0.13145413,590.43774,99.20111,0.9980446,574.7091,98.956566,0.9572384,582.6536,130.31752,0.99676204,560.1195,124.602356,0.78606784,551.4249,136.50163,0.9923356,544.6759,134.72028,0.8073086,580.5729,151.40596,0.99691236,570.6525,147.07062,0.9851237,530.57855,157.86765,0.9932334,524.2938,153.79797,0.9653527,538.9215,209.01828,0.97075284,532.99445,200.75145,0.9209865,1.39072076,0.81406899,0.98528386,-0.54828062
14,466.6666666666667,562.68945,84.71549,0.9388002,566.5085,79.988495,0.9521354,562.05414,81.45535,0.5203995,579.7565,78.89923,0.9494202,568.2663,81.75509,0.13226566,590.0614,99.1058,0.9980394,574.6613,98.94383,0.9576066,582.12994,130.19182,0.99675995,560.0214,124.55203,0.7885751,551.32416,136.29074,0.9923266,544.58844,134.58313,0.8093232,580.7736,151.26117,0.9969422,571.0774,146.9999,0.9853631,530.4663,157.9329,0.993324,524.60925,153.96606,0.9660049,538.7359,209.13634,0.9711383,533.02734,200.88841,0.92228407,1.35273009,0.87105873,0.89906231,-0.51266203
15,500.0,562.1952,84.96073,0.9387269,565.8292,80.10013,0.95138836,561.2943,81.73343,0.52584255,578.75635,78.63153,0.94836926,567.3934,81.9193,0.13777693,589.53204,98.7574,0.99799144,574.3051,98.7777,0.9587798,581.7998,130.35272,0.9966356,559.7405,124.522644,0.79478955,550.92834,136.47804,0.9920437,543.8525,134.396,0.8131955,580.95447,151.2248,0.9968989,571.39307,147.05553,0.9855904,530.607,157.89182,0.9932439,524.952,153.94922,0.9665981,538.807,209.13641,0.97107106,532.7424,200.6977,0.9235633,1.35273009,0.87105873,0.89906231,-0.51266203
16,533.3333333333334,561.79126,85.252144,0.93722594,565.25525,80.310844,0.95066166,560.77795,82.03948,0.51842517,577.8702,78.47301,0.948468,566.97314,81.986404,0.13750026,588.72034,98.37964,0.99799156,574.3582,98.54979,0.95784456,581.1864,130.2754,0.9966544,560.0002,124.5166,0.7903949,550.6209,136.53876,0.9920076,543.5094,134.24994,0.8097316,580.687,151.07703,0.99687946,571.74817,147.04318,0.9853485,530.28143,157.47676,0.9932528,525.38806,153.81305,0.9663155,538.6615,208.72633,0.97132325,532.82007,200.46954,0.9237242,1.34111367,0.68264868,1.02507842,-0.53083979
17,566.6666666666666,561.36755,86.64277,0.9463439,564.8248,81.46082,0.9591144,559.8546,83.34145,0.5605865,577.5274,78.62658,0.95392084,565.74286,82.54934,0.14947471,588.22186,98.2257,0.9981098,574.6914,98.293015,0.9590598,580.1623,131.11943,0.9966266,561.0099,124.70795,0.7828391,550.1647,136.6543,0.9918378,543.4906,134.26683,0.8030757,581.2781,151.20274,0.99668044,572.89526,147.12846,0.98425335,529.91046,156.98645,0.99300766,525.8525,153.17542,0.9646756,538.23517,208.54337,0.9710608,532.94714,199.88866,0.9225473,1.18971075,0.34832523,1.07248799,-0.37927656
18,600.0,560.9792,87.22423,0.9487787,564.42474,81.95177,0.9614283,559.2473,83.87886,0.57357347,577.1559,78.75128,0.9552304,564.98376,82.80508,0.1528644,587.8499,98.25484,0.99810565,574.696,98.20351,0.9587341,579.796,131.67781,0.9965407,561.43365,124.92642,0.77777195,550.5642,136.53775,0.9916401,543.7978,134.19255,0.79905427,581.7652,151.12659,0.9965083,573.63513,147.02441,0.9834359,529.77856,156.70343,0.99278694,526.1422,152.81396,0.9635177,538.02277,208.68933,0.97055894,533.0585,199.85042,0.92123103,1.07805335,0.22623945,1.00567243,-0.31565439
19,633.3333333333333,560.4716,87.05056,0.946114,563.9234,81.897385,0.95866007,558.8179,83.72275,0.5621598,576.47217,79.10588,0.95324636,564.4242,82.90392,0.15108344,587.2988,98.68141,0.99809057,573.7627,98.42836,0.95947134,579.41516,131.97717,0.99659157,560.47595,124.94983,0.78661877,549.398,136.7957,0.9917623,542.9246,134.50102,0.80597377,581.6467,151.03552,0.9967277,573.14453,146.86699,0.9846864,530.1845,156.69522,0.993214,525.55676,152.71933,0.96612495,538.5914,208.5777,0.9721743,532.5161,199.82904,0.9260572,0.99353672,0.19749893,0.9346809,-0.27291208
20,666.6666666666666,559.05176,87.39846,0.9337303,562.1802,82.406815,0.94916165,557.9193,84.153656,0.4969988,574.5411,79.46641,0.94934916,564.5913,83.02121,0.13259214,586.3424,98.363464,0.9980159,573.5549,97.90051,0.9567597,578.5625,131.46806,0.9967424,559.8689,124.34558,0.7879504,547.99146,136.88965,0.99204636,542.7226,134.21361,0.8077594,581.3525,151.01735,0.99701834,573.3716,146.7117,0.9858786,529.7634,157.09468,0.9937868,525.43494,152.74113,0.9686706,538.2743,209.0249,0.97415304,532.0321,199.67119,0.9309177,0.87411797,0.1859536,0.82807078,-0.20928991
21,700.0,557.73895,87.29715,0.9266897,560.73584,82.368416,0.94410723,556.939,84.0255,0.46477672,573.2019,79.39161,0.9471272,564.33887,82.72362,0.12229073,585.65063,98.20535,0.99788386,573.27594,97.59028,0.9540276,577.4213,131.41718,0.99663854,559.1539,124.16603,0.78332096,546.7737,137.37337,0.9918391,541.97034,134.08745,0.8048321,581.55084,151.32356,0.9969271,573.87415,146.92487,0.9855247,530.00464,156.2049,0.99369264,525.76196,151.56064,0.9684174,537.9206,208.2391,0.9742889,531.70154,198.54492,0.93169445,1.17284145,0.39131319,1.10221109,-0.08695849
22,733.3333333333333,556.8212,87.74133,0.90492433,559.4988,82.87521,0.9222846,556.20544,84.59027,0.40568486,571.4779,80.035995,0.9329612,563.8578,83.490425,0.112770624,585.0713,98.53757,0.99740773,572.0397,97.944885,0.9522132,577.67926,131.91626,0.99620557,557.7683,124.684204,0.80046123,546.99414,137.10663,0.99115026,541.6936,133.97441,0.8179899,581.3455,151.3515,0.996911,573.27826,146.93956,0.9866151,529.85657,156.01584,0.9937418,525.4216,151.08344,0.97117,537.5879,208.30417,0.9748479,531.24615,198.24106,0.93659383,1.01638219,0.44805728,0.89807973,-0.16040647
23,766.6666666666667,554.2427,88.43482,0.8976833,556.85645,83.61948,0.91802937,553.8603,85.32629,0.38138974,569.1799,80.77507,0.932688,562.1213,84.187454,0.10430412,583.7541,98.9796,0.99732226,570.6987,98.43095,0.9490213,576.8676,132.1467,0.9961361,556.91187,125.12297,0.79222023,545.9032,137.107,0.990958,541.3147,134.12532,0.8112948,581.1795,151.57736,0.99687153,573.06995,147.12195,0.98631614,529.78766,155.93933,0.99377245,525.0696,150.6901,0.97112525,537.77325,208.27736,0.97536826,531.3037,197.741,0.93777907,0.81810409,0.56400193,0.50062541,-0.31712826
24,800.0,552.66266,88.4671,0.89264715,555.35626,83.75532,0.9109318,552.2391,85.398224,0.37908238,567.668,81.4807,0.925819,560.0256,84.77937,0.10392629,582.4945,99.79812,0.9970187,568.37946,99.49418,0.9483459,576.1744,132.57164,0.9957541,555.2436,126.16292,0.7994145,545.8499,136.81442,0.9903814,540.98505,133.89812,0.8173524,580.90717,151.17592,0.9966537,572.00024,146.89651,0.9860876,530.19806,154.98877,0.99338585,524.49866,149.92876,0.9708661,537.5183,207.38924,0.9742628,530.77423,197.27792,0.93705446,0.70647312,0.51929446,0.30337212,-0.37067897
25,833.3333333333334,549.6698,88.3121,0.8975421,552.4854,83.710846,0.9160458,549.3155,85.262375,0.39725983,565.2328,81.784096,0.92833,557.0585,84.94981,0.10620892,580.93994,100.077515,0.99699533,565.46063,99.96719,0.948074,575.2398,132.51666,0.99548596,553.2522,126.66135,0.79456264,543.8789,136.99785,0.9897447,540.47327,133.70328,0.8111702,579.80743,150.35474,0.9964965,569.9279,146.00414,0.98558354,530.4588,155.00949,0.99313086,523.5746,149.2173,0.9702288,536.9916,207.37311,0.9738253,530.0918,196.21153,0.93679243,0.34841929,0.24589109,0.0729567,-0.23581962
26,866.6666666666667,548.7163,89.61499,0.92400134,551.7971,84.835144,0.94051737,547.7415,86.45235,0.4854845,564.8724,82.22221,0.9396876,554.55536,85.67007,0.12390072,579.54034,100.51887,0.99726737,564.22266,100.528435,0.94962573,572.384,133.84756,0.9953442,552.98975,128.06807,0.7773821,542.2394,136.90689,0.989235,540.4719,133.5654,0.7959938,579.021,150.26866,0.99605006,569.0891,146.06882,0.98329794,530.23224,154.06903,0.9926001,523.2982,148.37186,0.9670593,536.4181,206.9199,0.973112,529.38354,195.7548,0.9338886,0.2879872,0.11471642,-0.23188929,-0.1265074
27,900.0,547.0335,91.5412,0.9180615,549.84094,86.721664,0.93762213,546.0206,88.350296,0.47069988,562.6182,83.08802,0.9375621,553.2313,86.61813,0.12119808,577.7518,100.47243,0.9969566,563.3723,100.462616,0.9435511,569.6492,134.31046,0.9947702,552.6765,128.68768,0.75530213,539.8915,137.61838,0.9877073,539.87775,134.12238,0.775066,578.35736,151.07903,0.99556726,569.0334,146.90466,0.98127234,530.5273,154.44308,0.99204457,523.8522,148.3078,0.96478623,536.36237,206.83997,0.97281384,528.9427,194.9097,0.93345135,0.12322149,-0.00712372,-0.12012062,-0.02652971
28,933.3333333333334,544.70844,93.22386,0.9235157,547.40717,88.586136,0.94703585,543.8252,89.92848,0.47238004,559.94556,84.28555,0.9471118,551.4854,87.18644,0.11633811,574.7002,100.56912,0.9973122,562.68604,100.30893,0.93663144,566.4036,134.80528,0.99536526,553.0836,129.50208,0.71537024,537.7668,139.00154,0.9883908,539.1092,134.86302,0.7440807,577.3528,151.0696,0.9953061,569.49713,146.91525,0.97770554,530.5636,154.43983,0.99137974,524.45435,148.22504,0.957389,536.04926,206.67015,0.97026247,528.36786,194.44205,0.9222297,0.0756229,0.03021439,0.01326485,-0.06804379
29,966.6666666666666,542.3601,93.2797,0.9114666,544.8515,88.54495,0.93104184,542.09705,89.66678,0.45477265,557.02216,84.845055,0.93645924,550.8382,86.82054,0.15222402,571.1638,100.239296,0.9964624,562.1733,99.71192,0.95061296,564.0964,133.81789,0.99294066,552.6643,128.29967,0.76332545,536.0406,141.27122,0.98424214,537.6181,137.74738,0.7816038,576.613,149.25404,0.9943685,570.282,145.34958,0.9788629,532.3558,153.72124,0.9909676,525.6094,148.64493,0.96528137,536.23505,202.41681,0.96864927,528.82324,192.18752,0.9322376,2.91619087,1.05209942,2.66009447,-0.56670403
30,1000.0,539.8099,93.60837,0.89220786,541.7819,89.12677,0.92521656,539.82294,90.28732,0.40339872,554.1176,85.585846,0.94318,549.72455,87.782394,0.13030262,569.5832,101.41733,0.99693143,561.8791,100.55052,0.9446282,561.20447,134.16553,0.99429363,553.1387,129.73291,0.7485363,534.53894,141.89548,0.9842465,536.8256,138.79767,0.7475197,575.88055,151.81796,0.99481285,570.8058,147.4482,0.9789058,531.4889,154.60222,0.98839766,526.9694,148.18292,0.9519845,534.22003,203.83882,0.952737,527.9135,191.89784,0.89099187,1.78372004,1.36996462,0.84747677,-0.76592248
31,1033.3333333333335,537.3351,93.890076,0.8989511,539.39276,89.53595,0.9236492,537.0644,90.75599,0.44498584,551.75525,86.380005,0.93790966,546.0601,88.7671,0.15172143,567.8855,102.06853,0.9968311,557.7631,101.30019,0.9555971,559.5148,133.47748,0.99380684,548.8223,128.82683,0.7980939,532.11456,142.23267,0.9832797,534.42334,139.35318,0.78577685,575.81415,150.53142,0.9954679,569.0224,146.36086,0.9838943,532.31696,155.41351,0.98978335,526.4037,149.22742,0.9628572,535.1563,202.66159,0.9587498,528.3407,191.39796,0.9116407,1.74529315,1.2039083,0.51241639,-1.15502486
32,1066.6666666666667,534.47253,95.505974,0.8809268,536.1616,91.19302,0.9105357,534.325,92.35754,0.39988142,548.2166,87.55675,0.933196,543.8833,89.87518,0.14127323,565.6406,102.545975,0.99647623,555.9609,101.422905,0.9516679,558.1009,134.08972,0.9934377,547.2233,128.86288,0.7934865,530.5258,144.4503,0.9820911,532.0925,140.68495,0.779947,575.51245,150.56107,0.995122,569.0364,146.22485,0.98298186,533.05457,156.66995,0.9887372,527.21234,149.76874,0.95990515,535.80774,202.72238,0.95469,528.7671,190.40292,0.90464056,1.74529315,1.2039083,0.51241639,-1.15502486
33,1100.0,531.8837,96.98187,0.87223756,533.31757,92.664444,0.9059634,531.55023,93.92937,0.38567698,544.3781,88.318405,0.93198204,540.7567,90.74472,0.14106707,562.57196,102.3672,0.9962049,553.2131,101.115,0.9474141,555.7705,134.738,0.9930657,545.1947,128.63785,0.77781934,527.01404,145.98227,0.98063666,528.9791,141.58936,0.76283,575.6884,150.29788,0.99425185,569.4995,146.08356,0.9799448,530.7151,157.17023,0.98650384,526.1164,150.3363,0.95146585,537.2342,202.33292,0.9465094,531.56165,189.74222,0.8873343,1.26721883,0.60723553,0.98110789,-0.52396172
34,1133.3333333333333,530.39166,98.45965,0.87682587,531.9052,94.11981,0.91157544,529.77094,95.05003,0.36919615,541.7437,89.06137,0.9355648,538.9559,90.41364,0.14650182,557.66156,102.2247,0.99597794,553.2121,100.18872,0.9387581,552.8697,135.9069,0.9923354,547.6854,127.51457,0.71939445,527.1803,146.14572,0.98068905,529.5502,140.796,0.73319393,574.08057,149.59929,0.99292326,571.29156,145.76776,0.9728822,529.0262,158.8269,0.9871286,526.6789,152.58203,0.9493055,538.6909,200.76215,0.95611686,535.3148,188.00201,0.904875,1.01518024,0.52199656,0.83568579,-0.24441721
35,1166.6666666666667,527.117,100.17008,0.8837539,528.613,95.52667,0.915904,526.6098,96.83395,0.42465526,538.9816,90.19783,0.93270814,535.9364,92.29486,0.16970445,555.59753,103.23451,0.99487466,551.41284,101.883545,0.9428583,550.5509,137.70831,0.9887341,546.7986,129.857,0.7331689,525.94165,147.32095,0.9721142,529.29364,144.58286,0.72519356,574.6398,150.74408,0.99046224,571.7741,147.2921,0.9695127,527.97986,158.18677,0.98273003,525.72064,152.92107,0.94311816,539.43866,201.91495,0.9428553,535.3633,190.74385,0.88942224,0.76966741,0.43921405,0.53820916,-0.3313757
36,1200.0,523.52997,101.10454,0.9177435,525.8814,96.59863,0.9431798,522.6279,97.76906,0.5185326,537.7984,91.98363,0.94563407,530.5022,93.84688,0.1826139,553.5917,105.29466,0.9957527,547.0145,103.74098,0.94960314,547.3917,139.57974,0.9897227,542.8561,130.9361,0.73988056,524.30176,148.87119,0.9744664,528.401,146.78365,0.731551,575.9397,149.17996,0.99161303,571.0884,146.01593,0.9726054,528.8127,158.48978,0.98562384,524.79474,154.43683,0.95106345,541.56726,201.72931,0.9524979,536.697,192.92505,0.90546155,0.74795584,0.53108544,0.36208138,-0.38246995
37,1233.3333333333335,519.4992,103.51793,0.8968099,521.5059,99.64639,0.9274058,518.67346,100.373474,0.423645,532.73193,93.21954,0.93203264,526.6799,94.30998,0.12841558,549.7275,104.10719,0.9949869,542.46326,101.8327,0.93117696,543.96277,139.04057,0.9905938,537.40155,129.31851,0.70513135,521.81256,150.59354,0.97893447,524.9423,145.80531,0.7318875,575.59424,147.0119,0.9929329,570.73267,143.88292,0.97474843,528.09015,159.27167,0.99041593,524.91504,155.37126,0.96371967,538.98785,200.89426,0.97432953,535.8723,192.93704,0.94475424,0.77540974,0.35372943,0.38541769,-0.57235387
38,1266.6666666666665,514.9864,104.89447,0.8773921,516.8369,101.329414,0.90512216,514.46344,101.81853,0.37395215,528.16785,95.62056,0.9188051,522.5693,96.13609,0.11944527,546.1837,106.28788,0.99476224,538.31604,103.38704,0.93891937,540.71875,141.6492,0.9912698,532.7274,130.70789,0.76592386,518.4435,154.81845,0.98120797,521.2129,148.69496,0.78737557,576.23566,145.31836,0.9939903,570.7362,142.243,0.9804489,530.31366,161.0416,0.9909593,526.0625,157.61557,0.96892726,540.12244,201.07921,0.9730926,535.7165,194.406,0.9458486,0.77540974,0.35372943,0.38541769,-0.57235387
39,1300.0,513.0921,107.78175,0.8487397,514.0447,103.61988,0.89371556,512.36926,104.56284,0.37515727,524.45654,97.40816,0.9165664,520.58545,98.995995,0.13846217,543.66266,108.61911,0.9933247,538.6573,104.70555,0.9278778,536.78326,145.86488,0.98733145,532.4338,133.50768,0.7305383,514.0412,162.5324,0.9657639,518.02637,152.30292,0.71426165,576.58295,146.14069,0.98918205,572.5148,142.48856,0.9684068,530.38354,158.90678,0.9801222,529.0076,155.13284,0.93892336,541.2724,203.67154,0.93223315,537.0451,196.7587,0.87045646,1.22826053,0.57824936,0.91380104,-0.58242534
40,1333.3333333333333,508.7569,110.77233,0.84403753,509.3734,106.71969,0.88536894,508.29398,107.65298,0.37208378,519.1983,100.23625,0.9115916,516.82855,101.82805,0.14471717,538.66846,110.40082,0.99309736,535.2577,107.12333,0.9338773,531.437,147.29265,0.98709214,528.13837,136.36203,0.7582947,510.62024,164.3419,0.9654448,513.415,154.64227,0.7388169,575.4198,146.36137,0.9888747,572.3209,143.30682,0.9696464,529.8981,159.7676,0.978626,529.30316,156.96231,0.93841565,540.69293,203.45448,0.924432,536.4721,197.86055,0.8616195,1.24143411,0.56989742,0.95212172,-0.55663257
41,1366.6666666666667,504.0511,113.15216,0.7908013,504.41818,109.39299,0.8522033,504.05005,109.980934,0.25394788,513.6258,103.132065,0.91055065,513.4854,103.88738,0.10668464,533.26416,111.50379,0.99283797,532.4706,108.6335,0.9191746,530.0713,147.71263,0.98885465,527.61053,137.18979,0.7250137,510.20093,167.24594,0.97120553,510.9451,158.60449,0.7229953,573.6964,144.83328,0.9895403,572.78894,142.18771,0.9677001,527.9704,160.86859,0.98107153,527.4548,158.73853,0.9381268,540.0682,201.04488,0.93268,536.9411,195.41586,0.86991686,1.06852022,0.47114795,0.78975009,-0.54410465
42,1400.0,501.40256,115.49274,0.7762493,501.615,111.693344,0.83084095,500.82056,112.49049,0.26144847,510.21442,105.51378,0.88859653,508.2873,106.89527,0.11132816,530.30273,113.584404,0.99154824,526.1509,110.507355,0.91386646,528.99536,148.88286,0.9873126,522.42377,136.7388,0.7318583,507.72015,169.3001,0.96862507,510.1265,159.7023,0.73073447,570.09186,142.99168,0.98885614,566.9591,140.51874,0.9673291,527.3133,159.95935,0.98004854,525.898,158.4693,0.938271,539.9329,199.3148,0.9308658,536.01294,194.70558,0.8697559,1.0283072,0.37657446,0.77795911,-0.55712386
43,1433.3333333333333,497.49817,118.438446,0.7871845,497.715,114.67059,0.84817547,496.79987,115.25883,0.26873246,506.35938,108.05293,0.8997638,504.18698,108.92807,0.11213643,526.0151,115.5386,0.99183136,524.32794,111.324455,0.9108594,524.0069,154.10236,0.9870101,520.865,139.84267,0.7075925,503.64276,174.1559,0.9668037,507.05588,162.66566,0.7081928,570.49335,140.44298,0.9874121,569.0159,137.73802,0.9623931,525.5426,160.40599,0.97876817,526.9051,159.27719,0.9325639,538.6458,199.94421,0.925958,537.51263,196.29295,0.85870796,1.05441659,0.37362671,0.8243861,-0.54091126
44,1466.6666666666665,493.9222,122.04907,0.6997747,495.05194,117.64589,0.812991,493.15195,118.13959,0.09089594,503.96103,113.80214,0.9203655,503.87317,112.77904,0.025518063,523.108,120.050644,0.9845489,518.2574,117.18902,0.9191628,519.5302,158.95372,0.9819708,516.2629,152.81596,0.5798954,499.2626,177.63556,0.9568918,502.34528,169.17703,0.6027525,568.9339,136.75882,0.9795645,563.8592,135.33282,0.9528257,524.31244,161.36247,0.97458184,523.9613,159.53354,0.90561926,539.2847,200.46106,0.9227173,540.28,194.9076,0.80881596,1.08459274,0.38050479,0.85558307,-0.54729804
45,1500.0,492.25943,125.496216,0.7316665,492.23972,122.99196,0.7995417,491.65323,122.37814,0.2025941,499.10825,116.81093,0.88102055,497.0394,115.29187,0.09183243,518.2189,121.89197,0.9929491,514.33295,116.442444,0.90044,517.72064,160.04144,0.99111617,510.8275,147.04678,0.7136659,497.01593,180.75684,0.9764004,497.8442,171.41547,0.7305502,565.378,137.4213,0.99175197,562.1603,134.50035,0.9714325,527.0893,165.263,0.9859583,525.6252,162.14702,0.9484381,537.7014,200.20462,0.9485818,535.6072,194.11252,0.8922327,0.96886837,0.29796792,0.82487739,-0.41170176
46,1533.3333333333335,488.83005,128.98363,0.72773147,488.96124,126.1537,0.76870215,488.2202,125.95241,0.18942922,496.66595,119.88908,0.84191275,494.09393,119.149574,0.08166316,515.18024,123.431366,0.9888672,512.00397,120.17087,0.89806724,512.7699,159.20346,0.9876244,506.60468,148.37662,0.7383077,492.94058,180.8559,0.9753446,494.42368,173.84007,0.77645546,566.335,138.31477,0.9887812,563.48364,136.80812,0.96709555,526.9641,164.88625,0.98313856,525.85754,163.36569,0.9468643,537.9398,202.19537,0.94604975,535.53235,196.64658,0.9007137,0.90807531,0.26480578,0.80571704,-0.32449763
47,1566.6666666666667,485.85303,132.73822,0.74413204,486.56653,130.41267,0.8022993,485.0501,129.99028,0.20274365,494.63953,125.53482,0.87034637,488.58456,124.23268,0.075609766,511.83963,129.42047,0.99383754,505.69968,124.88733,0.90408045,507.48074,165.12479,0.9934098,498.50165,152.21378,0.7454883,487.87888,184.81891,0.9836535,488.21225,175.58269,0.7786747,563.83203,137.6127,0.9950252,558.2304,136.0119,0.9817723,525.7529,165.94235,0.99206746,522.17444,165.21268,0.96862924,539.85266,199.32745,0.9726857,535.2422,196.17012,0.9394548,0.87762739,0.24933012,0.8184906,-0.19528812
48,1600.0,482.14868,136.41069,0.78906524,482.83954,133.71422,0.8494339,481.04105,133.72281,0.24472976,490.9983,127.66138,0.8979868,484.57056,127.45557,0.08575037,507.42743,130.76025,0.9950389,503.4518,128.28386,0.911883,500.82974,167.67792,0.9939737,495.6829,158.71689,0.72943527,481.89804,189.84048,0.98340744,483.64066,182.27472,0.7553941,561.48224,137.85956,0.99544084,557.1716,137.2575,0.9822864,522.3807,166.83719,0.99311817,519.98047,167.71027,0.9709501,537.979,199.8393,0.97683823,533.5884,198.11888,0.9461235,0.92161236,0.30902196,0.85165274,-0.16900406
49,1633.3333333333333,477.1678,140.43321,0.69369864,477.27368,137.88303,0.78415513,477.21948,137.20425,0.17196567,484.20572,130.9817,0.8890351,482.5497,129.16432,0.08068425,501.28055,132.43404,0.99309903,501.6963,128.33351,0.89306825,496.09073,169.95743,0.99180835,495.37753,160.2154,0.6927907,476.6752,196.02426,0.9753194,479.42804,188.96605,0.6962598,558.5786,136.98512,0.9920598,557.3806,135.45981,0.9713897,519.48724,167.40662,0.98758507,518.3223,166.90636,0.9511735,535.72565,201.24968,0.9535415,532.8763,198.78726,0.89749485,1.07007262,0.51290768,0.91871394,-0.19479683
50,1666.6666666666667,474.00067,144.94856,0.61312187,473.41714,142.50034,0.7152892,474.48395,141.7419,0.13113768,479.31714,134.05917,0.86452127,480.35968,132.0597,0.071996965,497.26935,133.04233,0.99109554,499.71957,128.45218,0.87427324,492.31183,170.7241,0.990497,493.74756,160.27692,0.68194544,472.10016,198.18304,0.9716727,476.69385,191.88542,0.6839524,557.35724,135.2193,0.99111813,557.2363,133.54755,0.96943027,518.9922,167.81189,0.9863581,516.80096,167.09137,0.9486226,536.60046,200.00317,0.95011026,530.5811,197.52042,0.8930098,1.20251183,0.60477907,1.03883456,-0.03316213
51,1700.0,472.2075,148.65225,0.66565824,471.6227,146.04489,0.75573057,472.51834,145.25006,0.17324394,476.76596,136.80597,0.87647444,477.93842,134.68495,0.09577656,493.67178,136.8533,0.99096674,498.02777,130.0283,0.89065504,484.6319,180.3928,0.98782045,489.15778,164.64388,0.6789758,463.3675,207.09505,0.96232224,470.72205,200.48227,0.6607378,556.1719,135.81017,0.9872263,557.64636,133.46616,0.9605433,514.7347,168.4479,0.9815655,517.3496,167.10117,0.936843,535.8055,199.59134,0.93741214,534.60394,196.86345,0.8740845,1.35034375,0.65366251,1.17615036,0.11324255
52,1733.3333333333335,470.18185,151.77704,0.67055327,469.69754,149.22153,0.75627905,470.5497,148.17618,0.18226236,473.99188,139.819,0.87760293,475.03995,137.12146,0.10461919,490.28165,140.47894,0.9913896,493.83896,132.17586,0.8952594,479.02814,186.58633,0.98739314,483.7591,167.3247,0.6719718,457.0952,212.63612,0.95940375,465.52295,203.75476,0.64555746,553.86426,137.55252,0.9855413,555.1997,134.79195,0.9557267,512.0791,170.17741,0.97874945,516.7238,167.61816,0.92735636,536.8063,198.15134,0.9288118,539.03186,194.0166,0.8574333,1.43318495,0.64015202,1.28226919,-0.00319339
53,1766.6666666666665,466.58417,155.50029,0.6137548,466.09775,153.17825,0.6868303,467.25443,151.7101,0.15603179,469.84378,144.0437,0.84096897,471.01874,140.4053,0.09946242,486.19318,144.59998,0.9902823,487.37888,134.92331,0.88982695,476.04507,189.69324,0.9869322,479.2978,167.74341,0.6925522,454.86346,215.29199,0.9595608,465.46613,201.45222,0.67169446,547.98773,142.70535,0.98674494,547.6884,139.5753,0.9606458,512.1335,173.3966,0.9795192,514.19147,170.12706,0.9332373,536.4441,198.53822,0.93073374,536.5374,194.22641,0.8640854,1.26285706,0.60969198,1.10589577,-0.00884324
54,1800.0,465.7176,158.42683,0.6293962,465.2672,156.38318,0.68351233,465.84018,155.10883,0.17026561,468.68787,147.99623,0.8108887,466.94138,144.69135,0.09535113,484.2254,148.50845,0.99096936,481.8209,139.80319,0.88962364,474.42465,193.2507,0.9888699,475.38715,172.387,0.7148164,449.98782,218.54031,0.966404,466.64008,200.5752,0.71062964,545.3607,142.82129,0.9909394,542.24634,140.40656,0.9718918,511.3266,175.03711,0.9855952,512.4451,172.89566,0.9514637,534.3535,197.94916,0.9549804,535.9303,194.68767,0.9085821,1.25490574,0.59618148,1.10417625,0.01228227
55,1833.3333333333333,461.09683,162.34642,0.6829808,461.00385,160.30379,0.73966944,461.5585,159.02664,0.222861,464.5558,151.71362,0.8398753,463.53708,148.05826,0.12046475,479.1628,153.28651,0.99108654,478.79596,142.2362,0.8967333,470.44125,196.36841,0.9864573,473.21234,169.55217,0.6998029,449.54654,222.1542,0.95817286,464.97852,199.45428,0.68217933,538.58887,149.99548,0.9891468,537.03577,146.73683,0.9679015,505.14908,178.26793,0.98358893,508.08514,174.88448,0.9474844,534.80096,200.09625,0.95382786,537.57996,195.97684,0.90878856,0.97590803,0.48097377,0.8347032,-0.15598485
56,1866.6666666666667,456.6951,165.77528,0.6497445,456.06686,164.67947,0.7477279,457.34006,162.39795,0.15840186,458.93903,157.43138,0.88563573,462.44223,151.73744,0.105442956,471.30508,158.84839,0.9932447,481.43958,143.30399,0.8858267,465.50604,202.4835,0.9902187,478.72705,168.68114,0.6400298,448.11676,223.97173,0.96678036,465.13547,199.78986,0.63269776,530.80457,150.61588,0.9900034,537.17456,145.45038,0.963021,501.3312,182.90782,0.98411083,511.97125,177.0429,0.9372998,527.7602,202.90283,0.9508043,536.2741,195.40823,0.8915933,0.89846834,0.44044227,0.77402878,-0.11889239
57,1900.0,453.43134,169.267,0.5810431,452.7973,167.96655,0.6602589,454.74622,165.32767,0.15820648,455.2665,160.32336,0.8490696,459.506,153.77873,0.12805119,469.1818,162.99208,0.9920506,477.5372,145.64172,0.88802946,464.9011,202.13974,0.9863085,486.07114,164.41486,0.67900544,450.03082,225.01718,0.95206064,485.45517,186.48572,0.64718753,523.84973,157.95493,0.9906667,528.1875,151.50685,0.97054076,506.181,192.7847,0.98265314,513.0852,182.39818,0.9457702,529.63336,199.9584,0.948811,536.50745,188.14468,0.9008082,0.92054523,0.43700324,0.80645398,-0.0778696
58,1933.3333333333333,445.77084,173.46445,0.6531675,445.6092,171.48721,0.72815037,445.34134,170.05815,0.17963734,452.11185,163.07426,0.84797335,450.7536,159.73248,0.1112084,467.1472,162.28969,0.989349,468.32205,153.85458,0.89431226,468.3178,203.16452,0.9845708,472.2823,184.45584,0.69107616,453.4185,223.14955,0.9501796,457.7947,217.20479,0.63761646,521.0423,159.10095,0.98606384,521.39343,157.24629,0.95844215,508.56528,192.56004,0.96904033,506.5529,189.9479,0.9077048,528.68475,196.18823,0.9065223,525.4631,192.14029,0.83267,0.9074885,0.45665487,0.7757483,-0.11496207
59,1966.6666666666665,443.2942,174.87828,0.6352849,442.7323,173.12292,0.6727305,443.26837,171.65854,0.23292987,446.00385,165.06015,0.7920896,446.68665,161.39905,0.16794875,462.92184,166.07066,0.98389536,462.45795,157.43321,0.89785516,468.17606,210.35995,0.97095954,469.1738,192.12694,0.70842606,458.32007,218.70929,0.921443,457.02185,217.0602,0.65001756,517.96045,166.36592,0.97204745,517.3533,164.3848,0.93814987,499.83832,197.1524,0.9364475,499.01437,194.66418,0.8578207,525.4356,194.5624,0.82974327,524.2454,192.75687,0.73977476,0.83888044,0.39548916,0.72416276,-0.15131759
60,2000.0,436.92258,175.7976,0.57553846,436.02206,174.322,0.6131673,437.57086,172.4694,0.1969058,439.56738,166.69333,0.76639116,443.04214,162.21127,0.16011156,458.7929,168.41516,0.98033315,458.64648,159.22447,0.8909463,465.61374,217.65643,0.96383137,468.23523,199.72195,0.7097709,453.27856,219.17593,0.905659,453.82867,217.50818,0.6512564,513.0946,171.37839,0.9643508,512.0514,169.1118,0.92814606,505.40414,198.97192,0.9165158,500.03677,195.8287,0.8367914,527.4788,191.36957,0.78933454,520.5305,190.37808,0.70460546,0.86429809,0.42594919,0.74086665,-0.1292095
61,2033.3333333333333,431.00848,179.97945,0.52336013,429.62888,178.13504,0.55169576,430.51038,177.17389,0.1467789,433.72983,168.64801,0.71119285,436.16052,166.14938,0.11600935,454.17474,168.33867,0.9729706,453.05914,160.60277,0.85294235,465.73257,220.41922,0.96067894,468.933,200.45703,0.66268224,451.22873,221.18127,0.89639884,454.32394,217.82303,0.59731495,515.29297,172.8536,0.94989735,514.5224,172.66696,0.8944529,515.2242,197.41324,0.8492918,511.31485,196.82967,0.71033466,546.2468,185.26875,0.66728747,541.407,185.74124,0.55589855,0.98913134,0.55958031,0.794663,-0.18374279
62,2066.666666666667,420.90173,169.62308,0.48035607,420.43634,167.82718,0.5231895,422.49786,166.68927,0.14665025,426.21204,163.5314,0.75284886,431.57013,159.84262,0.14116153,449.09213,170.51958,0.97494626,449.34055,162.77557,0.88183916,463.60614,217.94978,0.9454354,466.94183,201.93971,0.67456317,456.21854,219.92746,0.85334694,458.09845,216.96236,0.57728314,508.0423,181.52567,0.95028126,508.31378,180.32254,0.9096327,501.52466,202.10173,0.8778234,502.93936,198.07712,0.7903436,534.5176,190.01733,0.72770995,542.37854,186.58289,0.6497022,1.03768162,0.65243429,0.75585102,-0.28249226
63,2100.0,425.2583,183.22835,0.56571937,423.7341,181.44572,0.5883858,424.7015,179.38834,0.18883084,427.6963,171.45998,0.73127234,430.52454,167.10623,0.1579923,449.99664,173.3628,0.9720971,449.04843,161.02933,0.8812646,463.67865,225.71663,0.9457673,464.88824,198.79083,0.6946884,451.9196,221.78384,0.85798407,451.65335,216.15105,0.6039459,513.6323,180.66759,0.92861754,513.6504,178.09741,0.8741748,518.8353,206.37216,0.7991528,519.66077,200.58633,0.67861766,542.98804,193.28503,0.56046885,546.2263,188.05154,0.4748035,1.02429023,0.66569914,0.71826727,-0.30017873
64,2133.3333333333335,420.481,183.75572,0.37503466,418.52808,182.85251,0.4431592,421.0315,179.86429,0.07776369,421.6028,175.71416,0.7320416,430.2495,168.73335,0.099649556,441.3544,179.54791,0.9742556,449.24634,162.93024,0.7999876,454.62054,227.90927,0.9596433,466.8626,196.16522,0.5521703,443.04108,223.3422,0.88119465,448.90784,218.62756,0.49395135,500.1894,188.97833,0.93771845,507.02975,184.56871,0.8501808,509.3062,213.3643,0.81081545,520.7488,203.52727,0.6244744,529.8569,204.95825,0.58147603,547.09485,194.63585,0.44857678,0.96908536,0.65489074,0.67331415,-0.23852172
65,2166.6666666666665,416.41986,193.02916,0.5497166,415.21628,192.22502,0.6420492,417.10977,189.08607,0.14275879,419.7314,183.14302,0.8167047,425.88428,176.29247,0.11413348,438.67694,184.5289,0.9802147,445.2716,168.86813,0.820685,446.71762,231.3522,0.9658464,459.3636,201.73848,0.55507904,439.62677,225.23462,0.9043108,447.70935,220.52313,0.51751333,499.86325,189.60834,0.931925,505.2486,185.59679,0.82968146,506.37265,217.4757,0.7963642,515.5903,208.54901,0.5835645,526.6307,208.13751,0.54300165,539.34924,199.15451,0.39639905,0.93842303,0.72047807,0.5411569,-0.26210368
66,2200.0,412.80057,195.23833,0.50029457,411.65396,194.49847,0.63676727,413.9323,190.77141,0.11720802,415.6795,184.90425,0.84743404,424.31097,176.42834,0.10921697,433.2744,186.72795,0.97690684,448.119,169.6057,0.7644448,442.93802,229.99861,0.95452946,468.7056,199.85597,0.421728,442.46927,227.35513,0.8693279,461.06274,220.85425,0.38751927,499.3594,195.09608,0.88583606,511.41064,190.23131,0.7170321,495.9447,224.89,0.6871821,518.31665,213.68893,0.41658497,513.93054,212.7264,0.40870357,546.97644,199.82275,0.26440814,0.9879844,0.73472551,0.57874066,-0.31835649
67,2233.3333333333335,412.3757,191.68262,0.15337999,410.23026,190.87198,0.2097238,414.439,187.6073,0.03504367,413.0056,187.00493,0.5877186,426.1493,179.11049,0.07308241,430.2944,191.96024,0.8912805,448.60864,174.36888,0.5726572,442.65884,231.33624,0.8349651,477.47214,199.4681,0.34193176,441.55255,231.36047,0.66158426,474.42752,216.94598,0.30217114,492.11655,190.6588,0.7904929,505.2821,185.66422,0.64422774,504.22226,209.37529,0.6443248,519.9672,196.8182,0.4760847,525.2379,209.81708,0.4772841,547.22095,196.0126,0.3869021,0.99650762,0.78262637,0.55417611,-0.27094692
68,2266.6666666666665,416.72815,186.14397,0.028331831,413.07913,184.72652,0.022817677,418.34076,182.85188,0.012976882,409.53937,186.18489,0.2147816,428.26727,181.56047,0.11794685,417.48425,196.59529,0.6264656,448.9623,182.0518,0.5372324,424.50305,225.60497,0.52500015,489.50702,200.24358,0.45577267,425.9836,214.93521,0.3729282,496.25998,213.41772,0.36633822,465.53568,190.52734,0.7608821,484.93567,187.10889,0.7531988,497.43106,212.8701,0.680798,507.5581,202.49553,0.69391847,521.2057,216.18178,0.5836243,524.9996,206.86694,0.60676557,1.74363744,0.64776702,1.38200124,-0.84305515
69,2300.0,419.9263,184.7312,0.022685269,414.4473,182.41156,0.011372957,420.57227,182.07658,0.019618487,404.29095,184.34473,0.07751861,424.18073,184.75461,0.17507052,414.20032,197.67313,0.34877434,442.7692,194.26877,0.4227703,417.5293,214.46524,0.2309191,484.38504,210.97044,0.40265113,414.54742,197.95485,0.20421192,502.3232,211.1219,0.37135914,464.18463,200.11449,0.54335403,481.3299,200.7251,0.6272408,500.7117,206.98914,0.58638275,513.33765,201.54736,0.6978358,508.70886,213.70976,0.600382,516.8922,209.73117,0.67962086,2.91021898,0.5924968,1.69986644,-0.89464069
70,2333.3333333333335,15.811884,122.614105,0.701026,16.769888,120.420715,0.7423271,15.253559,120.74469,0.3676509,22.531445,118.24381,0.7552907,17.679642,118.79858,0.1489485,33.710464,124.10019,0.970737,19.8107,123.39372,0.9173849,44.36888,138.03122,0.9378997,16.241236,135.3124,0.67467684,45.78218,152.07742,0.8773777,15.819008,145.85477,0.6227074,38.450527,145.58336,0.9711514,29.869392,144.84015,0.9520818,37.11142,158.92578,0.92716074,25.854954,158.01035,0.86497253,40.53808,175.48044,0.84976655,30.336742,173.3959,0.7707475,1.17331322,0.64015202,0.92829412,-0.32425198
71,2366.6666666666665,15.980246,121.59802,0.50975865,16.292,119.94714,0.45904428,16.06421,120.07637,0.2794189,18.168938,118.440765,0.6604944,19.960331,118.32298,0.31832182,21.39065,123.99658,0.9610634,24.879757,123.015625,0.94180775,24.786118,127.3533,0.88785344,33.00439,125.74078,0.78782105,31.075436,124.46422,0.8165478,32.042095,124.45244,0.71063364,27.5237,145.81923,0.9619267,30.201822,145.19962,0.9560533,24.841331,158.1447,0.8795029,28.973297,157.32065,0.85014933,29.66087,167.96742,0.74671763,32.822662,166.22807,0.709122,0.62585527,0.40015642,0.47606086,-0.0702546
72,2400.0,478.71338,190.50919,0.24625397,479.13614,188.87602,0.28023645,478.42114,188.83801,0.09802547,481.0066,187.44583,0.47915217,482.3091,187.45491,0.07757733,485.60614,190.54538,0.8153607,486.92056,189.57419,0.7416512,483.74475,198.59616,0.69318783,483.30322,196.22058,0.43491998,478.86328,201.67722,0.6000579,478.51614,199.66484,0.40385562,496.33716,203.27505,0.84726447,496.66965,202.70609,0.82143956,490.06143,215.27051,0.7721408,491.32358,214.68074,0.70604753,494.6314,234.58475,0.66843814,495.11255,232.80438,0.6067424,0.81448864,0.43528372,0.60502472,-0.32842795
73,2433.333333333333,16.72913,121.24249,0.16959228,16.615084,119.33033,0.16224657,17.606913,119.41147,0.062115677,17.601088,117.28607,0.64244545,24.552582,117.098816,0.21421924,17.664145,122.66614,0.9477992,33.04171,121.442505,0.9105568,10.006634,126.92282,0.88197696,45.35947,125.32614,0.72284645,12.215166,121.09967,0.77963877,44.668983,120.776505,0.61365443,25.938244,147.73106,0.971192,35.765682,146.74564,0.96439993,20.44999,164.1687,0.9176276,31.970901,163.07045,0.8876309,22.675274,178.32959,0.82226795,31.693413,176.13885,0.7837038,1.16542365,0.40408675,0.86344372,-0.6703664
74,2466.666666666667,17.336227,119.531425,0.20515248,16.930887,117.91401,0.17238522,17.91772,117.873604,0.084026374,16.582949,115.64656,0.609993,23.289589,115.1867,0.26966766,17.256012,119.32231,0.95895517,30.94286,117.99303,0.94219625,10.782213,125.17543,0.90678555,43.608215,123.60541,0.8231081,10.997896,123.220856,0.823106,42.594547,123.58394,0.7247347,27.195036,139.88086,0.9797005,36.053013,138.96779,0.9775333,23.301626,156.78201,0.9405331,34.77744,155.56113,0.926812,26.107157,169.93706,0.8597811,36.71464,167.6939,0.8401224,1.25973194,0.47041102,1.0395715,-0.53378754
75,2500.0,487.36615,218.46428,0.38005957,487.88693,218.46767,0.27346405,490.64038,216.83923,0.2183392,476.00214,222.86728,0.6008275,491.3936,221.13034,0.3562617,449.27377,227.77861,0.9356079,486.04672,221.3658,0.76817244,415.14203,220.0649,0.9054818,457.74124,204.73557,0.57431364,429.66702,198.25398,0.87443507,447.22086,194.57814,0.589101,424.5096,218.74046,0.7641062,447.74606,215.07126,0.5970064,432.23834,196.6914,0.50165796,446.82977,192.3313,0.30322224,430.0633,194.31506,0.29028863,431.3249,189.52274,0.18385041,1.00399489,0.48171071,0.8590221,-0.19504248
76,2533.333333333333,470.79712,206.75026,0.3156102,470.7079,207.44019,0.21829021,473.5398,206.91884,0.15005346,463.07062,214.54776,0.6306335,478.33237,215.58524,0.31731856,441.657,220.38611,0.9540603,482.51196,217.84958,0.85731596,407.56793,220.64223,0.92465377,477.26718,213.62003,0.71004283,424.87234,200.5189,0.8866869,485.89236,208.87064,0.6784818,439.36084,206.44962,0.8793199,465.56998,206.78217,0.7931974,462.67078,168.96277,0.7370534,488.25345,167.95097,0.5964125,468.4056,169.7858,0.59103024,490.40475,169.2457,0.4823514,0.90390926,0.35422072,0.67945529,-0.4794999
77,2566.666666666667,482.6178,213.1865,0.13100474,479.79343,212.52771,0.05580862,483.03946,214.14896,0.102497995,464.92007,219.0912,0.21659495,480.1463,225.11255,0.3612439,440.0867,223.36122,0.7805022,480.80865,228.90547,0.6921507,413.937,217.2369,0.7280706,486.19302,222.70424,0.58510846,424.07776,204.71448,0.7019396,492.0696,221.85474,0.5788767,434.03235,205.43283,0.67777056,459.40607,210.31068,0.60524905,471.6206,165.54007,0.55277616,492.26923,171.37549,0.4752962,485.24243,173.3912,0.4776191,494.3961,179.47554,0.4163708,1.0612119,0.43405549,0.77476572,-0.58095146
78,2600.0,485.456,217.9616,0.15790457,484.12244,217.32484,0.08279463,485.9672,217.66591,0.14104527,470.53027,223.0098,0.2114864,480.05853,225.66129,0.33584455,445.131,229.2208,0.7097165,473.82,227.15694,0.5472014,414.03094,217.60147,0.6195482,472.48407,203.4252,0.40196544,422.8733,209.00464,0.6007936,493.96472,191.29367,0.43454617,433.02356,210.46268,0.6152528,451.0512,212.26968,0.5104037,464.90436,172.20465,0.57955486,481.22726,174.4743,0.47510818,476.49655,176.75197,0.58774793,485.63464,178.78021,0.5069778,1.05929904,0.45984826,0.83028159,-0.47041102
79,2633.3333333333335,491.05338,222.6524,0.120432645,489.6613,221.8726,0.08023573,491.14868,221.44221,0.0993812,479.7317,226.21964,0.12225631,485.0936,226.85852,0.16040303,459.03412,228.81067,0.42403466,479.73407,227.20502,0.22139984,438.22266,196.98997,0.45242983,469.04376,189.86896,0.19379799,440.97964,190.22324,0.5184643,470.158,176.79077,0.3038492,435.933,220.45953,0.43912488,448.7624,219.78969,0.31121892,449.093,179.4003,0.52399176,456.65842,182.011,0.39183217,431.4911,201.397,0.57988966,431.34317,205.18497,0.47786376,0.95338172,0.30582857,0.85042451,-0.30361776
80,2666.6666666666665,492.0804,226.18115,0.28980264,492.21158,225.62827,0.1895146,492.35385,223.92941,0.2640532,485.1101,227.80005,0.16813642,486.08392,225.03162,0.27842945,462.48,228.07034,0.539236,478.98718,221.258,0.39117983,443.88867,195.51852,0.4936695,466.76495,182.77989,0.3231722,445.76636,189.1335,0.5531412,468.0221,177.86209,0.4218497,428.87805,221.00833,0.525883,438.8574,217.31143,0.43438002,439.51862,187.44528,0.5671979,445.28885,186.97586,0.48499244,412.76712,210.6459,0.5876369,413.6434,213.3168,0.5188623,0.95523224,0.31049584,0.83028159,-0.35594024
81,2700.0,16.784039,121.65837,0.31548372,17.106548,119.874275,0.29804063,17.216164,119.790245,0.106881745,20.05185,117.85518,0.64291126,23.471466,117.226616,0.16613455,24.261969,121.836044,0.95633703,29.480751,119.87902,0.88870364,28.393675,126.773895,0.8920017,34.64343,123.324615,0.6035942,31.440142,126.47238,0.7977712,34.016068,123.36424,0.52967066,29.432085,143.1101,0.9743158,33.86956,142.13135,0.9583364,31.183735,157.02898,0.95910156,39.450756,155.95747,0.9300282,33.694378,170.94952,0.923305,44.72958,168.36826,0.8868339,0.95523224,0.31049584,0.83028159,-0.35594024
82,2733.3333333333335,433.08444,205.82129,0.05439299,429.00406,206.20244,0.039787333,434.55646,207.75017,0.03628908,422.49634,216.2484,0.12842359,440.95496,220.67812,0.110495605,418.64938,223.62778,0.2518985,453.56354,223.3133,0.27250648,400.16992,216.34389,0.2053018,444.95572,209.66771,0.21660139,404.93213,223.33496,0.24127148,431.24872,224.73085,0.2623855,441.8612,214.48485,0.31377202,465.35645,215.64035,0.32989213,443.1612,167.6462,0.5690713,467.13565,169.73897,0.57975227,450.50006,212.09872,0.70946884,467.0997,214.40364,0.7204334,1.02970519,0.35962492,0.8536179,-0.4497768
83,2766.6666666666665,476.44934,220.98642,0.7365586,473.97125,223.13892,0.591191,476.80478,223.16516,0.66065687,465.11728,230.70657,0.48947108,475.99115,231.63953,0.6445853,451.27634,228.87555,0.88593936,478.849,229.75037,0.8875532,434.10428,212.6575,0.73259485,466.08743,213.5099,0.71591914,421.58124,225.74243,0.7075343,448.05222,225.10675,0.70854044,444.72794,213.11327,0.753818,463.40668,213.27348,0.7487844,444.58173,168.62637,0.76730746,466.1246,171.98663,0.76188713,430.556,209.44975,0.74817437,451.4658,213.85512,0.7421779,1.04570629,0.40482368,0.85705694,-0.4416705
84,2800.0,385.34283,229.86205,0.47727585,384.65262,226.44818,0.39263025,382.22675,228.4665,0.29092452,387.5655,225.942,0.30651328,380.52448,230.5185,0.2105443,397.8253,228.3951,0.77130634,388.23938,235.71817,0.5485284,415.7825,227.80145,0.66810066,403.77438,240.0,0.2884506,417.05847,225.07141,0.66939294,415.75983,225.8608,0.38915205,420.5464,226.87404,0.5998529,412.72238,231.61063,0.48427346,434.2194,226.74014,0.40778568,428.05753,231.55557,0.30585688,435.79636,220.61612,0.357143,436.22653,226.20999,0.2870827,1.03548658,0.41514079,0.85116145,-0.41882547
85,2833.3333333333335,493.02966,225.15997,0.40229586,491.12793,224.76637,0.25245208,493.34244,224.26385,0.34189934,484.5024,225.45807,0.23978594,490.68588,225.01018,0.40189022,472.4064,222.62244,0.7113049,489.93384,218.37383,0.7299755,443.7138,215.95065,0.6051446,482.27695,210.55447,0.6321296,421.20306,229.44418,0.5834635,485.48898,221.36496,0.6284797,456.88205,210.51811,0.7032505,466.15314,206.61913,0.71442443,450.0885,183.9159,0.7144306,457.8147,182.17482,0.72754824,422.6977,219.48718,0.69551194,426.04163,218.99329,0.69395185,1.02271838,0.41710596,0.84207257,-0.40359546
86,2866.6666666666665,493.26593,231.32846,0.7401933,493.98877,232.59515,0.610865,495.10406,229.42691,0.66090626,490.17725,232.78008,0.51734936,493.30255,225.77502,0.5997486,470.8534,228.2687,0.9037756,492.1589,213.80519,0.9045316,436.6979,223.82024,0.7981388,477.66006,198.52773,0.8067661,420.13818,229.0599,0.7694864,484.60553,214.76062,0.78426814,454.2149,204.88887,0.8531102,465.87338,197.5032,0.851194,447.20483,198.52095,0.7746871,456.6761,193.85477,0.7739298,419.98853,214.81897,0.6630495,424.57693,214.35666,0.65830475,1.05966187,0.4389684,0.89783408,-0.35225556
87,2900.0,498.72366,227.72472,0.617067,498.3644,227.17566,0.36314282,499.43884,225.86098,0.60020256,491.13492,226.34137,0.32682815,495.46158,224.09473,0.6594537,473.68945,224.9668,0.8521752,492.75623,217.9912,0.9155686,450.61105,218.12961,0.70181173,488.56793,204.9716,0.85959023,444.63834,229.113,0.66484594,503.72055,203.44473,0.8074058,448.8421,211.60995,0.8516538,458.7831,206.40468,0.88781077,442.86404,210.5954,0.7356761,448.43628,207.92105,0.7957792,414.36865,212.14716,0.6218376,414.39468,211.53296,0.65572727,1.05966187,0.4389684,0.89783408,-0.35225556
88,2933.333333333333,500.68237,225.03212,0.28421703,499.42126,224.86884,0.18113048,500.95523,223.3544,0.26910543,494.8167,224.35976,0.17230815,497.90137,221.60709,0.31374055,485.16165,220.38834,0.52285737,499.48178,212.95595,0.5946726,469.68707,207.97746,0.4161482,498.0619,194.5386,0.54538816,464.45856,226.80328,0.42298207,507.51315,205.99178,0.53491807,471.54068,212.58128,0.6794492,479.3254,207.30199,0.7121952,461.5632,194.5401,0.72151923,464.76965,191.6846,0.75603616,425.21564,222.58371,0.74409574,426.59665,222.16324,0.75630784,1.04060534,0.43774017,0.87548035,-0.35323814
89,2966.666666666667,493.43015,220.5595,0.09493133,491.1321,219.74092,0.06917084,493.83365,218.81224,0.08828437,483.18155,220.92795,0.13041323,491.63382,219.6629,0.19282956,471.70404,222.4918,0.34533164,494.5835,215.47032,0.306386,438.5417,219.7124,0.27089274,492.72955,205.43047,0.24017045,418.37277,233.2141,0.24714205,501.15854,210.03755,0.255313,465.87024,217.03009,0.47494435,478.22772,212.35127,0.46049362,459.32504,197.8215,0.6090309,466.9723,195.18578,0.601034,431.4868,222.4606,0.69894904,433.56363,221.58302,0.6826738,1.13262698,0.44314437,0.93541783,-0.45984826
90,3000.0,493.09372,229.71744,0.34312934,492.8116,229.94238,0.2971451,494.48712,227.93222,0.24699657,489.10992,230.42717,0.3553279,493.6308,226.34682,0.28159484,472.79044,227.01077,0.72359973,495.06125,219.86243,0.5823047,439.98727,219.6843,0.6345533,491.08694,206.0964,0.4279856,414.65106,233.25261,0.59608155,497.4686,214.54509,0.46563208,460.73965,213.70409,0.6818615,472.142,209.69205,0.60198164,460.01376,201.38713,0.6501066,466.36578,201.30565,0.57440656,433.80402,215.54538,0.606969,435.55362,218.47495,0.5511931,1.39224452,0.45739181,1.168781,-0.60256826
91,3033.333333333333,488.1196,223.26115,0.24988309,487.30994,223.10402,0.19619747,488.85754,221.80305,0.18027481,483.44434,224.80315,0.24953167,487.59494,222.58954,0.24316382,470.42224,223.35892,0.6340338,485.70102,219.35298,0.5341784,442.08337,217.62892,0.5476054,467.75925,210.97504,0.38106984,416.9152,233.00378,0.50350714,447.35263,228.74826,0.41193807,461.47687,212.66248,0.5836122,471.1734,210.62164,0.52222794,470.24976,193.14673,0.58767724,481.55438,192.483,0.53258955,448.85974,212.80733,0.58273524,463.39996,213.867,0.5467013,1.36126545,0.52518995,1.13586451,-0.5357527
92,3066.666666666667,481.44458,206.65314,0.07858874,479.76633,207.33873,0.0479233,482.56152,206.94003,0.056283336,475.12674,214.13564,0.120153174,483.3881,213.23999,0.16643602,465.38605,217.11107,0.45316362,482.42477,212.70554,0.46149635,443.58084,212.33904,0.41306254,486.1051,203.06128,0.3944623,420.9514,231.57083,0.3880262,479.57834,229.6593,0.39458007,462.43558,211.2879,0.5881648,474.0172,210.17178,0.58011645,473.51596,178.00082,0.6825659,493.9202,175.48882,0.68125296,473.51627,213.25302,0.7377685,504.84766,211.58221,0.74004906,1.26236035,0.49472992,1.0611883,-0.47188489
93,3100.0,485.62857,217.99478,0.15274751,484.65393,218.9918,0.10478516,487.55377,217.55934,0.10362861,480.0201,224.45187,0.20314248,488.8771,221.33977,0.21553229,466.52896,224.22781,0.6060036,486.97653,219.12393,0.5268527,444.12546,217.39424,0.5471165,484.81738,208.97893,0.41432083,419.44363,230.43405,0.5033867,474.82547,229.48352,0.42709893,458.8451,216.45575,0.5677928,472.33908,215.10164,0.51334506,476.0882,183.83176,0.57373965,497.02753,183.2865,0.53077126,466.53955,213.56494,0.56944084,497.76248,215.70517,0.5429787,1.08348868,0.41317563,0.96022802,-0.28494871
94,3133.3333333333335,480.96613,186.34778,0.010470065,477.3863,185.11298,0.0075325505,480.0865,185.70538,0.010075143,470.92557,191.48434,0.029793983,478.53342,193.37819,0.056910798,470.2832,201.97742,0.07849146,481.5109,199.60437,0.089165784,451.02792,207.85457,0.07304081,481.40878,201.50558,0.080908164,423.28067,231.01163,0.06603956,458.12717,229.15929,0.08752285,476.1029,210.94305,0.21775228,485.77274,209.55829,0.23313089,476.74377,182.51237,0.47873107,502.04282,179.37074,0.50964874,461.62927,218.49106,0.70694923,502.52118,215.73004,0.72274953,1.04292856,0.43159904,0.9265746,-0.20707911
95,3166.6666666666665,480.64648,188.61552,0.018937498,478.12488,188.14165,0.013031855,479.70547,187.91936,0.012856623,475.87018,195.22289,0.040885195,479.33063,195.2088,0.05502812,475.94965,204.85101,0.1503034,480.85513,201.96407,0.17393908,455.62766,212.75052,0.16647899,477.45477,206.27519,0.17666338,419.35883,233.19373,0.16846523,445.89685,231.38875,0.20756388,479.9811,216.18483,0.36546695,485.14395,214.622,0.38409826,481.30746,185.31233,0.5770665,501.66638,183.09329,0.6068974,458.21622,217.37674,0.7179658,499.49442,217.38681,0.7395345,1.06783655,0.50308186,0.89095601,-0.30558293
96,3200.0,478.35736,190.67535,0.013518432,475.93582,190.00475,0.008968519,477.28326,190.33234,0.010360844,473.274,197.46043,0.03111161,476.11163,198.52872,0.052003305,471.74734,207.2565,0.11370476,475.62354,205.09554,0.14345361,451.39377,214.65001,0.12887272,470.12518,208.24466,0.14757495,417.86218,231.501,0.13048783,433.74084,231.59845,0.17025645,474.4832,215.51013,0.3147159,479.63904,214.851,0.3392307,479.73984,186.902,0.5372767,502.06418,185.16605,0.5736783,466.69992,217.75244,0.69451624,510.14325,218.19331,0.71985716,1.0649886,0.43823146,0.92780283,-0.28519436
97,3233.3333333333335,482.72946,204.18687,0.05925176,481.69513,204.30284,0.039709765,483.44815,203.09041,0.03452001,479.627,210.23547,0.11766618,485.51642,207.82774,0.10918594,470.1293,216.0521,0.4196152,487.68445,210.90753,0.38852307,444.97012,221.50816,0.4135144,487.30014,213.22626,0.34236616,417.94415,230.65091,0.38588783,470.04987,231.87103,0.36236125,468.321,222.0574,0.48533788,480.573,220.47678,0.45987448,478.7109,190.17703,0.522131,505.0678,189.64578,0.5102088,457.78232,217.53311,0.53733736,502.36072,220.84981,0.5331059,0.91034709,0.3448862,0.82856207,-0.15254582
98,3266.6666666666665,482.8178,190.4768,0.008077786,478.9223,189.30026,0.005513971,481.77625,190.14687,0.008142485,470.64578,196.49142,0.027940407,479.71567,199.1277,0.06299174,466.8556,208.34409,0.0823251,483.1047,206.42233,0.09085768,445.3496,215.04842,0.07372331,485.86166,208.75282,0.07757742,417.11612,229.62404,0.06410574,460.9455,230.20142,0.08193724,471.4664,215.29034,0.22577076,484.50446,214.53554,0.2358791,477.5636,191.46988,0.47194207,508.73175,189.04745,0.49788573,466.66672,219.37663,0.68251586,512.80304,217.54169,0.6957968,0.97969487,0.42251016,0.88383229,-0.01129969
99,3300.0,482.41956,191.27522,0.004148059,477.75864,189.85017,0.002841792,481.5352,191.2752,0.0045448886,468.14108,196.87001,0.018552737,479.7046,200.74081,0.047537494,464.56845,208.38623,0.047840673,483.8047,207.27289,0.054797117,444.03995,212.49011,0.0501776,491.97083,206.45844,0.056116633,417.61084,229.3733,0.04744729,472.80316,230.05798,0.06306569,470.2178,215.39795,0.17707391,484.57846,215.13268,0.18813318,476.7657,190.01958,0.43539906,506.97305,188.18341,0.4649593,471.31845,219.63187,0.68063736,512.4503,217.78789,0.6953921,0.97969487,0.42251016,0.88383229,-0.01129969
100,3333.3333333333335,478.18423,191.52846,0.0036022456,473.54907,190.39345,0.0024346681,477.19586,191.74506,0.0037168353,464.3142,197.94437,0.016758794,475.13312,201.78381,0.03990447,461.77795,208.66486,0.047079116,479.77252,207.84212,0.052354876,442.65393,211.93195,0.05452455,484.93265,206.56302,0.057439014,417.0661,229.34596,0.051615458,459.32565,230.80519,0.06595301,469.6526,216.59036,0.1852481,483.8149,216.44293,0.19408795,475.21576,188.48604,0.44552186,508.6957,186.75159,0.46985233,466.64096,219.68723,0.6815485,515.03674,217.87553,0.69368637,0.97969487,0.42251016,0.88383229,-0.01129969
101,3366.6666666666665,481.63443,192.3399,0.005451019,478.01947,191.92703,0.0035926648,481.0657,192.49167,0.005249428,470.01675,200.05925,0.02225043,478.9515,201.87653,0.046997037,465.12857,209.75415,0.0746577,483.2845,206.93388,0.07450305,443.8583,211.57161,0.086015135,498.50967,204.10332,0.08353655,418.9515,231.60172,0.081604555,494.88684,225.66742,0.09565677,470.74265,216.73744,0.27303883,483.73898,215.8767,0.27279797,476.13748,189.17007,0.51734066,507.61984,187.70169,0.5329149,463.95468,216.1817,0.7160492,512.7685,215.42975,0.7204747,0.97969487,0.42251016,0.88383229,-0.01129969
102,3400.0,485.5286,194.27448,0.006402805,482.35547,194.00465,0.003965173,485.41672,194.24136,0.006276588,474.51645,201.81,0.024183968,483.4918,202.73302,0.05494234,467.59268,210.71849,0.08531469,486.60162,206.8648,0.094409674,445.97284,211.97641,0.09617577,502.72192,203.16144,0.107717045,423.26547,233.17014,0.09266773,503.8728,226.49756,0.11725485,470.27264,215.04787,0.29984468,483.62122,213.80511,0.3104233,475.37564,190.90137,0.5157621,505.99738,189.33844,0.5431609,464.5439,214.47934,0.6964333,512.0436,214.36029,0.7064853,0.97969487,0.42251016,0.88383229,-0.01129969
103,3433.333333333333,486.31235,195.44908,0.010627013,483.39804,195.21805,0.006337126,486.52158,195.21786,0.009811194,475.70663,202.70805,0.033215236,484.919,203.00638,0.07178256,468.20288,211.44437,0.13069135,487.35077,207.28857,0.14201155,446.759,213.4171,0.13730603,503.93552,204.44711,0.1501253,423.16898,233.60498,0.12938935,506.6926,226.09866,0.15901917,470.1383,214.65869,0.3679832,483.03113,213.34215,0.37749556,477.88605,191.00194,0.5575207,504.6029,189.40755,0.5827122,469.67053,214.50345,0.7055376,510.34207,214.60925,0.7148651,0.97969487,0.42251016,0.88383229,-0.01129969
104,3466.666666666667,483.0928,194.70764,0.013279647,480.28137,194.352,0.0074862405,483.42624,194.38591,0.011596826,472.3811,201.81084,0.03561958,481.55606,202.18417,0.07668966,465.24744,211.38635,0.15979703,481.85846,207.8823,0.17271093,443.44867,214.44888,0.16956165,493.01794,206.58748,0.17703356,418.50998,231.58606,0.15901467,487.08215,227.08217,0.18961886,468.15692,216.74811,0.40844494,479.63724,216.0322,0.4169358,480.3591,189.06676,0.6027222,504.37595,187.74248,0.6249696,477.02686,216.62778,0.7343895,514.0063,217.38063,0.7435305,0.97969487,0.42251016,0.88383229,-0.01129969
105,3500.0,482.98584,194.86984,0.011285419,479.95584,194.7168,0.00675142,482.9171,194.65805,0.009962991,472.24713,202.37224,0.033255808,480.81732,202.7911,0.068647206,466.6049,211.35449,0.14422458,481.3325,208.12627,0.15475467,444.62067,215.19449,0.14800309,486.23215,208.3327,0.15086839,418.04947,230.97224,0.13045825,470.23413,228.90321,0.15612651,469.8613,216.71454,0.392261,481.29382,215.70457,0.40049246,478.09564,190.04268,0.6089949,506.64716,187.89346,0.62973946,466.9149,216.98074,0.7515781,513.65857,216.70587,0.7601882,0.97969487,0.42251016,0.88383229,-0.01129969
106,3533.333333333333,478.76962,194.15704,0.010388585,475.49258,193.6921,0.005875871,478.5848,194.03302,0.00962064,467.35037,201.49933,0.028007077,476.01447,203.04477,0.06647266,463.5365,211.50795,0.11955674,474.83368,210.47162,0.14886954,443.59567,214.48709,0.12610935,472.0331,210.64018,0.15007778,418.223,229.7948,0.116426595,442.2199,231.01404,0.15792108,468.2631,217.74599,0.35510793,477.87686,217.76102,0.38241464,480.34564,190.08878,0.58748806,504.51855,188.37265,0.62481683,473.41556,217.8754,0.7415627,512.98883,217.92314,0.760011,0.97969487,0.42251016,0.88383229,-0.01129969
107,3566.666666666667,481.6125,192.03848,0.00988783,478.6743,191.80896,0.0059184707,481.50476,191.57455,0.008516157,471.66122,199.62897,0.029285543,479.56738,199.83684,0.058774285,468.02197,209.29898,0.123976395,478.72998,206.8915,0.14362642,445.6393,215.49521,0.13303679,474.9331,210.7334,0.14419836,417.1241,230.7244,0.11695551,443.8059,231.22162,0.14921314,471.5254,217.49722,0.34792656,480.9347,216.46637,0.3665348,479.37848,190.46597,0.5622881,505.6938,187.71169,0.5923377,463.67557,218.39154,0.7117878,509.929,217.81421,0.727142,0.97969487,0.42251016,0.88383229,-0.01129969
108,3600.0,477.39218,192.85329,0.011308117,474.3566,192.22882,0.006267639,477.481,192.54831,0.009924895,466.7659,199.98953,0.029835831,475.59412,201.3234,0.066403486,463.29382,210.94334,0.1323533,473.66702,209.71146,0.16448914,442.46597,216.29437,0.1439753,471.25916,212.1498,0.16957419,415.67407,229.993,0.13341798,441.32678,230.97656,0.1791831,467.9442,219.29224,0.36278504,476.45932,219.33936,0.3911417,482.3283,189.71906,0.57700175,502.99127,188.09122,0.61605346,478.5277,218.8093,0.7208321,512.8092,219.39442,0.74140793,0.97969487,0.42251016,0.88383229,-0.01129969
109,3633.3333333333335,479.19202,192.34521,0.011319542,476.43582,191.80768,0.0065598567,479.28088,192.12901,0.0098713795,469.343,199.86401,0.032607924,477.7641,201.03165,0.06635159,465.04163,210.93561,0.13738434,476.2562,208.89194,0.16045755,442.28418,216.43848,0.14633171,476.78772,210.9396,0.16109729,415.2898,229.42197,0.13239805,453.3539,229.76962,0.16781828,468.58765,218.79233,0.3635472,477.4162,218.5053,0.3837029,480.86362,190.4684,0.572116,502.83505,188.7309,0.6037268,477.4703,218.77316,0.7160493,513.9335,219.32126,0.73220706,0.97969487,0.42251016,0.88383229,-0.01129969
110,3666.6666666666665,478.54794,194.08264,0.016918942,476.08002,193.48148,0.009245867,478.6625,193.72641,0.013435023,469.80875,200.8642,0.03836827,477.01248,201.84605,0.07402938,466.0664,211.06322,0.19057384,473.56372,209.50912,0.21781386,443.35498,217.18852,0.21059878,469.98746,212.70468,0.22046828,413.79086,229.42729,0.18844749,440.8248,230.15256,0.22877625,468.82367,221.4011,0.41695404,474.97107,221.4293,0.4353709,484.56805,190.44612,0.5766872,502.1884,188.99542,0.6045824,482.4531,219.53537,0.68654805,513.9816,220.54257,0.70205307,0.97969487,0.42251016,0.88383229,-0.01129969
111,3700.0,473.3396,197.29587,0.021645322,471.0208,197.30983,0.01132148,473.4971,197.5615,0.014311009,468.0848,206.11676,0.039496873,473.59674,206.92798,0.068643056,466.29865,215.19617,0.23270378,469.22736,214.40137,0.3008609,447.9751,220.59955,0.29750547,461.6595,217.35764,0.3443387,417.66174,230.53123,0.2941747,422.76538,234.1536,0.36653948,470.4472,219.27795,0.5090778,473.6484,220.07635,0.5428696,490.52298,189.84732,0.60452825,499.30624,189.80638,0.6446883,490.4132,218.5377,0.6521469,511.25168,221.72543,0.682581,0.97969487,0.42251016,0.88383229,-0.01129969
112,3733.3333333333335,471.8367,198.42961,0.027963001,469.3485,198.21265,0.013448617,471.78824,198.79846,0.017526085,466.6447,206.53722,0.040844537,471.55484,208.17944,0.074301064,466.33676,215.13388,0.27912647,466.88992,215.87595,0.36372757,449.46414,219.40182,0.36706093,459.4386,218.42021,0.42832503,418.03406,229.53366,0.37138847,420.78165,233.33441,0.45812577,471.96094,220.01825,0.566962,473.29242,221.56541,0.60415757,494.23627,188.03238,0.6310702,499.24884,188.85764,0.6734175,495.8974,218.72263,0.652114,510.8575,222.40932,0.68494225,0.97969487,0.42251016,0.88383229,-0.01129969
113,3766.6666666666665,473.43115,195.83563,0.022183793,470.89526,195.62164,0.011114668,473.16333,195.98392,0.013921115,468.38998,203.98105,0.036058184,472.72635,205.19254,0.064162426,468.9835,213.04271,0.23260832,468.92795,213.45633,0.31373334,451.72418,218.15532,0.31403416,461.2418,217.39053,0.37899435,418.6456,229.50864,0.3267532,420.675,233.27888,0.41776618,474.51358,218.6962,0.524685,475.931,219.56248,0.5673021,490.66583,189.2998,0.61582303,498.8668,189.175,0.6626751,485.4566,219.20332,0.65234584,507.35538,221.85565,0.6881494,0.97969487,0.42251016,0.88383229,-0.01129969
114,3800.0,469.7297,196.67511,0.019530782,466.89072,196.36938,0.009920229,469.104,196.97668,0.012253891,464.4984,204.36844,0.033155642,468.44266,206.1451,0.059513196,467.2215,212.78827,0.2160091,466.65692,213.97034,0.29673415,453.04678,216.65018,0.29581776,462.20944,216.97299,0.3664518,420.071,230.2297,0.31210887,422.49915,233.94846,0.40845475,476.0293,218.08224,0.53893393,477.44388,219.14966,0.585484,488.33298,189.3656,0.65061957,498.6807,189.55295,0.6988354,482.06,218.42554,0.6986268,507.97018,221.01738,0.7341636,0.97969487,0.42251016,0.88383229,-0.01129969
115,3833.3333333333335,473.74796,197.73367,0.023755567,471.69156,197.81416,0.0128387045,473.59338,198.01505,0.014054282,470.56287,205.90347,0.04178773,473.65045,206.61647,0.05947611,471.49838,212.90958,0.2524966,470.65964,213.31473,0.32163268,454.48193,216.79419,0.3344397,463.65784,216.6698,0.37747058,421.06793,230.66638,0.34241697,424.41937,234.39064,0.41348377,477.0572,217.57687,0.5668334,478.34,218.27179,0.6000978,488.36652,189.23264,0.6642995,499.99564,189.2007,0.7007981,480.5048,218.2297,0.70156366,510.75653,221.21353,0.7306793,0.97969487,0.42251016,0.88383229,-0.01129969
116,3866.6666666666665,471.19556,201.57399,0.027726999,469.13306,201.73785,0.015558935,471.1568,202.15646,0.017558819,467.79477,209.21417,0.047683075,471.48352,210.29756,0.06977215,468.12036,214.50298,0.2642161,468.99857,215.33156,0.33282775,452.57874,216.67044,0.31898013,463.56985,216.90126,0.36021495,421.35437,231.8277,0.31345478,426.7951,235.81934,0.37975267,474.37595,217.72551,0.57488143,476.89886,218.94548,0.60575736,487.78162,189.59146,0.68571573,501.05298,190.1543,0.7198372,484.57684,218.00491,0.7363647,516.2237,221.36974,0.76240563,0.97969487,0.42251016,0.88383229,-0.01129969
117,3900.0,437.15195,215.20532,0.029802475,434.00006,214.70042,0.018238764,436.52908,216.8316,0.021243474,434.6404,220.2602,0.052811466,439.4176,224.92838,0.07898027,445.66144,221.79752,0.20575169,448.3249,225.96014,0.3322355,447.5155,216.50835,0.22988118,459.19458,220.1644,0.3720866,423.99042,230.90298,0.24158895,427.55414,235.50766,0.383193,472.287,216.77466,0.51844764,475.3514,219.73479,0.6025059,487.03168,189.76791,0.66722524,495.5102,191.80525,0.7451124,499.04712,216.92294,0.74704546,518.9424,220.23563,0.7976113,0.97969487,0.42251016,0.88383229,-0.01129969
118,3933.333333333333,410.44498,230.5495,0.22545764,406.66516,227.7045,0.18621126,407.1526,231.63116,0.19951448,407.58032,227.40361,0.20872034,407.83188,236.59203,0.25233328,424.84402,227.3586,0.44679365,426.74805,235.74567,0.5872313,440.756,218.86887,0.27117878,448.8427,225.68423,0.42785016,426.70352,228.49062,0.23844263,432.7583,230.54933,0.38563496,474.04428,216.59186,0.57509685,476.43723,222.44577,0.6610725,491.56134,190.28127,0.74147916,495.52466,193.26118,0.8080662,521.21716,216.05396,0.8354162,528.6219,217.0298,0.8718349,0.97969487,0.42251016,0.88383229,-0.01129969
119,3966.666666666667,411.82812,230.81412,0.34082815,408.4685,228.02774,0.3145438,408.00543,232.0662,0.30661646,410.24307,228.17702,0.30599004,408.74405,237.854,0.30993083,426.32187,228.7239,0.53409207,429.05573,236.27724,0.64088535,437.58582,221.75375,0.28909323,446.41205,225.60083,0.4149903,423.8298,227.06723,0.24212739,433.9377,225.67653,0.36850435,475.58582,216.2632,0.5962446,478.51242,221.97388,0.66883224,492.32874,191.59024,0.76872814,499.8913,195.25897,0.8231183,518.0017,215.94514,0.8576225,529.368,217.89713,0.88657933,0.97969487,0.42251016,0.88383229,-0.01129969
120,4000.0,413.39273,228.48372,0.21013759,409.32883,225.89624,0.17309815,409.79474,230.07315,0.210254,409.36102,227.10735,0.19113858,410.14984,237.13998,0.27541795,425.40326,228.1866,0.3667833,428.87457,236.72937,0.5533642,436.5214,219.14423,0.18896887,445.7258,225.22034,0.37945625,422.8564,227.67142,0.16619922,430.60016,229.09317,0.33172947,474.33133,215.89091,0.49802,477.87018,222.02438,0.6121246,492.07733,190.10872,0.71284324,499.3193,193.96835,0.8010688,517.8277,215.67783,0.836123,528.2749,217.73166,0.8791827,0.97969487,0.42251016,0.88383229,-0.01129969
121,4033.333333333333,415.04626,227.298,0.20250757,410.59204,224.74878,0.16217147,411.28537,229.2087,0.22454624,409.22705,226.55429,0.1724037,411.12064,237.35106,0.3033576,423.82318,228.06781,0.30544567,430.03357,237.71918,0.5242614,432.83096,217.20204,0.14095849,446.59973,225.1362,0.34646064,421.08844,227.8088,0.12603244,433.03967,230.74532,0.29615662,473.21484,216.04326,0.42157003,478.40515,222.83351,0.55502325,491.3483,188.20901,0.66781807,499.63226,192.90059,0.7775107,517.45874,215.06726,0.82347417,527.0898,217.56845,0.8739411,0.97969487,0.42251016,0.88383229,-0.01129969
122,4066.6666666666665,423.32452,216.2391,0.02840659,418.79202,215.43817,0.020950984,422.0196,218.60426,0.029169297,415.09686,220.47089,0.053739227,421.9456,228.2487,0.087888665,428.48865,223.34578,0.09918883,437.03113,229.26974,0.18289994,435.0576,212.37125,0.089160405,455.2603,216.52744,0.18861257,420.61737,227.33939,0.10447162,435.63788,231.62888,0.2132473,467.2291,219.6218,0.2724545,473.29248,223.84879,0.35894164,484.27927,187.60156,0.528757,499.85992,189.5584,0.6358483,503.22116,219.90848,0.71878976,523.4448,220.374,0.7782008,0.97969487,0.42251016,0.88383229,-0.01129969
123,4100.0,425.7269,216.40376,0.026327884,421.3905,215.67169,0.019782783,424.79712,218.54407,0.027052265,418.00314,220.50949,0.05327497,425.50018,227.5585,0.083864644,430.75293,223.08705,0.09170443,440.06174,228.26907,0.17328875,436.51685,211.62003,0.08274005,457.35312,215.25244,0.1809912,422.88358,226.44122,0.09789738,437.08798,231.1662,0.20358786,467.67377,220.26984,0.25577557,474.38452,224.00978,0.3420799,484.0588,187.5292,0.51271397,499.9468,188.75394,0.62376374,501.5688,220.2235,0.7120721,522.9813,220.33324,0.7740085,0.97969487,0.42251016,0.88383229,-0.01129969
124,4133.333333333334,478.70694,198.95016,0.013911501,476.33118,199.0175,0.008916857,478.6975,199.22388,0.013141143,472.34424,206.85281,0.030392595,478.35464,207.3886,0.066838816,468.6134,214.14758,0.09501687,476.2195,212.12158,0.1432503,451.84213,215.37079,0.09963694,476.47006,209.64331,0.15019709,428.4018,231.78384,0.10381946,450.17752,232.72668,0.1606978,471.22446,218.58142,0.30140626,477.79626,218.76912,0.344729,486.1045,189.06992,0.539782,501.02237,188.19778,0.60012674,484.43338,218.19897,0.7221435,514.01917,220.35886,0.75685495,0.97969487,0.42251016,0.88383229,-0.01129969
125,4166.666666666667,487.1382,193.20822,0.008994631,485.07047,192.68617,0.0063034925,486.8387,192.75249,0.009985136,479.56653,199.62866,0.024417149,484.3841,199.86418,0.053873144,475.73032,208.13562,0.058781255,482.92664,204.98267,0.070159584,458.35098,211.12823,0.058764316,494.91238,204.03697,0.07216492,436.69012,230.0191,0.060652547,490.6008,224.62758,0.081590615,474.717,218.94586,0.1910453,480.70453,217.97055,0.2045349,482.5512,188.58676,0.44259387,502.7595,186.00255,0.47787908,474.8648,219.61775,0.69315934,514.7107,218.97357,0.70955026,0.97969487,0.42251016,0.88383229,-0.01129969
126,4200.0,483.9496,198.45912,0.012956335,482.0197,198.59319,0.00899443,484.12735,198.29303,0.012609576,478.14325,205.91692,0.03215764,483.6353,205.29367,0.0637501,472.5648,212.75092,0.08608428,481.61914,209.28015,0.120622694,453.13733,215.76303,0.08496519,485.91205,207.87221,0.12076334,429.6031,232.7243,0.08845555,469.6004,229.64154,0.13037467,472.40817,217.68181,0.2673886,479.8313,217.03156,0.2978525,483.28717,188.48299,0.5239049,502.18314,186.85959,0.5743658,475.92557,217.98602,0.72681373,513.25415,219.54794,0.7553721,0.97969487,0.42251016,0.88383229,-0.01129969
127,4233.333333333333,485.57996,194.03647,0.007821697,483.16794,193.52853,0.005421767,485.41394,193.73071,0.00869432,476.7123,200.53375,0.023912335,483.14233,201.15929,0.05313196,472.25388,209.08633,0.058456756,482.2695,206.0432,0.069763355,453.22345,212.27872,0.058773097,493.5071,204.95007,0.07158514,431.9391,230.33185,0.059281558,488.50613,225.91098,0.07944055,472.87476,218.90355,0.19583438,480.77646,218.10028,0.20958953,480.58078,188.87631,0.4545044,503.31168,186.43025,0.4888514,474.4396,219.57489,0.7023342,515.918,218.9245,0.7178495,0.97969487,0.42251016,0.88383229,-0.01129969
128,4266.666666666667,487.00043,193.55447,0.006977741,484.80508,193.01408,0.004880132,486.97812,193.16675,0.008188227,478.40546,200.06546,0.022472426,484.75327,200.44276,0.051666982,473.31094,208.86726,0.049452137,483.9006,205.16847,0.061450236,454.09326,212.77304,0.049329765,499.2197,203.85153,0.06520246,435.04883,231.49908,0.051466748,501.9005,224.0974,0.07241277,473.48676,218.10468,0.17312668,481.38507,217.12984,0.18894096,480.54327,188.27686,0.42909122,502.58438,185.80112,0.46876785,475.9209,219.35329,0.69222605,516.38043,218.87936,0.710308,0.97969487,0.42251016,0.88383229,-0.01129969
129,4300.0,485.8679,195.47803,0.0059025064,483.27908,194.47829,0.0040662293,485.96307,195.24963,0.007576779,476.11325,201.07361,0.019914148,484.3236,202.7651,0.0519982,470.86642,210.19827,0.03694612,484.37326,207.2243,0.052128553,454.3233,212.18002,0.037364293,501.19672,203.09656,0.059017275,440.9572,229.32777,0.042525455,504.27158,222.9673,0.06699695,471.75055,218.0359,0.14058463,481.15192,217.61862,0.16311154,480.80887,187.88376,0.39357534,499.9889,186.13638,0.447566,484.65894,219.66322,0.67847556,515.741,219.88914,0.70525336,0.97969487,0.42251016,0.88383229,-0.01129969
