frame_id,timestamp_ms,nose_x,nose_y,nose_conf,left_eye_x,left_eye_y,left_eye_conf,right_eye_x,right_eye_y,right_eye_conf,left_ear_x,left_ear_y,left_ear_conf,right_ear_x,right_ear_y,right_ear_conf,left_shoulder_x,left_shoulder_y,left_shoulder_conf,right_shoulder_x,right_shoulder_y,right_shoulder_conf,left_elbow_x,left_elbow_y,left_elbow_conf,right_elbow_x,right_elbow_y,right_elbow_conf,left_wrist_x,left_wrist_y,left_wrist_conf,right_wrist_x,right_wrist_y,right_wrist_conf,left_hip_x,left_hip_y,left_hip_conf,right_hip_x,right_hip_y,right_hip_conf,left_knee_x,left_knee_y,left_knee_conf,right_knee_x,right_knee_y,right_knee_conf,left_ankle_x,left_ankle_y,left_ankle_conf,right_ankle_x,right_ankle_y,right_ankle_conf,acc_x,acc_y,acc_z,acc_mag
0,0.0,549.6723,110.71169,0.8780102,552.44446,106.61019,0.89016795,548.8902,107.337364,0.388876,563.5643,104.72564,0.9162258,554.91895,106.11695,0.13940454,578.8585,122.08597,0.99716955,561.217,121.4214,0.9555095,579.97406,154.48117,0.995387,558.2924,150.3382,0.8218099,553.8825,166.13718,0.9880981,546.0716,163.61763,0.81372255,575.717,172.27975,0.99699545,564.2532,167.88622,0.9880918,539.93115,181.69165,0.99250895,526.18243,173.33217,0.9700982,545.42596,226.88806,0.9690934,533.60175,212.58095,0.92966706,1.09277797,0.6195178,0.74799036,-0.50087105
1,33.333333333333336,549.85284,110.91877,0.88592035,552.714,106.839264,0.8993412,548.95044,107.48206,0.40485147,563.96814,104.86403,0.9211228,554.7246,106.14513,0.14150064,579.17346,122.03323,0.9972792,561.326,121.34047,0.95533854,579.5123,154.21867,0.9954733,558.8014,150.37195,0.81602764,552.71497,165.8617,0.98828274,546.7645,163.61386,0.80940026,576.15875,172.11069,0.996888,564.5259,167.54062,0.987399,539.96796,181.42401,0.992273,526.3234,172.26596,0.96844506,544.5872,227.51828,0.9681599,533.6907,211.92691,0.926685,1.09211004,0.63671298,0.73325164,-0.49964282
2,66.66666666666667,549.841,110.79956,0.8937435,552.74603,106.66383,0.90879107,548.82666,107.368706,0.42058516,563.95386,104.50401,0.92665714,554.4388,105.91484,0.14362921,578.85455,121.69716,0.99741095,561.3542,121.20207,0.95455277,578.678,154.08226,0.9956104,558.6139,150.45737,0.8053259,551.326,166.2606,0.9885196,546.012,164.5458,0.801029,576.2209,171.93298,0.9967129,564.925,167.50839,0.98623115,538.9607,180.48071,0.9918601,526.54614,171.71436,0.9655109,544.1111,226.72884,0.9666707,534.7929,211.51337,0.9215124,1.07233756,0.63794121,0.70991532,-0.48883442
3,100.0,549.09937,110.88632,0.8829704,551.8788,106.73264,0.90070355,548.1628,107.52718,0.38891324,562.8048,104.39935,0.92440426,554.02606,105.88692,0.13385466,577.9487,121.432785,0.99728036,561.2869,120.932556,0.9510365,577.9153,154.15073,0.99562055,558.2933,149.9226,0.797445,549.2072,166.49794,0.9886318,544.73737,164.51433,0.79702306,576.62555,172.03082,0.9965193,566.0442,167.77043,0.9852584,537.2532,179.58931,0.9913515,526.6669,171.91534,0.96282035,543.23566,225.52759,0.96445006,536.04803,211.98918,0.9155674,1.06718851,0.63229136,0.70205467,-0.49620379
4,133.33333333333334,549.80634,113.64451,0.89399534,552.3475,109.36963,0.90729475,548.35425,110.36781,0.43465334,562.4492,105.48671,0.9221616,553.44324,107.496155,0.1553432,577.4867,121.130875,0.9971199,561.2665,120.85492,0.9537742,577.5165,153.94424,0.9951338,558.7887,149.39505,0.8057019,548.78925,166.32355,0.98762953,545.1081,164.66202,0.8033488,577.1072,171.91211,0.9961119,566.9781,167.94568,0.984496,536.7118,179.65009,0.9903398,527.682,172.9662,0.960825,542.43506,224.13568,0.961422,536.6138,212.01477,0.91154516,1.10185975,0.67405109,0.71040661,-0.50504702
5,166.66666666666666,547.39185,112.15888,0.8590553,549.7422,107.91498,0.87423515,546.3587,109.04374,0.35190862,559.817,105.16371,0.90882033,552.18274,107.34166,0.1299061,576.3489,121.40144,0.99661094,559.6299,121.70973,0.94840467,577.2097,153.51189,0.9948695,556.7559,150.00168,0.8059274,547.56793,165.87286,0.98730266,543.74207,164.55946,0.8049579,577.6892,172.06,0.9959571,567.296,168.302,0.984322,535.6686,179.30878,0.98989457,527.02136,172.59933,0.95991105,542.981,224.71585,0.95906395,538.1354,212.16553,0.9078085,1.0940006,0.67699883,0.69296579,-0.50824041
6,200.0,545.91956,113.07982,0.85957503,548.12463,108.779076,0.87645054,544.79565,110.04935,0.3489742,557.9094,105.61333,0.9120858,550.5553,108.13089,0.12809867,575.28564,121.402954,0.99685574,558.2165,121.96573,0.9483055,577.28754,153.14468,0.99526393,555.8744,149.70592,0.80342853,547.0977,165.65201,0.9880746,543.43555,165.06863,0.8034924,577.5952,172.14044,0.9962857,567.06085,168.50664,0.98507893,535.17365,178.8427,0.9908454,526.73944,172.1181,0.9622874,544.21094,223.96309,0.96326494,539.4364,211.07533,0.9150652,1.09794378,0.6681556,0.68142045,-0.54287642
7,233.33333333333334,543.1007,112.486244,0.87367916,545.46356,107.99687,0.8782384,542.6887,109.31217,0.3995025,555.8248,105.60275,0.9057674,549.7272,107.921326,0.16907044,574.2252,121.79744,0.9956072,556.6746,122.83365,0.9610825,576.8888,153.71117,0.99167985,552.86,150.81775,0.83482116,544.9754,165.97827,0.98234266,540.8892,166.09213,0.8297828,578.2053,172.41307,0.99469674,567.0283,168.98164,0.9840612,535.5024,180.05261,0.9894946,525.69476,173.90279,0.9677178,545.4265,220.82239,0.96324944,541.1088,209.31413,0.9311584,1.11709869,0.62860668,0.73497116,-0.55908902
8,266.6666666666667,542.2096,114.541885,0.9072407,544.7624,109.91181,0.9116134,541.2411,111.37205,0.49778628,554.7287,106.10898,0.9191916,546.9303,108.85431,0.20325021,572.4402,121.06023,0.9962929,554.11945,123.005844,0.96504205,576.3541,152.69888,0.99210745,551.73804,150.78865,0.8328158,545.95325,166.99309,0.9826422,540.3601,166.94736,0.8251313,576.80884,172.05908,0.9948695,565.2349,169.30176,0.98407525,535.26953,179.39333,0.98993427,525.2265,174.47008,0.9680893,546.81903,219.10379,0.96610594,542.34827,209.03017,0.934845,1.14242014,0.66078623,0.72907566,-0.58046017
9,300.0,540.2161,114.47424,0.92115694,542.2117,110.53988,0.94567114,539.6563,111.42183,0.36823598,552.6993,107.572365,0.9392049,543.4019,109.5484,0.040774506,571.05646,121.21225,0.994507,551.5763,121.328186,0.9684733,575.3165,152.1608,0.9943422,553.5686,150.1541,0.7885699,543.71497,167.2985,0.9904454,539.7311,167.32341,0.8404064,579.0244,171.37625,0.9917243,565.1787,169.05559,0.97875357,531.4471,177.58945,0.9825858,522.46716,174.91483,0.9284785,550.24884,219.31088,0.9451921,547.2931,214.97412,0.849908,1.09780225,0.63966072,0.68461384,-0.57210823
10,333.3333333333333,536.9395,115.91341,0.9065369,538.4838,112.042786,0.9366959,536.74677,112.89317,0.3033129,548.682,108.40414,0.9379114,542.0154,110.19283,0.034267657,567.737,120.925476,0.99449944,551.1187,120.941345,0.9663559,573.2345,151.73804,0.9949285,553.99316,149.83159,0.78648484,543.4129,168.24257,0.9911464,539.8485,167.15689,0.84001994,579.1127,170.89667,0.99251115,567.0404,168.74196,0.98022664,532.49365,179.48264,0.9837931,524.37964,177.03654,0.93158126,552.15405,221.06024,0.94534045,547.7594,216.79933,0.8484867,1.18316701,0.66201446,0.77820475,-0.59667277
11,366.66666666666663,534.2973,117.94574,0.8664788,536.3106,113.58423,0.87998873,533.1176,115.05787,0.38765267,545.1338,108.60873,0.9088087,538.2701,111.43032,0.15961908,564.24585,120.64276,0.9960079,546.67786,123.07272,0.9529911,571.066,151.94397,0.9928537,547.8917,150.61905,0.8024797,541.53937,168.47621,0.983377,538.021,168.66586,0.8002958,575.69257,169.00084,0.99564844,564.555,167.09381,0.9849686,535.70514,181.38913,0.99171656,525.9241,177.68294,0.9707192,551.36096,219.3192,0.9720794,546.43005,210.31915,0.9423312,1.17714927,0.66741866,0.69419401,-0.67699883
12,400.0,532.2096,117.717995,0.9057107,533.91296,113.5988,0.9358457,530.6543,114.89414,0.3420043,543.14496,109.74099,0.9329137,533.4272,112.719696,0.041575328,561.99146,121.39081,0.99388313,541.9413,123.980515,0.9618461,568.0511,151.44615,0.9936045,546.7498,153.73103,0.75083697,541.1565,169.55212,0.9883945,536.97156,169.77802,0.804534,577.5184,169.1113,0.99110305,563.42126,168.80109,0.97633356,534.12085,179.93219,0.9813825,526.20276,179.20982,0.92325324,552.58905,220.37262,0.938068,550.5519,218.08426,0.8321446,1.152063,0.61263973,0.77402878,-0.59397067
13,433.33333333333337,526.36017,120.62103,0.8750556,528.02625,116.48912,0.91726965,525.26917,117.5684,0.25441447,537.85535,112.275635,0.9260066,529.5802,114.68355,0.0299677,556.96045,122.946655,0.9925217,539.9292,124.79651,0.94904214,564.57465,151.79839,0.99280304,545.36365,153.11009,0.7026988,541.0992,170.5368,0.98701906,534.80896,169.54684,0.7738686,575.4553,169.00693,0.99182326,563.3444,168.5211,0.9773607,535.52454,182.34554,0.985391,529.2149,181.44655,0.9376193,555.33624,220.17822,0.9539463,552.209,217.26254,0.86937714,1.04366006,0.57726678,0.65366251,-0.57333646
14,466.6666666666667,521.97473,122.33203,0.8619426,523.8408,118.08545,0.88964456,520.77515,120.00142,0.37685817,532.8171,113.55064,0.92040086,526.0677,117.275955,0.14446878,553.01276,124.388824,0.99606764,536.831,129.22281,0.93953466,566.29395,152.79362,0.99288505,541.95544,154.59387,0.74369025,541.2825,170.663,0.98222363,535.14453,170.57996,0.7460768,572.0782,168.34157,0.9953047,561.8704,168.63239,0.98167545,536.51624,183.9339,0.990905,527.3523,185.04736,0.96413267,558.32837,217.94006,0.96945715,552.1759,214.9255,0.93199944,1.1306464,0.60035745,0.70524806,-0.64850396
15,500.0,516.639,124.3871,0.64404166,516.885,120.52429,0.7436657,516.70703,121.378006,0.07636608,524.24603,116.66847,0.8769721,526.1909,117.91081,0.019485557,543.21356,125.78003,0.9867932,539.2744,126.64017,0.9136419,555.75085,153.46477,0.9901693,545.94037,154.51486,0.6422413,536.71405,171.7196,0.9805468,530.54205,170.32101,0.71213347,572.4919,165.48492,0.99158645,568.7891,165.22202,0.97737074,533.92145,184.01445,0.9876599,533.33014,183.52274,0.94847095,557.9985,218.43127,0.9622167,556.9632,215.75003,0.89345556,1.33398253,0.5870926,0.98086224,-0.68756159
16,533.3333333333334,513.101,128.55698,0.8410382,514.1347,124.71179,0.87343365,512.52484,126.56734,0.3611699,521.859,119.63703,0.9060749,518.7825,122.51541,0.14612812,540.5472,128.39993,0.99563426,532.5144,131.94818,0.93271506,551.3319,156.38597,0.99278027,536.85004,157.22838,0.7467298,534.77856,174.12616,0.97996074,529.5184,172.59532,0.73946065,572.40704,165.99997,0.9947267,567.022,167.20593,0.9804497,533.8777,184.81827,0.98892844,531.2131,187.76656,0.95732397,563.4371,219.52989,0.9605016,560.19556,218.78409,0.9122791,1.3677044,0.5600716,1.0611883,-0.65636461
17,566.6666666666666,508.212,130.69879,0.8507016,509.18332,126.99881,0.88019305,507.92694,128.71002,0.39587587,516.74817,122.59442,0.9082511,514.50446,125.24518,0.16445772,534.6445,130.84549,0.9950955,529.5191,135.64644,0.93398076,546.3766,154.59486,0.9911589,533.01105,158.92389,0.74558735,536.0042,175.1853,0.9759015,526.6045,174.19635,0.73363316,571.0983,165.44443,0.99311477,567.812,167.57878,0.97635853,534.7055,187.79477,0.9848401,535.0132,191.73773,0.94609725,562.0696,222.2979,0.9442052,562.46906,222.46933,0.8835625,1.38958481,0.53943739,1.10368496,-0.64948654
18,600.0,502.3059,133.94156,0.8664476,503.11386,130.17514,0.9109236,501.75928,131.70204,0.405181,510.0957,124.81027,0.9347803,508.04602,127.11954,0.16126385,525.88745,131.8455,0.99618405,526.9127,136.49966,0.91562164,538.6401,155.31128,0.9927872,534.37946,159.83604,0.6478875,530.5179,176.16524,0.97768766,525.7464,174.78343,0.6504734,566.955,162.32251,0.99237424,567.2592,164.78748,0.96673846,533.5193,189.92072,0.98248005,535.42645,194.83893,0.9223434,562.4278,221.32916,0.9318884,561.84595,222.57312,0.83914566,1.39866419,0.50995993,1.06339911,-0.75192069
19,633.3333333333333,496.9592,138.56335,0.8550705,497.7177,134.90872,0.8979832,496.74374,136.36107,0.39878854,504.96228,129.14706,0.9263027,503.1688,131.35858,0.16163403,521.558,134.78278,0.9954169,522.2588,139.52122,0.91941196,534.9519,157.33702,0.9913497,528.61163,162.53882,0.6797707,529.0719,178.75311,0.9747567,520.8996,178.67905,0.67498845,565.9451,161.50468,0.99178594,566.07495,164.05835,0.96837527,532.43884,191.418,0.98189247,534.6872,195.83383,0.9283256,561.6572,223.52113,0.9296887,562.6453,224.40381,0.8454644,1.32773962,0.44216179,0.9882316,-0.76862458
20,666.6666666666666,493.2285,143.58867,0.68277776,492.9586,139.90994,0.727959,493.30762,141.05463,0.18794015,499.46185,133.68747,0.84373593,501.44485,135.30417,0.11452196,517.35254,137.10599,0.9873863,517.5458,141.17139,0.8904918,531.9451,159.56123,0.9825533,524.29224,164.49698,0.6819648,524.8461,181.53914,0.95826364,517.5691,183.49092,0.6738103,561.35254,160.64883,0.9843448,561.8767,163.08147,0.95308226,532.6737,193.22604,0.96688396,534.4467,196.62401,0.9007876,558.0414,226.59465,0.87862617,557.04626,224.7699,0.7884225,1.22320786,0.46033955,0.94033074,-0.63253701
21,700.0,485.32855,148.05585,0.7963204,485.84976,144.64508,0.85142976,485.79333,145.44406,0.33570015,492.7568,137.76358,0.90376467,492.49597,138.54248,0.15073955,510.3222,141.91083,0.9926293,512.3339,143.8282,0.90055454,521.5838,167.81915,0.9860066,520.4674,168.86905,0.6575469,516.3473,190.56915,0.96126956,515.3677,188.5444,0.6456753,560.8757,160.94388,0.9876695,561.25073,162.3293,0.9596115,530.4832,194.49796,0.9760501,531.0927,195.6755,0.91937155,561.0163,224.51752,0.9163992,560.44525,222.43497,0.8348279,0.83597839,0.35544895,0.56473887,-0.50357315
22,733.3333333333333,481.43408,152.37213,0.7797782,481.7979,149.35446,0.82942426,481.0687,149.93697,0.2798701,488.6084,142.52512,0.8936976,486.3835,143.08987,0.13016748,506.31516,145.57687,0.9938704,503.63074,146.09477,0.9200099,518.21326,173.4335,0.9909841,508.23312,170.34175,0.7345859,510.5537,195.77731,0.9752181,499.6311,190.30766,0.72987765,557.94507,160.15483,0.99276143,556.07336,161.4134,0.97541434,528.54596,195.27905,0.9853278,527.30316,196.92712,0.9472693,560.6755,223.25865,0.94380873,558.343,221.39862,0.8840461,0.54559489,0.2264851,0.30410905,-0.39229577
23,766.6666666666667,475.9912,155.3449,0.80001754,476.28214,152.05557,0.8704817,475.40326,152.9155,0.27889532,483.7884,145.84973,0.9269701,481.51395,146.91739,0.12399191,502.03296,150.45648,0.9959246,500.7963,150.96773,0.91278887,517.1615,181.16017,0.9934161,508.75415,177.60161,0.66367406,505.45984,203.74808,0.9780806,497.59177,197.53366,0.6581947,552.50757,162.76294,0.99346054,551.64984,164.03195,0.9717865,526.6512,199.07433,0.9857437,526.8079,200.86826,0.9366245,561.50714,224.07764,0.9421034,560.1033,221.93515,0.86429393,0.25891088,0.15008936,0.09039752,-0.19062086
24,800.0,473.63928,158.98405,0.6615253,473.29874,155.80522,0.73535085,473.26727,156.62964,0.1659453,479.55664,149.0209,0.8717933,480.12326,149.9817,0.10597706,496.05356,151.8292,0.9924817,496.83987,151.98618,0.8990327,509.7022,183.83508,0.98994726,503.72174,179.82532,0.6778822,501.34982,207.72331,0.96757686,490.76236,205.0686,0.6439226,545.2524,164.41418,0.99148166,546.3487,166.13542,0.96885175,523.79,201.48824,0.9807545,525.48914,203.53879,0.9281086,558.7912,225.25587,0.9246871,558.6205,222.76631,0.84510875,0.15790359,0.00761501,-0.00221081,-0.15770437
25,833.3333333333334,467.92218,165.75772,0.68031096,467.92526,162.599,0.7487564,467.72018,163.34425,0.20976244,473.31873,154.53378,0.85567105,471.22116,155.2941,0.10730645,491.06088,157.15366,0.99123585,485.60623,154.91838,0.8845593,499.289,195.43347,0.9878384,486.04297,183.2627,0.66085696,490.02142,218.54192,0.9618493,473.0452,206.43536,0.63356507,545.4061,165.52823,0.9881683,541.2911,166.46521,0.96027213,518.31635,203.29596,0.974648,514.448,204.68991,0.90920526,563.06366,221.41286,0.907848,554.97656,220.05144,0.81182796,0.30429601,0.06313088,0.25154093,-0.15917824
26,866.6666666666667,463.10522,170.06512,0.81819403,463.26547,166.48274,0.8645434,462.49677,168.01833,0.38082737,469.00226,158.32196,0.8987228,465.42206,160.89908,0.16514498,487.6653,160.98145,0.99370015,478.65698,163.05788,0.91990215,498.99194,195.4813,0.9884121,475.66852,190.97614,0.6849317,488.12003,219.93135,0.9614958,455.52377,214.51283,0.63791406,539.0186,169.72833,0.9878686,532.87665,172.30937,0.9603029,513.07166,204.4412,0.97341454,506.05432,207.20221,0.90630907,561.31396,221.3131,0.90625775,549.27185,220.61932,0.81000376,0.72442352,0.13313983,0.55024578,-0.45198761
27,900.0,457.0501,173.34763,0.7516431,457.30325,169.92624,0.8028226,457.4403,170.60056,0.29908624,463.45898,161.87985,0.8770453,462.29056,162.34326,0.1542062,483.1319,166.38377,0.99124664,474.69595,165.9485,0.92028,489.21756,207.26805,0.9837331,470.38498,200.07812,0.70852864,471.91833,231.35162,0.94590443,445.9663,226.4563,0.6417335,536.38525,173.95456,0.9813286,530.5609,175.32498,0.95006967,511.60202,210.4452,0.9541247,503.91913,211.58401,0.871089,556.3716,221.23357,0.8401877,545.3355,221.06943,0.72693026,1.18076407,0.32621714,0.95506947,-0.61288537
28,933.3333333333334,452.67935,175.84879,0.61589754,452.35464,173.3274,0.66313314,452.36615,173.5748,0.18063813,456.91214,166.05502,0.8189606,455.69824,165.99274,0.12515001,474.61398,168.06483,0.9910665,466.86166,165.47054,0.9152761,480.1612,211.40019,0.9870216,466.97586,199.90659,0.73650575,460.96338,233.89285,0.9538093,447.64255,227.22523,0.6643397,524.6961,175.08139,0.99113387,519.5136,175.95721,0.97422236,508.24976,211.27191,0.9803607,503.23166,212.97061,0.9404222,544.5056,219.63693,0.9323487,539.6362,220.4175,0.8728666,0.67810044,-0.00368468,0.25669948,-0.6276241
29,966.6666666666666,449.12302,183.62984,0.6604967,448.0902,180.98508,0.6888713,448.31528,181.2422,0.22154458,451.29895,172.65614,0.81269914,450.1569,172.97385,0.15408957,469.21582,172.61307,0.99177855,462.85303,170.9522,0.9250781,475.32736,212.16231,0.98765904,465.72458,203.43613,0.76355886,458.34427,236.67581,0.9583052,450.5553,228.83762,0.70712435,522.0741,177.09802,0.99135077,517.635,178.00662,0.97557765,505.20096,213.93152,0.9812826,501.4068,214.06831,0.9446054,536.67914,224.55038,0.9338956,532.77246,221.66724,0.87744063,0.6456822,-0.18914699,0.17342568,-0.5924968
30,1000.0,445.09454,192.80112,0.5952618,443.81332,191.12148,0.6324276,444.71915,190.58047,0.15782633,447.6748,183.5316,0.78928816,449.1629,182.07521,0.11747576,463.33014,181.61673,0.98886555,462.42108,175.79164,0.89732033,467.754,217.42351,0.98687077,467.0956,200.74677,0.7413647,452.7349,236.6012,0.9595679,454.88153,223.92722,0.7039213,513.4293,180.50656,0.98875844,512.393,180.11829,0.96682566,507.76715,217.40717,0.96706575,504.01764,216.09552,0.9042384,533.0912,219.89503,0.8860788,525.0681,215.79639,0.8004417,0.72241346,-0.58758389,-0.17686472,-0.38124172
31,1033.3333333333335,432.2219,197.04579,0.32632563,431.8949,194.6572,0.29060704,431.67313,194.97267,0.09831106,439.82947,188.38051,0.47246057,435.58908,188.68523,0.093370445,459.34238,186.812,0.933691,444.36514,182.53537,0.83361757,468.89392,224.30751,0.93990403,455.5351,210.845,0.787017,453.36517,236.67184,0.88729167,448.9187,230.04791,0.74624413,497.93323,185.08167,0.9659593,485.32913,185.03024,0.9483217,508.25177,224.50049,0.9015656,481.7082,224.26091,0.8569857,535.20386,222.91664,0.7383551,500.28842,224.30017,0.6932766,1.23032168,-0.4957125,-1.10221109,-0.23041542
32,1066.6666666666667,429.94815,201.889,0.37604704,429.63727,200.57458,0.42331594,429.862,199.55753,0.095656,435.13553,194.45174,0.64369327,433.02664,191.70258,0.079958454,451.67874,192.33014,0.9667358,443.2965,183.41566,0.7830475,460.54892,225.60013,0.96537846,450.9214,203.56216,0.61663294,450.21127,235.77808,0.9135317,441.79868,224.61813,0.58403873,497.36572,187.71855,0.97442144,491.4681,186.21967,0.9358632,497.25687,224.2492,0.93803954,489.15457,221.68561,0.85047084,526.5025,220.4248,0.8354575,517.4392,218.02112,0.7390242,1.23539256,-0.07393928,1.22503381,-0.14149177
33,1100.0,426.00006,201.44865,0.6613249,424.2889,198.9689,0.6653929,423.53003,199.91907,0.31385124,427.97858,194.22473,0.72210974,424.67697,196.85435,0.2180199,446.5315,195.15967,0.9751296,440.2506,195.65303,0.88355273,460.93436,225.8339,0.95253336,455.1598,219.87756,0.68285596,448.11615,236.43593,0.87585455,450.5179,230.42856,0.6110596,499.7016,195.96124,0.9541741,495.45383,198.92001,0.9082336,512.5142,223.85342,0.8724978,510.71432,225.0112,0.7662568,534.862,222.30638,0.6976156,534.3635,220.02126,0.60053176,1.8668881,-1.3682451,0.9882316,0.79785639
34,1133.3333333333333,422.30725,205.80795,0.575496,420.13776,203.23055,0.48894247,420.00458,205.04597,0.36773264,422.01358,198.80576,0.50754124,419.55823,203.09933,0.32276687,438.83667,198.51988,0.93273985,431.31522,203.18077,0.8907623,462.33228,221.7764,0.8623106,452.35904,224.33488,0.7535293,458.12753,232.30661,0.74480623,454.63763,230.81363,0.6605269,485.337,195.8497,0.9228715,480.8185,201.12396,0.9065256,504.53058,221.54654,0.82773644,502.18823,226.35826,0.80015886,530.1437,220.19258,0.6786168,530.1554,223.40756,0.65900636,1.82157683,-0.90962506,1.20415394,1.02016551
35,1166.6666666666667,415.39084,216.36563,0.7590018,414.6849,213.74776,0.8208624,413.2633,214.19513,0.38073358,420.96185,204.82858,0.8506989,415.86115,206.41016,0.19755809,441.90262,200.65033,0.9853741,432.73322,201.79425,0.87108546,464.47894,224.93085,0.9700674,449.19495,221.67703,0.5923521,453.03268,235.382,0.90996736,435.6371,232.99652,0.53111166,494.44296,201.2232,0.9637419,489.31824,203.93764,0.9016423,508.35657,229.81332,0.8957713,503.23047,229.62372,0.7494841,534.8601,221.25241,0.7427955,533.687,218.15755,0.60514855,2.35138164,-0.55122837,1.93715994,1.21348847
36,1200.0,411.94223,219.66388,0.7460234,411.2264,216.84137,0.80022687,410.10455,217.66736,0.4153054,416.94824,207.18127,0.81809807,412.39474,209.72725,0.21867114,435.8264,201.4607,0.97786784,427.75186,205.79382,0.8581742,457.67563,216.18425,0.95442986,441.9376,219.65742,0.58521366,458.06247,232.16104,0.8765346,433.3929,232.39996,0.5145876,489.1272,202.36725,0.9560605,484.71375,207.05524,0.8961094,505.58533,230.96667,0.882324,498.79633,233.03146,0.7483055,534.896,217.8747,0.74641544,529.0467,216.6563,0.6270225,2.21530289,-0.77820475,1.28153226,1.63084007
37,1233.3333333333335,50.989243,126.860794,0.2108185,48.53751,123.86809,0.04343832,51.25349,124.48361,0.21390492,33.9944,123.23265,0.12256979,48.944042,125.19356,0.6857454,22.326134,132.33505,0.7816987,47.845425,135.83395,0.96069336,7.518799,148.52591,0.60261804,61.879616,146.1079,0.9509759,4.723789,165.34976,0.56939,76.56683,149.3216,0.8945869,19.863924,173.27792,0.9324878,34.4558,174.95703,0.97072494,17.628458,197.00009,0.85822386,29.29366,199.75949,0.9348327,11.712978,218.68639,0.7114181,19.909477,221.31337,0.8105243,1.93127916,-0.32449763,1.77675346,0.6838769
38,1266.6666666666665,36.909866,134.48018,0.077433065,34.51064,131.91093,0.020190531,38.1216,132.15018,0.051289678,25.619806,130.04434,0.11441959,41.799145,130.8037,0.35062113,20.626045,136.19493,0.73612076,44.31465,136.25017,0.91798264,8.127108,150.76958,0.68320376,56.25186,144.9696,0.93061775,10.389132,167.83638,0.64596117,63.47059,150.81004,0.8753268,23.20829,175.39026,0.95423865,37.11243,175.11859,0.97553605,19.561302,202.68163,0.9048107,30.450117,200.90096,0.94880104,10.93782,224.7753,0.78322524,21.483603,221.94812,0.8506663,1.37812447,-0.28372048,0.32818231,1.30806197
40,1333.3333333333333,35.704185,124.49664,0.05971992,33.541985,121.72589,0.016068136,37.126007,122.05739,0.03974387,25.220974,122.43689,0.099168025,42.133995,123.27559,0.29926157,20.761703,134.23209,0.64764076,43.73597,133.90642,0.87841135,7.0784416,149.0305,0.59265006,54.87532,144.83441,0.8963199,7.7025146,150.02536,0.5629341,64.78456,145.11696,0.8242909,21.914898,180.94403,0.9160276,35.437546,180.58107,0.9536651,16.220144,208.64842,0.82049125,28.658592,207.20306,0.8968913,10.278534,228.51941,0.6289695,20.926031,226.81104,0.72230315,0.6681383,-0.06386781,0.41243869,0.52175091
41,1366.6666666666667,36.137554,126.201385,0.0066225193,33.860886,123.38022,0.002666541,37.229275,123.72249,0.0059773065,26.175451,122.257385,0.15145533,40.623528,123.38641,0.3809223,20.180033,132.97299,0.88543916,45.051044,133.9373,0.95942944,5.5843964,147.43324,0.8310959,56.470497,147.0909,0.96638006,4.9479904,152.52513,0.66584015,68.0049,148.02318,0.87372726,22.693048,175.81673,0.9888082,37.92195,175.79443,0.9941316,15.344635,202.85956,0.9421061,29.181355,202.79681,0.96583873,11.704155,225.27011,0.8091842,20.639124,225.91708,0.8658654,6.9336373,-0.81677109,4.59602617,5.12686597
42,1400.0,41.265667,124.68483,0.101791516,39.23789,122.09703,0.025229381,42.146362,122.47815,0.07675743,28.868258,123.25525,0.10323756,43.353355,124.35347,0.39461547,21.172276,134.4885,0.6957539,43.12818,135.5921,0.9010747,6.966213,150.39685,0.6210978,55.892128,145.39554,0.90883255,5.3937798,156.89531,0.60094166,68.76451,143.70511,0.84789425,21.620796,179.26924,0.91712534,33.333153,180.12505,0.9538386,19.87112,201.69012,0.8248819,27.063446,203.68544,0.89776844,16.476114,221.50557,0.64674616,18.745396,224.1287,0.7322323,0.62519197,0.41071917,0.41784289,-0.21813315
43,1433.3333333333333,47.231766,129.47629,0.13979189,44.92569,127.04559,0.02891293,47.864445,127.27289,0.118417494,33.030838,127.36102,0.097295314,47.44793,128.30385,0.51358885,23.789436,136.17429,0.7303934,46.75352,137.41284,0.9400213,8.581942,147.5915,0.6390827,62.181107,143.15636,0.9480807,6.7097034,150.36688,0.6381373,80.16876,139.12646,0.9040562,21.615494,178.24887,0.92914724,33.85513,178.82266,0.96695286,16.827766,198.46716,0.8395091,26.406082,199.74684,0.92044944,8.183712,219.90613,0.65569174,13.978512,221.58905,0.76036876,1.39810813,0.28740516,1.04841474,0.87916503
44,1466.6666666666665,24.020346,133.01363,0.05665385,21.814667,130.52695,0.023763321,26.4372,130.76285,0.029249778,19.052034,128.43964,0.13866718,35.946304,128.547,0.17757511,20.154654,133.87169,0.61636746,43.04232,132.76051,0.80364716,9.055916,149.12897,0.595168,56.524925,144.15186,0.8318116,5.428625,164.11774,0.5666455,63.94239,154.48048,0.76551825,29.382992,166.53055,0.9168801,42.22377,165.96362,0.94587713,25.38852,190.53091,0.8794951,32.17202,190.39552,0.92326766,18.974121,213.88007,0.7856065,21.842842,215.01756,0.8403792,1.08582081,0.3043547,0.62025473,0.83765095
45,1500.0,35.90455,118.89943,0.35092157,36.227673,116.467026,0.19247209,35.929344,116.63679,0.2561859,32.67738,118.020355,0.53058225,37.51922,118.311325,0.64360917,27.565763,133.28287,0.97744375,39.38523,133.39737,0.9869976,22.14504,149.06412,0.9001191,51.986412,146.15657,0.9518449,25.132456,158.42232,0.8107695,62.553066,150.14552,0.8696409,26.474684,174.04695,0.9867877,32.617496,174.0185,0.99034274,23.904844,200.11783,0.93797493,26.184742,200.0867,0.95087284,21.541153,221.65839,0.8177317,16.276936,222.0448,0.84493387,1.23644136,0.29108985,0.84207257,0.85730258
46,1533.3333333333335,415.4266,215.09146,0.029947763,412.57938,214.01433,0.012320935,420.23187,213.04724,0.018773008,410.15228,214.86037,0.15176353,435.58627,211.34341,0.31950146,419.45142,218.37494,0.669088,453.675,215.14227,0.78530556,452.8084,222.38007,0.4411574,497.92743,221.26031,0.75983053,490.6303,220.04355,0.35165736,523.41235,218.8606,0.6219728,463.87686,214.24745,0.78567034,483.6625,214.96883,0.85084814,495.12805,216.66478,0.55844194,505.42856,215.63116,0.69958925,528.4031,213.94852,0.5317368,529.54987,209.7478,0.63754636,1.15954775,0.17833859,0.56400193,0.99732048
47,1566.6666666666667,43.98448,134.634,0.008929714,41.671547,131.6379,0.0033594826,44.751717,132.57721,0.008065043,31.42717,128.34552,0.14302371,45.116737,131.06027,0.35174873,23.698895,135.75232,0.8804096,46.405785,138.29207,0.9497901,7.3058624,147.2889,0.84786254,58.071224,144.01985,0.9590811,4.341587,163.9172,0.727754,67.300835,147.11009,0.87103724,22.243092,176.6576,0.98764104,35.9827,177.57547,0.99266994,15.677916,202.15865,0.937215,29.464355,203.04645,0.9580026,11.596321,222.08882,0.79468226,22.38166,224.55154,0.84244657,1.17798763,0.1643368,0.61657005,0.99019677
48,1600.0,444.86517,214.99063,0.028064603,442.61368,214.16734,0.00646985,448.98703,213.42763,0.028052846,435.22253,213.6241,0.039952036,459.56146,211.01877,0.36040968,437.01605,213.38849,0.5394536,467.8345,210.92097,0.72727156,470.12823,218.11736,0.35973278,500.73312,216.04378,0.8124597,512.7174,217.37325,0.32641202,527.14465,216.40384,0.6939314,457.41782,215.9804,0.7334385,475.98163,216.77948,0.82333624,496.8925,220.26418,0.424153,506.5198,219.57062,0.6265629,524.2364,222.28189,0.3038952,528.78644,219.84773,0.43835163,1.12166052,0.18202327,0.73767326,0.82512303
49,1633.3333333333333,421.9325,216.36859,0.056455858,417.5568,214.73206,0.027338654,424.60553,214.72438,0.03629887,412.90854,212.61633,0.109737806,430.93744,213.038,0.12657908,429.1312,218.85703,0.4644286,443.0041,216.1903,0.5312338,477.7333,217.42725,0.45175058,491.1919,212.62503,0.6328484,525.31964,216.96774,0.5154137,528.80194,215.37714,0.6428932,464.2576,215.67328,0.6325262,475.13245,217.33249,0.68623203,494.47543,228.71307,0.46497095,501.09537,225.99985,0.54874825,523.7354,220.95201,0.32449117,522.6139,219.00342,0.3740271,0.94060821,0.12454224,0.60723553,0.70745887
50,1666.6666666666667,416.09225,219.03485,0.0666816,412.46817,217.4209,0.0324588,418.33438,217.27866,0.045568228,407.92578,214.32524,0.10965724,422.06076,214.89258,0.12270158,423.77496,218.05745,0.4531048,431.53217,216.387,0.5068016,469.3782,216.41647,0.44378394,477.2625,213.37411,0.6136892,523.63477,216.61493,0.523704,525.62115,215.22008,0.63726807,462.19153,216.08214,0.61726314,468.94522,218.7852,0.6654126,493.74246,223.87924,0.48757887,497.55365,221.64978,0.55995035,522.4396,221.36703,0.36667463,522.4659,219.41974,0.41015363,0.98285654,0.22353735,0.68166609,0.67184028
51,1700.0,413.79272,219.51376,0.080158174,410.03107,217.77373,0.03973141,415.49463,217.78143,0.05650475,405.08426,214.12318,0.116795264,418.1261,215.21066,0.1340879,421.66388,217.09502,0.46989673,428.0068,215.92859,0.5163693,467.79727,216.17195,0.44549936,473.01605,213.55449,0.6101398,523.4676,216.38998,0.5236508,524.1933,214.80817,0.6353692,462.85144,216.24384,0.61374164,468.64166,219.37758,0.65994024,494.13885,222.78996,0.4934358,497.59857,220.88908,0.56234056,521.95154,222.1015,0.37875322,522.15576,219.8321,0.42018434,0.995604,0.26456014,0.75855312,0.58807518
52,1733.3333333333335,415.00354,220.38593,0.09235288,411.50528,218.49646,0.04667768,416.34985,218.57428,0.06361877,406.7426,214.54814,0.1239696,417.9425,215.86539,0.13547541,422.86462,217.26913,0.5008057,426.48874,216.59494,0.51778483,467.0875,216.16873,0.48378503,468.44485,214.41711,0.60390204,522.1389,216.0523,0.56192404,520.75116,214.59389,0.63994795,463.32263,216.51982,0.61644363,467.30197,219.95502,0.64761406,493.22787,222.1719,0.48576388,495.41284,220.95503,0.535553,520.2605,221.34015,0.36367407,519.8123,219.32407,0.3913181,1.0152348,0.20535959,0.68412255,0.72146066
53,1766.6666666666665,414.43634,220.63351,0.09255024,410.70026,218.88779,0.049617212,415.94284,218.97806,0.061550837,406.77444,215.08408,0.13155259,418.88956,216.26726,0.1300283,424.2638,217.3598,0.50276583,429.186,216.25162,0.51390564,470.97852,215.09076,0.48539984,473.56372,212.93822,0.5997887,523.7065,215.79637,0.55781245,522.81445,214.50298,0.6340776,464.67654,215.34361,0.6274711,469.48337,218.31888,0.6573698,494.65656,222.11957,0.5025342,497.27484,220.24759,0.5542073,521.4477,222.20944,0.38123256,520.60297,219.69406,0.41216993,1.02173137,0.19995539,0.71777597,0.69910692
54,1800.0,415.57513,217.85959,0.07828418,411.70175,216.07196,0.03955825,417.24173,216.19101,0.051538676,406.98065,212.93756,0.1168814,420.04242,214.21115,0.121597365,423.97275,216.6873,0.4909025,429.2458,215.84088,0.50423026,470.41013,214.73523,0.48704377,473.03586,212.84045,0.60401505,523.65924,215.78098,0.5624573,522.57166,214.46329,0.6398263,463.38568,215.7883,0.6380181,468.55054,218.95093,0.6676997,494.11218,221.23941,0.5154439,496.8875,219.7139,0.5675147,521.24866,221.87503,0.39257285,520.32495,219.90569,0.42374617,0.96158098,0.23803043,0.71998678,0.59126857
55,1833.3333333333333,413.198,218.32394,0.08679797,409.66998,216.52493,0.04957824,414.9126,216.7659,0.056541443,406.3073,213.2244,0.13549371,418.42468,214.61699,0.11534586,424.27887,216.06247,0.48948747,428.0978,215.5539,0.4761144,470.90332,214.07521,0.4671692,471.43692,213.00621,0.55046284,524.4666,215.97778,0.5327976,522.44666,214.48763,0.5864855,463.85345,215.55557,0.6330947,467.9628,218.8225,0.6516224,492.99103,221.12749,0.5393634,494.56262,219.71298,0.5792763,520.8919,221.95229,0.4391761,519.59753,219.85765,0.46410528,0.99897815,0.25645384,0.7514294,0.60625294
56,1866.6666666666667,48.45534,131.85068,0.014446128,45.919487,128.83469,0.0045068567,49.007812,129.95325,0.014663159,32.74941,125.15964,0.14464964,46.323654,128.54253,0.4477045,23.519323,132.28294,0.9140721,46.06859,136.02454,0.9662008,8.030769,145.46661,0.87434596,59.322254,142.65105,0.96880025,4.6923046,166.12439,0.7744844,71.76826,146.91692,0.8963343,21.430426,173.31071,0.9914131,34.54274,174.91264,0.9949056,17.645502,199.60498,0.95889485,28.684235,200.97697,0.97271097,17.621315,220.27322,0.86069137,24.430077,223.69937,0.8940832,1.062126,0.21764186,0.7487273,0.72121501
57,1900.0,412.592,215.23764,0.098986,409.07404,213.33838,0.05942393,413.70013,213.8314,0.06749805,405.2643,210.6682,0.13122244,415.50616,213.08093,0.11176643,423.83566,213.66742,0.4729039,420.21323,215.21684,0.4552272,467.33368,213.66154,0.42653584,442.12054,213.90283,0.48120233,517.261,219.26205,0.4663051,469.45972,213.26295,0.5166378,461.52515,217.35805,0.645768,462.04626,221.79366,0.65865535,497.37,213.41019,0.65128267,496.17523,212.6993,0.6819119,521.00977,225.47917,0.61517465,520.26,223.90201,0.63761216,1.02197109,0.24048689,0.71065226,0.69394837
58,1933.3333333333333,414.58405,212.93102,0.07154823,410.91928,211.09634,0.037073612,416.00833,211.4688,0.051574185,405.78333,209.22922,0.100844026,417.7768,211.13602,0.112290636,422.59872,213.60603,0.42222884,423.99854,214.57066,0.43162537,468.15784,212.32361,0.40093127,463.5909,213.36781,0.51372707,523.1035,217.09384,0.47197458,514.34344,214.04048,0.5536151,460.0702,217.35898,0.61649126,462.8309,221.66824,0.6432483,494.8576,213.05154,0.5950383,494.5718,212.65381,0.64413595,520.6087,223.34827,0.54843235,519.6333,222.36362,0.58012164,0.98655508,0.22943284,0.67773577,0.67920964
59,1966.6666666666665,414.2065,210.90791,0.059377916,410.6138,208.69296,0.02904515,415.18433,209.1464,0.044883665,404.65012,207.38092,0.08055915,415.49823,209.6726,0.10388336,420.7619,213.52553,0.35709754,421.01163,215.75134,0.38334885,465.36798,213.17075,0.3473961,457.3788,216.2226,0.4772296,521.85657,217.0476,0.4327185,504.29068,214.9898,0.5309525,459.44568,219.15411,0.5496331,461.71735,224.19125,0.58618915,494.21658,210.96915,0.5521241,493.1462,211.72638,0.60864425,518.33344,223.50354,0.5206546,517.4103,224.01987,0.55566025,1.02026831,0.20634217,0.65661026,0.75314892
