frame_id,timestamp_ms,nose_x,nose_y,nose_conf,left_eye_x,left_eye_y,left_eye_conf,right_eye_x,right_eye_y,right_eye_conf,left_ear_x,left_ear_y,left_ear_conf,right_ear_x,right_ear_y,right_ear_conf,left_shoulder_x,left_shoulder_y,left_shoulder_conf,right_shoulder_x,right_shoulder_y,right_shoulder_conf,left_elbow_x,left_elbow_y,left_elbow_conf,right_elbow_x,right_elbow_y,right_elbow_conf,left_wrist_x,left_wrist_y,left_wrist_conf,right_wrist_x,right_wrist_y,right_wrist_conf,left_hip_x,left_hip_y,left_hip_conf,right_hip_x,right_hip_y,right_hip_conf,left_knee_x,left_knee_y,left_knee_conf,right_knee_x,right_knee_y,right_knee_conf,left_ankle_x,left_ankle_y,left_ankle_conf,right_ankle_x,right_ankle_y,right_ankle_conf,acc_x,acc_y,acc_z,acc_mag
0,0.0,513.70953,94.1815,0.9388793,515.8737,91.954765,0.90241265,511.7142,92.09081,0.87716216,519.5224,92.87154,0.75407845,508.7688,93.10785,0.65392995,525.1672,105.17343,0.9931311,503.83438,105.40478,0.994303,530.66583,120.80299,0.95182943,497.76465,120.114044,0.94838184,525.71686,131.76984,0.9143842,502.40875,129.86845,0.90528893,521.6201,137.50424,0.9944476,508.21643,137.55084,0.99502796,519.7243,162.58957,0.9838869,507.53955,162.53094,0.98322636,515.93134,187.41064,0.9626501,509.8435,187.27905,0.96125346,0.98862951,-0.01842341,0.96882561,0.19602506
1,33.333333333333336,513.76697,94.43607,0.9382191,515.92303,92.20122,0.9013974,511.75998,92.33512,0.8761979,519.5475,93.02365,0.752094,508.7697,93.249054,0.65277785,525.1791,105.159935,0.99308115,503.81894,105.38548,0.9942386,530.6948,120.745926,0.9517642,497.76678,120.062164,0.9480302,525.81366,131.67554,0.9143434,502.28473,129.74553,0.90489185,521.61035,137.40125,0.99449265,508.1971,137.44798,0.9950566,519.75104,162.52856,0.98417205,507.56396,162.47432,0.98348606,515.9602,187.42949,0.96339124,509.86514,187.30634,0.9619561,0.98923093,-0.00147387,0.97054513,0.1913578
2,66.66666666666667,513.8375,94.69978,0.93845,515.9864,92.4507,0.90166104,511.81396,92.58681,0.8767356,519.59674,93.17917,0.7517978,508.77405,93.404236,0.65369236,525.2385,105.18789,0.9931357,503.77844,105.41168,0.99427444,530.7468,120.81166,0.9523526,497.77667,120.106155,0.9484448,525.8257,131.87376,0.91524684,502.34412,129.80368,0.9055961,521.657,137.40569,0.9945515,508.16638,137.45667,0.9951048,519.8864,162.5466,0.98428994,507.51218,162.49998,0.9835919,516.06604,187.44519,0.96354055,509.77768,187.3393,0.9620876,0.99340868,-0.00884324,0.97398417,0.19528812
3,100.0,513.6091,94.72645,0.93820804,515.7706,92.4717,0.9048556,511.60867,92.619995,0.8720944,519.4729,93.16878,0.764805,508.67688,93.4444,0.6358495,525.27356,105.159935,0.99329996,503.83936,105.435715,0.9939856,530.8592,120.77997,0.95482683,497.83392,120.10405,0.9448186,525.79285,131.94942,0.91859293,502.22293,129.8323,0.9009484,521.6628,137.37347,0.9945779,508.20895,137.42407,0.9949262,519.848,162.52226,0.98446435,507.59354,162.4748,0.9830474,515.96106,187.43271,0.96381253,509.89288,187.30281,0.96114814,0.98568737,-0.00835194,0.96317577,0.20928991
4,133.33333333333334,513.37665,94.95086,0.93865746,515.56793,92.69101,0.9084068,511.4196,92.83676,0.86910945,519.40424,93.29646,0.7769022,508.638,93.582275,0.6217959,525.32477,105.174484,0.99355984,503.92862,105.45173,0.99391633,530.9225,120.748505,0.95771366,497.89026,120.06763,0.9434656,525.8072,132.0422,0.9229955,502.20694,129.9808,0.8998284,521.66675,137.37831,0.9947732,508.25104,137.40564,0.9949698,519.91974,162.50728,0.9850979,507.6955,162.42706,0.9832123,515.97144,187.44337,0.9651186,509.99338,187.24261,0.96166915,1.0039765,0.00908888,0.98331869,0.20241184
5,166.66666666666666,513.6061,95.37916,0.9401632,515.7895,93.105965,0.90930855,511.62134,93.24591,0.87336683,519.5644,93.56698,0.77517235,508.75177,93.83778,0.6322214,525.4252,105.2106,0.99374276,503.9494,105.552475,0.99423873,531.06555,120.69182,0.95873934,498.08875,120.3307,0.9466814,525.86865,132.11551,0.9249426,502.4037,130.69914,0.90450764,521.7266,137.38744,0.99494535,508.26248,137.44907,0.9952004,519.99414,162.5194,0.98536646,507.77332,162.47064,0.9837316,515.8891,187.42574,0.9653729,510.05307,187.28764,0.9623378,1.01105317,0.00933453,0.9828274,0.23704785
6,200.0,513.8465,95.74226,0.9408405,516.04565,93.463615,0.90927184,511.86566,93.57837,0.8758813,519.8144,93.778336,0.7720542,508.96133,93.97831,0.6387545,525.55676,105.20138,0.9937868,504.06186,105.46275,0.99444675,531.1321,120.67691,0.9589625,498.1578,120.232605,0.94917816,525.9436,132.15004,0.92569673,502.38565,130.77838,0.90825355,521.7532,137.3943,0.9950663,508.27835,137.42912,0.99538827,520.098,162.60226,0.98563266,507.8989,162.52661,0.9842711,516.0309,187.57576,0.9658211,510.20447,187.40778,0.9632394,0.98937012,0.01744083,0.9639127,0.22230912
7,233.33333333333334,513.52637,95.62672,0.94061893,515.7463,93.34955,0.91238004,511.59012,93.46992,0.8707999,519.64606,93.698166,0.78574175,508.84195,93.935234,0.62000537,525.65,105.188805,0.9940532,504.031,105.49933,0.9942895,531.3782,120.586975,0.96200395,498.0982,120.25371,0.94677883,525.8721,131.93265,0.93028843,502.41913,130.85211,0.9056694,521.7977,137.41064,0.99525344,508.24374,137.42947,0.99538356,520.1103,162.52815,0.9862817,507.73785,162.42526,0.9843025,515.9302,187.51271,0.9672442,510.084,187.28772,0.9636126,0.99783216,0.0567441,0.97619498,0.19872716
8,266.6666666666667,513.1876,95.757286,0.9374799,515.4016,93.479965,0.9122533,511.31085,93.607765,0.8590249,519.4077,93.72987,0.7957325,508.73666,94.00623,0.5891101,525.68994,105.065384,0.99404764,504.08542,105.42125,0.99368954,531.58716,120.34065,0.96392983,498.17648,120.107574,0.9408108,526.0866,131.67432,0.93294847,502.22293,130.76392,0.8981775,521.76746,137.18967,0.9953277,508.24332,137.18723,0.9952009,520.1457,162.285,0.98693395,507.6718,162.15433,0.9841616,515.9998,187.37299,0.96898067,510.00967,187.07843,0.9640476,1.01434367,0.06607862,0.9909337,0.20634217
9,300.0,513.26587,95.87663,0.9378635,515.4807,93.60322,0.91229063,511.3925,93.71239,0.8602864,519.4681,93.79644,0.7946089,508.79742,94.02477,0.5919923,525.72205,105.01576,0.99412954,504.08014,105.34875,0.9938486,531.67175,120.20596,0.9645992,498.22943,120.102066,0.9426941,526.196,131.4377,0.93435925,502.20685,131.00851,0.90109223,521.70844,137.03325,0.9954674,508.15256,137.01369,0.99537164,520.1464,162.07603,0.98737025,507.51788,161.92224,0.98476774,516.0377,187.17374,0.96997154,509.8188,186.85806,0.965322,1.01827232,0.07639573,0.99682919,0.19332296
10,333.3333333333333,513.13385,96.23917,0.9380071,515.3555,93.96219,0.91380656,511.2733,94.05772,0.8586563,519.3963,93.9878,0.79881936,508.72717,94.19322,0.5837484,525.71094,104.91995,0.99421704,504.09763,105.280624,0.9937692,531.81165,119.94228,0.9658986,498.35458,120.09163,0.94198966,526.4942,131.0571,0.9366604,501.9338,131.26082,0.900866,521.59924,136.79845,0.9955844,508.10037,136.77002,0.9954201,520.03125,161.94308,0.98783165,507.57263,161.77658,0.98506457,515.9218,187.19275,0.9709546,509.8663,186.8484,0.9660257,1.06926571,0.04175972,1.05480152,0.17023229
11,366.66666666666663,513.2491,96.54395,0.94021386,515.46625,94.2498,0.91523474,511.31912,94.34798,0.8657698,519.44073,94.18898,0.7955372,508.62204,94.39766,0.5986381,525.63165,104.9196,0.9943228,503.98236,105.40048,0.99410534,531.8045,119.747055,0.9659284,498.42328,120.34009,0.94505864,526.61304,130.61176,0.93718356,501.88907,131.54419,0.9052506,521.68616,136.6379,0.99573165,508.13422,136.68323,0.9956605,520.16675,161.8648,0.9883029,507.50012,161.77527,0.98592025,516.05023,187.25806,0.9721314,509.55212,187.03235,0.96787035,1.07817656,0.04962038,1.06855766,0.13485935
12,400.0,513.2039,96.92769,0.9407369,515.4226,94.6082,0.91623163,511.239,94.7087,0.8667538,519.4187,94.34915,0.79605794,508.50626,94.5647,0.59821075,525.62286,104.80476,0.99428815,503.97852,105.3065,0.99404776,531.8631,119.60433,0.96585697,498.5655,120.24542,0.94461423,526.7276,130.60638,0.9371522,501.84595,131.49765,0.90483785,521.7323,136.47278,0.9956885,508.19363,136.52985,0.99560934,520.23944,161.81573,0.988208,507.63754,161.73914,0.9857874,516.0839,187.28508,0.97182286,509.59393,187.0706,0.9674947,1.0755197,0.09531043,1.06536427,0.11250561
13,433.33333333333337,512.7186,97.22943,0.9405068,514.9933,94.889366,0.91964054,510.7809,94.98222,0.8611094,519.1599,94.52275,0.8096257,508.17755,94.73625,0.5762464,525.5806,104.8916,0.99440527,503.75677,105.35477,0.99364436,531.91565,119.74269,0.96757406,498.43784,120.21759,0.939573,526.4682,130.80998,0.93941355,501.80273,131.34633,0.89855206,521.4864,136.67789,0.9956501,507.82437,136.67917,0.9953596,519.94037,162.10843,0.9880832,507.0885,161.97144,0.9849097,515.70416,187.57895,0.9713798,509.0593,187.25832,0.96577126,1.05193013,0.10513625,1.04178231,0.10096028
14,466.6666666666667,512.3889,97.429054,0.94008774,514.6629,95.06463,0.92051774,510.44205,95.1751,0.85821265,518.88464,94.592064,0.81389797,507.8656,94.85738,0.56674284,525.47314,104.8875,0.99440986,503.51462,105.39803,0.99340534,532.0003,119.72478,0.9680489,498.27454,120.176025,0.9369203,526.2973,130.91147,0.9399481,501.71545,131.15462,0.8952445,521.34875,136.85959,0.9956033,507.5871,136.86983,0.9952158,519.7512,162.33656,0.9879018,506.6919,162.21454,0.98436314,515.43243,187.75479,0.9708436,508.60187,187.45259,0.96461326,0.99487052,0.08523897,0.99044241,0.03905762
15,500.0,512.02673,97.43691,0.93735045,514.1834,95.08449,0.9102719,510.05246,95.212875,0.8541523,518.2885,94.47445,0.78899217,507.515,94.853806,0.5698093,525.2476,104.943016,0.99386203,502.95844,105.41556,0.9935375,532.3427,119.55959,0.9685196,497.27594,119.3847,0.948315,526.089,131.46735,0.94539243,500.78534,130.7729,0.91595876,520.7612,137.36879,0.995526,506.74554,137.40118,0.9953891,519.7276,162.03073,0.98890483,506.22385,161.87776,0.98659223,515.7426,187.0125,0.9710579,507.58698,186.67264,0.9665164,1.02885932,0.081063,1.02532406,0.02628406
16,533.3333333333334,511.35754,97.26313,0.9375472,513.5391,94.92549,0.9137795,509.4577,95.05202,0.8496643,517.8064,94.349304,0.80155325,507.1418,94.748245,0.5508472,525.02563,104.85036,0.994068,502.69995,105.34548,0.9933236,532.2665,119.33866,0.97048765,497.0664,119.26288,0.9459737,526.12006,130.94548,0.94816303,500.6798,130.49759,0.9134848,520.38495,137.32419,0.9956204,506.28867,137.3117,0.99532545,519.5762,162.12637,0.98910475,505.3554,161.91095,0.9863353,515.66394,187.2154,0.97142315,506.39633,186.76804,0.96603805,1.05772171,0.08401074,1.05406458,0.02579277
17,566.6666666666666,510.83035,97.32402,0.9289781,512.8999,94.92139,0.90126395,508.85358,95.14314,0.83384466,517.07495,94.102425,0.78189373,506.44983,94.75082,0.53453594,524.65027,104.39035,0.99309546,502.0855,105.20999,0.9921295,532.1356,118.96577,0.9663224,496.93457,119.35491,0.9392708,525.65216,130.88553,0.9413348,500.84616,130.43098,0.9038638,520.0588,137.23679,0.9950618,505.72086,137.36163,0.99470735,519.5152,162.17174,0.98792946,504.3406,162.09843,0.9849545,515.6302,187.12936,0.9687713,504.99762,186.88556,0.9630937,1.02175679,0.10611883,1.01500696,0.04986602
18,600.0,509.64056,97.521935,0.9208705,511.5784,95.06723,0.8902502,507.66406,95.401535,0.8166686,515.8165,93.98862,0.7674482,505.44983,94.95538,0.5127029,524.061,104.07669,0.99231684,501.48798,105.29217,0.9913238,531.8833,118.66177,0.96382374,496.92682,119.66207,0.9370803,525.37134,130.78577,0.93760544,500.6362,130.7074,0.90096676,519.7754,137.39026,0.9948318,505.40472,137.6369,0.99452233,519.25195,162.52289,0.9874592,503.39813,162.55038,0.98463017,515.4189,187.50241,0.96761674,503.6147,187.3816,0.9622518,1.01177113,0.11766417,1.0044442,0.03046003
19,633.3333333333333,508.55475,98.38083,0.8851465,510.35638,95.88264,0.838686,506.79,96.20465,0.74306506,514.76154,94.15213,0.7022324,505.0745,95.17348,0.43107298,523.5903,103.71654,0.9889826,501.50717,104.85125,0.9879369,531.0998,118.873375,0.9608974,498.10983,119.60474,0.9368696,524.33826,130.91107,0.93800867,501.14456,130.73541,0.907167,518.982,137.46234,0.99504906,505.03876,137.65886,0.99482274,518.96594,162.66858,0.99069864,503.751,162.57205,0.9888543,516.8322,187.25154,0.9761086,504.84012,186.85359,0.97251576,0.97107259,0.15033501,0.95850851,-0.0405315
20,666.6666666666666,508.22607,98.38121,0.8787022,510.03473,95.891754,0.8309497,506.45822,96.20189,0.7308555,514.3063,94.22266,0.69543123,504.64743,95.209946,0.42013884,522.9516,103.77927,0.9885721,501.0399,104.955894,0.9870861,530.5773,118.8733,0.960581,498.00934,119.61461,0.9334419,524.1894,130.91226,0.9374612,500.7284,130.1907,0.9033265,518.5441,137.48041,0.9950028,504.72452,137.75381,0.99468756,518.50574,162.76605,0.9908042,503.75043,162.7692,0.9888066,516.8953,187.35869,0.9765198,505.23416,187.08066,0.9726566,0.93112185,0.17882988,0.91183587,-0.05969184
21,700.0,508.0623,97.71646,0.8582151,509.60065,95.256165,0.8191736,506.29813,95.678955,0.6939415,513.6441,94.02333,0.68873346,504.18094,95.20247,0.38242233,522.3896,103.71895,0.9888659,500.33606,105.09073,0.98602515,530.9867,118.40671,0.96563494,496.50708,119.79792,0.92407876,524.6574,130.57843,0.9442724,498.5888,130.02684,0.89193857,518.1006,137.14409,0.9953259,504.14774,137.4086,0.9945939,518.3654,162.48737,0.9903654,502.9539,162.58151,0.9870789,515.42316,187.73175,0.97585446,503.6326,187.82498,0.9702964,0.98653909,0.17367133,0.96612351,0.09850382
22,733.3333333333333,506.37732,98.09073,0.89988476,508.3121,95.5538,0.87140554,504.53644,95.856766,0.75112206,512.7576,93.87914,0.76009077,502.71603,94.88617,0.4024612,521.59235,103.5578,0.991092,499.47037,104.963936,0.9874555,529.8866,118.36713,0.9693726,496.97064,119.72972,0.924455,523.99756,130.37206,0.9487112,498.7892,130.18927,0.8946652,517.49176,137.23296,0.995542,503.59714,137.61424,0.99464875,517.6252,162.63965,0.99186134,502.94135,162.74905,0.98865664,516.61725,187.21619,0.9789586,505.0456,186.99873,0.9728865,1.32350312,0.07418492,1.30216648,0.22476558
23,766.6666666666667,504.8315,97.165245,0.90868425,506.66553,94.65398,0.89821905,503.0865,95.07519,0.771077,511.463,93.45932,0.7991844,501.28976,94.6541,0.4079625,520.1659,103.210106,0.9923035,498.62045,104.95092,0.98689693,529.1198,117.38953,0.9685901,495.39932,120.32048,0.889046,523.8236,128.41576,0.941102,497.24594,130.18005,0.84183604,516.86816,137.00375,0.9950094,503.00195,137.38899,0.9932,518.47833,163.19818,0.9879373,501.59576,163.39212,0.9808693,516.4963,189.27457,0.972281,502.17682,189.29643,0.96148616,0.8650372,0.07000895,0.85558307,0.10661012
24,800.0,503.99213,97.29222,0.91871506,506.05792,94.77058,0.8975698,502.1555,95.076744,0.7850877,510.7544,93.40557,0.7991548,500.54736,94.46799,0.42491013,519.812,103.521286,0.9923758,497.7901,105.15109,0.988827,528.18604,117.819916,0.97052795,495.52234,119.94786,0.92294616,522.1548,128.13338,0.9489893,497.3131,129.80374,0.8909273,516.3097,137.3913,0.9954184,502.48306,137.82477,0.99440646,516.8064,162.80557,0.9912875,501.9742,162.87788,0.98761916,516.65216,187.22635,0.9774014,505.02142,186.84479,0.97041357,0.9233135,0.13633322,0.90201005,0.14247435
25,833.3333333333334,503.1508,96.89577,0.9193132,505.29166,94.49499,0.8976994,501.39575,94.621445,0.7903364,509.96185,93.85955,0.78441787,499.53073,94.477875,0.41611764,518.33405,104.48597,0.99142116,496.7706,105.8277,0.98736805,526.977,118.58179,0.9697408,494.4091,120.74765,0.921499,520.5342,127.55386,0.9493306,495.903,130.43924,0.89301324,515.5057,137.95726,0.99528414,501.92285,138.37608,0.9941818,515.9508,163.1954,0.9918554,501.90247,163.29417,0.9882671,516.862,187.22238,0.9807417,505.32,186.84174,0.9744444,0.96146711,0.1616347,0.92682024,0.19823587
26,866.6666666666667,503.28754,96.67006,0.92236984,505.45438,94.24538,0.8927303,501.35193,94.358925,0.8114947,509.84073,93.73348,0.7579322,498.95486,94.2794,0.4649898,517.70087,104.46278,0.99120975,495.62943,105.82178,0.9889486,526.38947,118.64627,0.9670834,492.98804,120.98079,0.93383294,520.244,127.905914,0.94625217,494.9009,131.11458,0.9058853,515.0523,137.86432,0.9952447,501.12653,138.39929,0.9946233,515.64185,163.0353,0.99145705,501.62653,163.26433,0.98877513,516.8804,186.89996,0.97970665,505.56573,186.74672,0.9748081,0.91483273,0.08253687,0.87818245,0.24269769
27,900.0,501.91028,96.251236,0.8947461,503.99277,93.89041,0.85807866,500.32135,93.97893,0.7502289,508.64606,93.464554,0.72371286,498.55658,93.93829,0.3997891,517.0098,104.212906,0.9892231,495.19937,105.417496,0.98634976,525.51984,118.63413,0.965162,492.2941,120.828705,0.9301532,519.431,127.808365,0.9442826,494.3677,131.64307,0.9029774,514.55554,138.0039,0.9952415,500.77884,138.42345,0.9946136,515.37646,163.1998,0.9919098,501.12036,163.29485,0.98935777,517.172,187.27008,0.98104423,505.31207,186.87375,0.97641546,0.89984173,0.0324252,0.85877646,0.26677095
28,933.3333333333334,501.49704,95.35428,0.91465634,503.53094,92.87633,0.87723225,499.60864,93.25237,0.8018587,508.00482,92.30179,0.75729424,497.7902,93.48235,0.5014984,517.2312,103.318565,0.99227625,494.23172,105.27514,0.99222434,525.2994,118.09732,0.9644576,491.349,121.15326,0.9489741,518.2149,128.89581,0.93942684,494.58936,133.55249,0.9165855,515.06433,137.31837,0.9952879,500.37494,137.94229,0.995402,516.4026,162.39792,0.98812556,499.5299,162.59398,0.9865754,516.148,186.51411,0.9690822,503.17987,186.37169,0.9657815,1.06440669,0.00761501,1.01770906,0.31172406
29,966.6666666666666,501.17474,95.51387,0.9185707,503.25177,93.05736,0.88300234,499.27182,93.403114,0.8091322,507.67853,92.53315,0.76481724,497.39575,93.64597,0.5075439,516.7298,103.492065,0.99257565,493.745,105.43929,0.99241215,525.00433,117.95315,0.9657962,490.71805,121.15886,0.9495006,518.1421,128.68663,0.9414365,493.85446,133.83243,0.9174965,514.4724,137.319,0.9952361,499.81808,137.94925,0.9953101,515.8713,162.28995,0.98760974,499.29037,162.4899,0.98585135,515.56793,186.2414,0.9673031,503.08044,186.10922,0.96354693,0.93513089,0.01031711,0.89758844,0.26210368
30,1000.0,501.12723,94.86647,0.9139622,503.18335,92.48743,0.87070394,499.24805,92.78441,0.8077562,507.3737,92.34356,0.7405627,497.18832,93.31521,0.5226802,515.9934,103.595566,0.9919659,493.21857,105.43735,0.99244833,524.2261,117.83599,0.9632261,489.922,120.993515,0.9529465,517.2573,128.16095,0.938373,492.87726,133.76741,0.921863,513.86,137.39926,0.9949168,499.32385,138.04633,0.99521756,515.35443,162.163,0.9862628,499.31238,162.39624,0.98506594,515.49646,185.6633,0.9635256,503.56552,185.60709,0.96073186,0.93925482,0.00466726,0.90348393,0.25669948
31,1033.3333333333335,501.11545,95.17647,0.9055645,503.04773,92.77546,0.8494644,499.11835,93.09042,0.8028574,506.9132,92.570274,0.6963898,496.67252,93.52701,0.53791684,515.197,103.67692,0.9907465,492.54422,105.506676,0.99215573,523.39606,118.02068,0.9575627,489.24884,121.048706,0.9548324,517.1747,127.97015,0.9311516,491.90048,132.78572,0.9241588,513.58765,137.25604,0.99461913,499.20215,138.0173,0.9952218,514.9748,161.9499,0.98583543,499.81192,162.3553,0.9855598,515.2098,185.23203,0.96284455,504.08505,185.4296,0.9617958,1.03557373,-0.05551587,0.9963379,0.27684241
32,1066.6666666666667,500.42673,94.65987,0.89120436,502.2884,92.25261,0.82651854,498.41068,92.59304,0.77903795,505.99008,92.225525,0.6703979,495.8696,93.236084,0.51943755,514.28906,103.49654,0.9895154,491.79968,105.529976,0.99091727,522.60345,117.962906,0.95391506,489.1066,121.49791,0.95025176,516.7672,128.0496,0.9258643,491.88782,133.28099,0.91770184,513.27386,137.15602,0.9942257,499.02225,138.05913,0.9948198,514.5583,161.85818,0.9852276,499.93442,162.41608,0.9848681,514.99756,185.13823,0.9618006,504.573,185.52925,0.9605901,1.02125897,-0.0994864,0.98528386,0.24957577
33,1100.0,499.7473,95.04156,0.88631874,501.5926,92.60832,0.82051235,497.7214,92.94018,0.7679733,505.3348,92.38773,0.66454303,495.1848,93.36162,0.50321376,513.6725,103.439804,0.9891572,491.17212,105.41956,0.99034274,522.2785,117.94385,0.9541494,488.4922,121.43074,0.9483005,516.828,128.53914,0.9264965,491.41843,133.7054,0.9158363,512.87366,137.23907,0.99422944,498.66925,138.1476,0.99474454,514.1381,161.95636,0.9854693,499.90182,162.52304,0.984875,514.53107,185.25427,0.9623817,504.72812,185.63953,0.9607212,1.03311408,-0.11103174,0.99928565,0.23753914
34,1133.3333333333333,499.04193,95.318375,0.8975244,500.97607,92.90367,0.8421657,497.0427,93.180664,0.77898073,504.8851,92.535484,0.69671446,494.63937,93.387535,0.49760976,513.0748,103.390366,0.9900933,490.8866,105.2121,0.99041057,521.87866,117.746574,0.957609,488.31122,121.09834,0.94491035,516.5598,128.54109,0.93093985,491.14026,133.89874,0.9120733,512.0898,137.25356,0.99420035,498.18292,138.07538,0.9944635,513.1512,162.20148,0.9851419,499.99527,162.6664,0.9837263,513.7736,185.71999,0.9608649,505.49594,185.92905,0.9575794,1.0195761,-0.09236269,0.98503821,0.24638238
35,1166.6666666666667,499.14673,95.5076,0.9039621,501.00287,93.079025,0.84533334,496.99637,93.3445,0.7961191,504.62845,92.5439,0.68711567,494.13895,93.338394,0.52432364,512.4472,103.14604,0.99013805,490.29883,104.93027,0.9907651,521.42395,117.311134,0.95602936,487.78046,120.762726,0.94599926,516.0694,128.29979,0.929068,490.5428,133.9102,0.91332126,511.46375,137.11502,0.9940355,497.62595,137.96277,0.99439776,512.2156,162.3782,0.9844653,499.7001,162.9,0.98328775,512.81134,186.13104,0.9587007,505.392,186.48193,0.9558031,0.9643571,-0.07443057,0.93787429,0.21174637
36,1200.0,498.18698,95.5718,0.91144294,500.04715,93.15665,0.85971373,496.0774,93.42543,0.80274093,503.7984,92.432465,0.7099869,493.385,93.25703,0.51715815,511.59454,102.81818,0.99080455,489.86826,104.56333,0.9909237,520.6478,116.97939,0.95954597,487.52975,120.211685,0.9453622,515.15356,128.3347,0.93415403,490.13962,133.52747,0.91358733,510.48743,136.95671,0.99395365,496.9622,137.76392,0.9941579,511.09882,162.50049,0.9835442,499.2296,162.97998,0.9817172,512.17883,186.33328,0.95483226,505.4557,186.6184,0.9505205,0.96271281,-0.10022334,0.93934816,0.18546231
37,1233.3333333333335,497.5108,95.58006,0.93416685,499.6573,93.089005,0.89800656,495.38687,93.3602,0.8581843,503.67972,92.65828,0.7329257,492.695,93.61333,0.57683575,511.05304,103.523254,0.9914894,489.2158,105.54765,0.99233973,519.7402,118.33308,0.9649151,486.4292,121.622894,0.95640343,514.68414,129.91475,0.94552684,489.58258,133.46518,0.9316873,510.01736,136.95299,0.99519193,496.44836,137.95479,0.9954,510.35486,162.954,0.9898761,499.13385,163.57178,0.98886526,511.11856,187.74051,0.9741252,504.84848,188.1842,0.9721327,0.99132249,-0.06288523,0.97619498,0.16065212
38,1266.6666666666665,497.18616,95.88283,0.9438806,499.3107,93.36563,0.9118001,494.98746,93.653534,0.8760265,503.41623,92.65422,0.75214314,492.31537,93.65767,0.59984636,510.99658,103.23085,0.9928341,488.89334,105.212585,0.9938783,519.5476,118.12876,0.96999884,485.99686,121.37633,0.9646744,514.30963,129.72467,0.9532547,489.50778,133.59567,0.94336987,509.61346,136.69215,0.9957866,495.912,137.60205,0.99608624,509.55032,162.83687,0.99053484,498.13644,163.33975,0.98982596,509.0754,187.89067,0.9744582,503.05093,188.2297,0.97299623,1.07211223,-0.07418492,1.05160813,0.19504248
39,1300.0,496.48154,96.0197,0.9423835,498.64713,93.49031,0.9138828,494.30435,93.73784,0.8669256,502.9521,92.53264,0.76431346,491.68356,93.44983,0.5655587,510.7295,102.93617,0.99235743,488.46503,104.67528,0.99274546,519.18054,118.081375,0.96936923,485.5919,120.84122,0.95769393,513.30646,129.49591,0.9517411,488.3197,133.13214,0.93441427,508.82022,136.97787,0.9950865,495.10657,137.7017,0.9951639,508.021,163.6035,0.98871523,497.09885,163.91154,0.98712665,508.05136,188.56961,0.9687685,502.79272,188.61491,0.9654809,0.95894461,-0.081063,0.93615477,0.1913578
40,1333.3333333333333,495.64462,96.40014,0.9440194,497.7785,93.875015,0.9186108,493.52264,94.113266,0.8642121,502.29865,92.644806,0.7785138,491.12573,93.54681,0.5461692,510.36984,102.72652,0.9926986,488.05533,104.29961,0.9927418,518.3469,118.12497,0.9717899,484.76306,120.46811,0.9574018,512.1581,129.49751,0.9552315,487.83817,132.85837,0.9349979,508.49905,136.71466,0.9951904,494.7869,137.33467,0.99514365,507.9132,163.63448,0.98888654,497.0058,163.8289,0.98693234,507.25906,189.1359,0.968363,502.1748,188.9768,0.96426123,0.95059958,-0.09309962,0.93173315,0.16384551
41,1366.6666666666667,495.25842,96.533676,0.9436132,497.36005,94.03424,0.91429317,493.17078,94.26489,0.8676832,501.9032,92.77347,0.76207155,490.87158,93.63538,0.56366265,509.8949,102.7721,0.9922374,487.8253,104.24522,0.9931011,517.7399,118.34776,0.96902275,484.5107,120.594284,0.96126217,512.23566,129.79843,0.9519677,487.64453,133.3201,0.93945193,508.0434,136.46916,0.99501497,494.6089,137.04132,0.9952838,506.7802,163.70049,0.9885289,496.92273,163.842,0.9874055,506.07074,189.65366,0.96732336,502.3785,189.43794,0.96488744,1.02065668,-0.10857528,1.00002258,0.17293439
42,1400.0,495.13626,96.71652,0.9406284,497.18088,94.233955,0.90610707,493.04456,94.46049,0.86606085,501.71637,92.95619,0.7390692,490.7529,93.787186,0.57272315,509.56833,102.94693,0.99124396,487.7869,104.29206,0.9929248,516.8757,118.758514,0.96385676,484.48145,120.79562,0.96179557,511.68332,130.34122,0.94538647,487.52106,133.71135,0.9394802,507.59418,136.5579,0.9946279,494.35333,137.05933,0.99519265,506.0226,164.06125,0.9881406,496.3653,164.14603,0.9877378,504.97855,190.48288,0.96713513,501.06372,190.2048,0.96619195,1.01873411,-0.11864675,0.99609226,0.17760165
43,1433.3333333333333,494.85254,96.98746,0.9362592,496.8184,94.48413,0.8916,492.7103,94.76593,0.86696017,501.32687,93.16991,0.6989256,490.44974,94.11228,0.6015378,509.3346,103.06891,0.9903031,487.28726,104.52225,0.9934957,516.56714,118.79747,0.9579095,483.38235,121.03937,0.9676673,511.58755,130.1346,0.9385451,487.40945,133.92807,0.94649434,507.46368,136.6243,0.9947221,494.10687,137.18398,0.9957528,505.74615,164.21234,0.9885847,496.3108,164.35863,0.98948276,502.69257,191.06415,0.9687187,499.62234,190.90506,0.97047496,0.98815164,-0.11152303,0.96121061,0.20020103
44,1466.6666666666665,493.58728,97.20732,0.9382379,495.51996,94.741104,0.9015176,491.57553,95.00093,0.85949093,500.30844,93.359955,0.7330674,489.7219,94.27149,0.5657155,508.71182,103.11608,0.99149126,486.95682,104.4613,0.99351054,516.0432,118.55795,0.96560717,482.86862,120.67694,0.96669185,511.15988,129.85106,0.9486874,487.123,133.77213,0.94683516,507.0169,136.4468,0.9953643,493.88028,136.89795,0.99599886,505.258,163.93153,0.9900277,495.97,163.971,0.99004096,501.3783,190.76071,0.9721443,498.37384,190.40495,0.9721372,0.99635707,-0.13682451,0.96489529,0.20732475
45,1500.0,492.65005,97.19356,0.9320543,494.5276,94.77241,0.89100474,490.75565,95.044525,0.84665734,499.37115,93.58493,0.72008336,489.19107,94.53315,0.55483013,507.84363,103.417595,0.99114144,486.6105,104.832855,0.9933694,515.1472,118.677505,0.9650111,482.51242,120.99278,0.9674829,510.6222,129.7606,0.9481581,486.82663,134.0578,0.9480627,506.3547,136.25987,0.99550736,493.59915,136.73419,0.9961747,504.43573,163.5014,0.9905095,495.9503,163.58551,0.9906743,499.95328,190.08606,0.9738086,497.85663,189.77644,0.9741247,1.02506877,-0.08548461,0.98651209,0.26505143
46,1533.3333333333335,492.2924,97.432724,0.93934846,494.18985,94.92908,0.90115,490.2634,95.308624,0.8593089,499.0925,93.302284,0.7434791,488.73044,94.49698,0.58401257,507.5385,102.68894,0.9931251,486.2814,104.50777,0.9949077,515.2088,117.49156,0.96935195,482.36096,120.6031,0.97098595,511.68005,129.52246,0.9530433,486.12393,134.12703,0.9517383,505.85556,135.87428,0.996329,493.1322,136.52304,0.9969091,503.88876,163.1655,0.9917134,495.52353,163.45773,0.9919145,499.00577,190.3145,0.9750787,497.01077,190.31894,0.9755221,1.02666547,-0.11594465,0.97963401,0.28445742
47,1566.6666666666667,492.64883,97.642456,0.93038374,494.37662,95.08156,0.8973953,490.51645,95.61143,0.8364051,498.77298,93.584915,0.7463229,488.3029,95.03195,0.54000485,507.28775,102.71701,0.9928939,485.16928,105.13892,0.9930862,516.16296,116.66415,0.96906775,481.32703,121.55208,0.9512766,511.19214,127.86717,0.95102316,485.48602,134.05492,0.92470944,505.67487,135.18484,0.9958621,492.34622,136.07288,0.9958222,503.9075,162.24792,0.99033386,494.62115,162.82144,0.9886037,499.11224,189.23457,0.97365505,498.36526,189.80054,0.97069114,1.08047445,-0.12306837,1.05185377,0.21420282
48,1600.0,492.34055,98.439896,0.9320168,494.14026,95.80813,0.87944174,489.95294,96.261375,0.8573195,498.49518,93.72331,0.6860672,487.6169,95.08235,0.611625,506.53564,102.412636,0.9918948,484.8966,104.781586,0.994615,514.8039,116.8619,0.9620676,481.91534,121.281525,0.9707041,511.06677,129.056,0.9440028,485.17844,134.7557,0.9506998,505.07867,135.28899,0.9962901,492.1788,136.32954,0.9970548,502.74615,162.53258,0.9924866,495.08627,163.27625,0.993164,497.83444,189.62392,0.97851264,496.8679,190.30711,0.9799326,1.07378152,0.00049129,1.07003153,0.08966059
49,1633.3333333333333,492.0704,98.58545,0.9325454,493.74307,95.99121,0.8958694,489.7673,96.537224,0.847384,497.96887,94.29576,0.7283516,487.26526,95.80717,0.56512845,506.44818,103.0428,0.9930138,484.25592,105.65694,0.9939604,515.8592,116.85967,0.9698023,481.10486,122.19585,0.96014595,510.59802,127.71745,0.9532625,483.78464,134.44505,0.93685687,504.68182,135.41016,0.9961521,491.3185,136.38899,0.9963702,502.5442,162.69319,0.99070704,493.4329,163.39383,0.989764,497.541,189.80055,0.97388387,496.63455,190.62573,0.97236335,1.07773437,0.06804379,1.07494444,0.03709246
50,1666.6666666666667,492.14087,98.43566,0.93509203,493.78702,95.83209,0.8944159,489.7357,96.37032,0.86031765,497.78473,94.14757,0.7104934,486.90836,95.62327,0.5984704,505.8302,102.9424,0.99280304,483.71494,105.72228,0.9943041,515.5433,116.20071,0.9662428,480.21085,122.30138,0.961833,510.33917,126.003525,0.94857335,482.39728,134.36432,0.93808043,504.1381,136.19705,0.9961558,490.83743,137.30507,0.99653876,501.7673,163.86488,0.9908312,493.11597,164.73337,0.99039006,496.57275,191.41006,0.9746371,495.85666,192.48508,0.97410244,1.07290347,0.08548461,1.06855766,0.04470747
51,1700.0,491.64847,99.09121,0.94274086,493.40082,96.41211,0.9090355,489.1258,96.899704,0.87175256,497.56412,94.45222,0.73667717,486.14944,95.7861,0.60112274,505.8573,103.26575,0.9935138,482.90823,105.5629,0.9946883,515.2743,117.80223,0.969133,479.60898,122.28754,0.96238196,509.0532,129.72165,0.95186293,481.10156,135.12907,0.9389261,503.7364,136.19333,0.99618006,489.89874,137.07869,0.9964978,501.32053,163.67859,0.99061173,491.961,164.33276,0.9899132,496.18753,190.86581,0.9735627,495.06268,191.66895,0.97245413,1.18651991,-0.13854403,1.1606747,0.20364007
52,1733.3333333333335,491.4531,99.66071,0.94191134,493.23932,96.97607,0.91107357,488.93558,97.36852,0.86497474,497.428,94.667046,0.74524415,485.80847,95.747635,0.57356054,505.63748,103.028534,0.993792,482.23004,104.90676,0.9944502,515.09686,117.89662,0.97295785,479.0522,121.60123,0.96120024,508.6533,129.96597,0.95759296,480.07773,134.42374,0.93898433,502.6612,135.87868,0.99649113,488.58197,136.55878,0.9966169,499.88367,163.711,0.9915588,490.42502,164.19339,0.9903791,495.36642,191.34016,0.9756345,494.1863,191.9546,0.97343737,1.1615011,0.11397948,1.13881226,0.19799022
53,1766.6666666666665,490.14557,101.062546,0.92221946,491.9674,98.34599,0.8961609,487.855,98.633255,0.8052658,496.64673,95.34358,0.74927557,485.17773,96.15611,0.45282918,505.67093,103.08885,0.99283856,481.54346,104.18315,0.99179333,515.0502,118.696785,0.9755097,478.46994,120.378876,0.9475289,508.52368,132.42271,0.961033,479.1193,133.56952,0.92482966,501.5852,136.63016,0.9965379,487.12164,136.85529,0.99617946,498.951,164.60255,0.9923005,488.66232,164.62718,0.9898928,495.03983,192.453,0.977807,492.89816,192.38701,0.9731119,1.10468464,0.36183573,0.9346809,0.46451553
54,1800.0,489.36798,101.61775,0.9124102,491.17514,98.97453,0.8908238,487.29425,99.17247,0.7717221,496.00143,95.95877,0.75899076,484.95297,96.502556,0.3983554,505.03464,103.68637,0.99252194,481.50107,104.199684,0.9901149,514.0332,119.16769,0.9763873,477.96365,119.64952,0.9367542,508.77368,133.28885,0.9618042,478.1549,132.79272,0.9134854,501.03815,137.30083,0.9966048,487.03452,137.24707,0.9959486,498.47406,164.80266,0.99294573,488.6324,164.54536,0.9899322,495.2636,192.5452,0.9803303,493.0368,192.00198,0.9746003,1.0424754,0.26136675,0.75609666,0.66840124
55,1833.3333333333333,489.47693,101.95598,0.8929175,491.21478,99.31714,0.8685723,487.4324,99.49682,0.73007655,495.8189,96.39158,0.7366479,484.92923,96.86549,0.36353102,504.93472,104.40073,0.9917585,480.86142,104.62272,0.98876834,513.75696,120.56239,0.9765588,476.83932,119.92015,0.93406117,507.75778,136.28981,0.9619768,476.98975,133.65758,0.9109423,500.46103,138.35165,0.99670666,486.1433,138.2083,0.99600005,497.9503,165.73767,0.9932627,488.17004,165.44278,0.99019617,494.1239,193.43948,0.981312,492.65887,192.90114,0.9754892,1.14270562,-0.17342568,0.9427872,0.62197425
56,1866.6666666666667,489.09998,101.814316,0.9144069,490.83847,99.17425,0.88736796,486.86923,99.35228,0.78615904,495.21967,96.3327,0.7414426,483.99152,96.80742,0.4294873,504.27707,104.43762,0.99311346,479.64484,104.81081,0.9920615,513.8203,120.4599,0.9787092,475.5602,120.33943,0.9526276,507.55887,136.24559,0.96576893,475.3186,134.82687,0.9320795,499.9818,138.22849,0.9971221,485.26846,138.18716,0.9968172,497.32867,165.8391,0.9935814,487.1973,165.64545,0.99145186,493.30994,193.96268,0.9814679,491.55432,193.65143,0.97722137,1.1615824,0.01252792,0.93124186,0.69419401
57,1900.0,487.91177,104.22676,0.9178127,489.68234,101.50073,0.89345014,485.58557,101.66574,0.78756547,494.38562,97.91814,0.747881,482.75705,98.37697,0.41602978,503.81262,104.864136,0.99297535,478.71527,105.266945,0.99174,513.26263,121.2036,0.97886705,474.71625,121.468994,0.95097375,505.92947,136.75494,0.9662411,474.34744,136.78416,0.9309811,499.85175,137.69653,0.99690527,484.87033,137.65112,0.9965379,497.00165,165.92502,0.99305505,486.89984,165.70547,0.9906109,493.09485,194.44255,0.97924817,491.6873,194.03268,0.9742028,1.03649213,0.16630196,0.85533742,0.56129983
58,1933.3333333333333,485.78116,105.490326,0.9164264,487.7594,102.82923,0.9134756,483.85526,102.80674,0.7431591,493.10352,99.4036,0.8246889,481.7093,99.425674,0.3126126,502.76996,106.627625,0.9935203,478.28958,106.361595,0.98727906,512.3602,123.251495,0.98235554,474.26767,122.432236,0.9086962,503.653,137.972,0.9690235,473.67084,137.63834,0.88569754,498.41824,138.999,0.9962173,483.81506,138.5337,0.9943668,495.26804,166.50403,0.9918218,485.47284,165.8758,0.9850734,493.10193,193.91484,0.9760533,492.004,192.78842,0.9627672,1.00481492,0.24711931,0.91994217,0.31983036
59,1966.6666666666665,484.99036,106.415665,0.89737916,486.8604,103.69586,0.8924598,482.95605,103.837036,0.7079671,491.9823,100.37934,0.7974294,480.7784,100.781265,0.2993829,501.60468,107.5172,0.99194956,477.6583,107.946106,0.9843472,510.63113,124.63641,0.9777714,473.99432,125.142685,0.89289355,503.69717,139.42429,0.9607881,472.6281,139.91608,0.86499685,498.38876,138.5138,0.99571604,484.0955,138.42986,0.99367213,494.72015,166.20985,0.99177223,484.971,165.99266,0.9851924,492.94028,194.05112,0.9774964,491.06415,193.41693,0.96529096,0.94574403,-0.05330506,0.87548035,0.35372943
60,2000.0,483.92102,107.752266,0.9245101,486.10815,105.074,0.9210605,481.8972,105.029526,0.77606416,491.6065,102.18848,0.83130985,479.7717,102.11517,0.35212246,501.14804,110.04819,0.9933361,476.6481,109.59446,0.9878109,510.30954,127.801254,0.9778376,472.2331,126.56641,0.90342563,503.53677,141.54216,0.9595298,470.25198,140.86763,0.8714543,496.9888,140.0578,0.9954986,482.41147,139.4914,0.99360067,494.15082,167.33966,0.99063957,483.9621,166.58466,0.9838319,492.37497,194.76875,0.9745234,490.4669,193.39749,0.9617688,0.90249416,0.20511394,0.83273804,0.28101838
61,2033.3333333333333,483.10965,110.58292,0.8700963,484.9563,107.84789,0.8789757,481.30533,108.00253,0.62695783,490.2826,104.604965,0.8093416,479.57333,105.00755,0.22753786,500.3257,112.052216,0.9909277,476.8007,111.80353,0.9778547,509.3436,130.29683,0.9784582,471.94473,127.94333,0.8567589,502.42627,146.95782,0.9598456,469.94702,141.77766,0.8283172,496.8897,142.37872,0.9950315,482.96304,141.95517,0.9917229,493.05737,168.41125,0.9905195,483.79187,167.915,0.9806337,491.41916,194.75354,0.9748003,490.61337,193.71948,0.95722276,0.89504208,0.13117466,0.82831642,0.31270664
62,2066.666666666667,482.49622,112.11738,0.90511936,484.5432,109.30255,0.91583097,480.53323,109.4264,0.69702363,490.08334,106.163345,0.85263944,478.57236,106.37418,0.25568005,499.83038,114.44605,0.9919905,476.0228,113.28575,0.9781647,508.01166,134.25322,0.9767546,470.30862,128.56215,0.8248528,500.91962,152.80429,0.95370823,470.14258,140.47327,0.7892381,496.94562,144.92197,0.9931676,482.75232,144.19604,0.9879737,493.2836,169.58078,0.98561877,483.528,168.8056,0.9691449,491.65475,194.75435,0.96248233,490.6889,193.26552,0.93421656,0.82363073,0.17023229,0.68559642,0.42349274
63,2100.0,482.5291,115.41946,0.94131374,484.7087,112.591774,0.93145216,479.99066,112.64248,0.8376026,489.74597,109.07277,0.81981343,476.93295,109.01196,0.44589338,498.08133,116.05367,0.9928884,474.11087,114.54575,0.99049336,505.11395,136.46559,0.9722826,467.54688,130.41888,0.92700803,500.0259,155.01784,0.9490849,465.18503,144.22006,0.89184564,496.03372,142.899,0.9935521,481.88004,142.15594,0.9923769,492.3906,168.64096,0.9840768,483.16013,167.72588,0.97700924,491.9121,194.41223,0.95542365,491.4646,192.8667,0.9411038,1.15830848,0.20707911,1.01844599,0.51143381
64,2133.3333333333335,484.58154,118.731964,0.92261463,486.07544,115.82168,0.8745713,481.6816,116.00796,0.8433614,489.4106,111.827354,0.6524698,476.97287,111.95578,0.5631371,496.68118,117.6786,0.9895719,472.62888,116.7513,0.99181706,503.87436,138.3251,0.9587223,466.10843,133.58827,0.9555576,499.6272,157.91022,0.9317695,463.2503,147.9209,0.92524177,495.48654,143.40665,0.99304706,481.26248,143.25159,0.9938579,491.98358,169.1108,0.981625,483.15005,168.99263,0.98066497,490.8193,194.24146,0.9473437,490.64285,194.15196,0.9446824,1.0632233,0.06927201,0.97373852,0.42128193
65,2166.6666666666665,482.03836,122.2281,0.91463184,483.8227,119.34863,0.8861452,479.36703,119.49984,0.8075529,488.1615,115.018265,0.7185588,475.87842,115.070076,0.4660222,496.31757,120.42586,0.9885311,472.42053,118.734505,0.9888728,501.8641,142.06662,0.95900637,464.68216,134.86905,0.93888646,498.25287,162.48398,0.9288203,462.21396,148.82901,0.90270233,495.11087,144.44263,0.99123037,481.07285,143.79298,0.9913851,491.8883,168.9053,0.97765213,482.36307,168.15875,0.97359926,490.01672,193.16837,0.93749344,489.11832,191.94037,0.92857283,0.89892622,0.14665033,0.79982155,0.38320689
66,2200.0,480.52005,124.78143,0.92797786,482.40414,122.07585,0.9054841,477.92746,122.23331,0.83884555,487.0871,118.15559,0.7478845,474.87915,118.17242,0.5050008,495.59543,123.12471,0.9876187,472.03345,120.94289,0.9895885,499.96674,144.06938,0.95282215,463.00836,135.00238,0.9448899,494.9395,159.89381,0.92050296,461.69687,143.78412,0.9101853,495.9077,144.61597,0.9862764,481.7966,143.64532,0.9877171,491.63852,168.13998,0.9573174,480.50204,166.96759,0.9538216,490.72324,191.55273,0.8785068,487.55917,189.67859,0.8699265,0.94025803,0.13019208,0.81726238,0.44633776
67,2233.3333333333335,479.58817,128.93217,0.90405756,481.6526,126.23102,0.8906284,477.07993,126.351974,0.77591413,486.674,122.44653,0.75613534,474.2547,122.33702,0.39997235,495.15234,126.71823,0.98498535,471.57443,123.971756,0.98378605,498.34476,149.04555,0.9538223,461.67923,137.79938,0.9209087,492.83585,164.5186,0.9201534,460.24973,144.44199,0.88235843,495.44452,144.31963,0.98451173,481.26828,143.12126,0.984143,491.437,168.58548,0.9575853,480.7392,167.23584,0.947118,491.04013,192.9584,0.88236594,489.07285,190.74323,0.86056757,0.77154644,0.14665033,0.68019222,0.33334086
68,2266.6666666666665,478.47604,132.37463,0.8599155,480.10013,129.72728,0.82673293,476.0175,130.20522,0.7277473,484.52335,125.72812,0.66712356,473.1783,126.63782,0.41915917,492.54333,128.35802,0.9780423,470.97888,128.27695,0.97956777,496.93066,144.00679,0.93418795,462.39026,139.95828,0.91565794,489.7808,150.97278,0.9022471,463.72015,142.33804,0.8819766,494.88464,146.19739,0.9839154,481.75323,146.30104,0.98491156,491.60898,167.74945,0.9632904,481.72418,167.71045,0.9585861,490.76248,189.69815,0.91134566,488.8372,189.20448,0.9019091,0.79791848,0.11201432,0.73226906,0.29649405
69,2300.0,475.5333,137.64264,0.8097131,476.54718,134.96167,0.77073014,473.10257,135.84534,0.65021515,480.40146,130.60117,0.61292356,470.76675,132.40332,0.36357516,488.62418,131.8174,0.9694454,470.2239,133.41182,0.9699608,493.41382,146.44998,0.9159037,461.80173,145.90451,0.8851318,489.51703,160.13264,0.8750537,460.23276,154.72083,0.8445282,495.89792,145.02203,0.9836731,484.55765,146.0812,0.9842858,490.85037,165.75491,0.97438735,481.27365,166.75371,0.9696688,491.26474,186.7894,0.9489473,486.7589,187.6153,0.94105947,0.85820748,0.24441721,0.72588227,0.38713721
70,2333.3333333333335,474.80417,144.75452,0.84057236,475.79248,141.68619,0.7871862,471.73895,142.41913,0.6628111,479.31317,136.35114,0.6120607,468.9412,137.52187,0.3555962,487.78577,137.33163,0.9730142,469.13586,136.83943,0.9694365,492.55167,160.70607,0.9085296,463.24014,154.49495,0.8564849,492.18896,189.88481,0.8451751,462.37628,173.2922,0.79499805,495.58044,145.13698,0.9827155,484.31152,145.36249,0.98196363,487.46896,168.01242,0.97916,478.169,168.1614,0.9737012,491.67252,191.79146,0.95603144,487.6263,191.54498,0.9462883,0.84003694,0.08671284,0.72342582,0.41808854
71,2366.6666666666665,473.98047,151.45575,0.8299732,475.18347,148.19739,0.76398814,470.48395,148.66624,0.6607637,478.99,143.32512,0.5501773,466.93655,143.91237,0.3378626,487.91443,144.83687,0.9672696,464.99228,143.27838,0.9675059,489.99896,175.65366,0.9021891,457.75998,167.8337,0.8782953,487.98184,209.48221,0.82600456,454.209,194.65494,0.80597377,491.77094,146.43188,0.97202694,477.20517,146.02792,0.97262526,489.85785,174.85226,0.9554549,472.97946,174.43378,0.94944525,490.77725,201.70259,0.8916922,477.34814,200.91934,0.87855273,0.82838045,0.04249666,0.65390816,0.50676654
72,2400.0,473.81775,158.31259,0.8942264,475.36792,155.05545,0.8299511,470.01367,155.41087,0.8170362,479.30685,149.10345,0.51447546,465.65128,149.42229,0.5126192,488.55515,148.01738,0.9518111,462.78244,147.35857,0.9677214,489.52814,176.7603,0.8254853,457.46158,173.82462,0.8763218,488.2916,205.14693,0.73537,449.65305,200.72144,0.7948978,492.4151,145.34969,0.9181051,476.01355,145.32158,0.93273145,492.21793,173.63808,0.8371669,474.15683,173.28874,0.8504994,493.3125,199.54535,0.663169,480.00024,198.66621,0.6775652,0.84185337,-0.03316213,0.68264868,0.49153652
73,2433.333333333333,47.474182,133.32216,0.008143625,44.567307,130.29524,0.002593154,47.762993,131.26706,0.009047343,31.65236,126.37909,0.10600934,45.56439,129.1967,0.3938721,23.769854,132.80032,0.86343944,47.18755,135.3812,0.94526523,9.976349,145.18625,0.812682,61.823013,141.75113,0.95781183,9.027742,165.07861,0.68695885,78.099525,147.85855,0.86541003,23.195513,170.26096,0.9885323,36.432964,171.25813,0.993272,21.5221,195.9732,0.9563578,30.385162,196.70587,0.9725336,15.419237,216.36694,0.8628173,17.988546,218.7301,0.90001667,0.85523957,-0.02112551,0.74258616,0.42373838
74,2466.666666666667,42.18146,128.32027,0.10547356,40.262905,125.67465,0.027289573,43.31625,126.08179,0.08782798,30.82927,125.643005,0.11369962,46.196625,126.74588,0.44299746,23.95366,134.31651,0.6637603,47.29674,136.86823,0.9147314,9.25942,144.26979,0.5359803,60.831116,146.36514,0.9140241,7.6820335,146.98367,0.5142669,74.01703,147.44414,0.8403756,24.098225,176.86514,0.9169641,37.33467,177.71075,0.9602853,17.72071,202.04272,0.8506746,28.47895,202.7246,0.925946,11.349678,222.49919,0.71750623,20.325016,223.73413,0.8100927,0.71509716,-0.03905762,0.71384565,-0.0162126
75,2500.0,469.39584,185.12701,0.8421722,471.72354,181.0592,0.8514484,464.85886,181.56839,0.700775,478.28165,173.08363,0.594983,460.26123,174.08725,0.21930471,491.92896,170.22858,0.9216624,455.01614,169.41634,0.8857007,497.07553,206.8164,0.8745402,449.8352,201.53734,0.7408709,493.5243,237.21858,0.77501565,443.5075,226.9203,0.64212495,486.63516,166.38937,0.7734978,460.63828,165.53755,0.7313224,496.3183,202.98747,0.45937115,448.22723,201.9127,0.38455003,500.26822,230.50958,0.17409332,445.02304,229.11177,0.14299883,0.64849703,-0.09801253,0.61288537,-0.18791876
76,2533.333333333333,467.6812,190.3438,0.69538474,471.521,186.65549,0.74250937,465.10083,185.79651,0.4953789,480.18378,181.26695,0.5490663,462.46933,178.83727,0.14201245,493.909,185.07835,0.86230606,454.12036,180.11055,0.7623904,504.2433,217.8676,0.8200611,444.7212,207.9721,0.5926208,498.95264,239.36307,0.6904802,445.34766,230.56525,0.48937643,483.27496,201.53946,0.547067,457.04132,198.53357,0.45947105,488.29114,224.35413,0.1304286,451.66174,220.97046,0.09267559,485.10526,240.0,0.03178075,452.94543,236.3389,0.02425037,0.65676927,0.35520331,0.25964723,0.4876062
77,2566.666666666667,30.844982,134.81587,0.1277443,29.377686,132.33395,0.04061977,32.578045,133.02846,0.07178128,25.619846,131.14111,0.18232234,40.005817,132.0953,0.3438795,23.870264,137.47385,0.8124967,44.60179,138.6424,0.94228053,11.542934,147.12042,0.75253886,60.919693,146.91258,0.9436243,7.4126053,147.96124,0.7147843,73.96726,145.85156,0.8953016,27.580448,176.2352,0.9702125,39.467064,176.55875,0.9837661,16.800377,203.31259,0.94048005,29.34353,203.57281,0.96793,14.449053,226.3577,0.85026807,28.054865,227.34442,0.899382,3.39973284,1.20096055,-3.07916559,0.79662816
78,2600.0,473.11404,206.08478,0.016544756,471.75827,201.16182,0.011850078,479.18204,200.69516,0.012764444,447.3834,203.99615,0.6512054,498.11462,205.98293,0.6882015,428.91415,228.08711,0.2844031,503.49338,237.02562,0.32670647,430.24878,222.9456,0.020063125,506.1745,240.0,0.028247442,461.71332,208.36182,0.008156595,498.1988,227.65439,0.008860147,435.27902,240.0,0.004459706,487.64087,240.0,0.0056625796,458.92657,222.01744,0.0018771663,508.72293,225.75003,0.0023286087,455.56265,236.958,0.0057532866,510.058,240.0,0.006767459,1.55690456,1.03981715,-0.52027704,1.03539553
79,2633.3333333333335,456.95084,200.48749,0.03460507,458.60184,197.3146,0.05752799,465.2227,195.87694,0.010599677,457.1991,202.0926,0.9214584,494.57397,200.11781,0.47163528,447.31635,221.37231,0.73677826,504.69556,222.93231,0.71486115,439.38757,216.43983,0.1995664,508.8448,225.86893,0.1454252,450.53323,206.07132,0.06414947,499.4241,225.60408,0.04765472,453.366,240.0,0.0588182,492.3278,240.0,0.065799296,453.32654,217.8809,0.0136511205,492.98297,218.2956,0.013115851,453.88202,229.05003,0.019081507,497.17456,228.53278,0.018783385,1.17141112,0.5573695,0.23262623,1.00370727
80,2666.6666666666665,458.6242,212.07098,0.026277266,458.7245,208.73335,0.035023954,465.85922,207.79393,0.009982972,453.51016,211.59148,0.8288426,491.7358,210.66971,0.4027106,446.82123,228.34564,0.4670689,506.8731,229.61456,0.54855865,440.89676,215.8695,0.10063375,511.03326,221.4696,0.13361068,446.3208,210.05156,0.04915297,499.53192,223.05862,0.05859651,460.29907,240.0,0.033391602,499.39322,240.0,0.04480957,459.7011,220.90805,0.009439419,496.62567,220.3826,0.010883539,463.52933,228.1466,0.01314034,498.0806,226.3181,0.014817122,0.62540784,0.15008936,-0.06116571,0.60404214
81,2700.0,446.08667,222.44322,0.6467862,449.71622,218.5155,0.7658596,445.94598,219.02866,0.34173343,466.48178,213.8631,0.5980782,454.4865,214.32834,0.08587503,487.61594,217.50519,0.53351754,457.84393,217.00485,0.41647637,499.11847,221.25421,0.42493415,457.04877,223.8136,0.22919127,497.85577,220.41907,0.44885615,458.40244,225.35672,0.30364344,493.5568,224.38376,0.14631468,473.59183,223.16466,0.13214132,487.79044,220.50067,0.047914132,468.69766,218.81696,0.03971462,485.85455,225.2551,0.031503685,476.10547,220.85423,0.02854837,2.37794927,0.45272455,-2.18919216,0.81062995
82,2733.3333333333335,39.660046,126.714325,0.07417224,36.962524,124.04561,0.017083757,41.176964,124.39314,0.058587905,25.977276,124.235214,0.08941835,44.54076,125.04944,0.3984099,19.787235,134.60709,0.6427332,46.47826,134.4255,0.9098403,6.9409103,152.32634,0.5542081,62.61844,143.75507,0.9254018,5.9759674,164.30806,0.5441754,78.96475,146.3309,0.86483586,22.85294,177.67422,0.91920453,37.992348,177.94754,0.9625089,18.254124,194.0647,0.85493994,30.09056,195.49881,0.93051857,12.466076,216.1612,0.7311569,20.630363,218.6253,0.8235175,2.12373388,0.47606086,-1.97277853,0.62590458
84,2800.0,48.062435,137.71326,0.010504841,45.094505,134.55534,0.0034389864,48.322906,135.56851,0.01046631,31.652525,129.63425,0.11881671,45.80509,132.62766,0.37475803,23.521587,135.1751,0.88480955,46.873672,138.00757,0.9528927,8.455753,149.3104,0.850116,58.819122,145.92976,0.9609547,8.056332,170.3923,0.7395908,68.59796,153.1556,0.8776702,23.550152,174.22823,0.9898707,37.666447,175.3113,0.99392563,19.083115,197.87764,0.95941097,29.578962,198.60405,0.9726461,17.039822,217.40976,0.871315,22.78553,219.84943,0.9014733,1.57540529,1.12481047,-0.77157233,0.78827622
85,2833.3333333333335,467.48087,231.7983,0.28063405,467.67252,230.62967,0.14844169,468.68268,230.48654,0.24955323,456.14142,230.47903,0.26975358,470.97336,230.93816,0.47617644,452.5091,228.92192,0.7469417,474.07587,232.3174,0.8340084,463.22403,213.8221,0.55904526,489.59888,219.24315,0.77308464,479.4037,206.09332,0.5914958,488.66348,213.15854,0.7362119,463.73358,219.3793,0.64693654,476.237,221.63214,0.7229006,479.2466,217.98259,0.35057977,483.75516,218.6072,0.4384994,496.98724,208.94945,0.25972724,495.22134,209.36668,0.31199822,1.35027314,0.79490864,-0.69296579,0.84330079
86,2866.6666666666665,456.43994,236.15831,0.22536346,455.134,234.60013,0.15024123,456.34964,234.66142,0.14996786,448.2222,232.3045,0.3954259,458.7182,232.06186,0.3764056,451.1045,229.93613,0.78957313,470.08533,229.82602,0.7939138,464.9947,225.24573,0.57623726,493.29294,222.91669,0.62819743,478.37637,220.22812,0.517992,494.87225,215.63824,0.55373466,475.771,222.80981,0.64137846,487.15207,223.48668,0.6637351,480.44894,219.35991,0.37802842,487.97385,218.9273,0.39685765,492.33463,213.69324,0.3339483,495.69907,212.0522,0.3446139,1.10466975,0.91208152,-0.49129088,0.38345253
87,2900.0,464.95374,215.38718,0.030374514,463.4037,214.27118,0.012028878,466.0698,213.97774,0.029123852,453.16446,216.18877,0.101492,468.41296,215.53006,0.31713498,450.13788,220.09125,0.6135765,472.89893,219.83325,0.7131042,458.73987,220.60262,0.44835404,488.20972,219.42567,0.7022925,474.84592,215.4546,0.37314197,495.556,214.92517,0.5618435,462.08902,224.15416,0.71768576,476.22464,224.63918,0.7708039,473.7882,224.03929,0.42876974,483.07404,223.55017,0.5180687,484.6693,219.88959,0.3454882,490.52048,218.95651,0.40476105,1.08828468,0.96514093,-0.48318458,-0.13928096
88,2933.333333333333,46.23699,133.75986,0.09515238,43.52116,130.72043,0.01901698,47.021194,131.1969,0.09542049,30.110762,128.7116,0.079613104,47.0848,130.05505,0.537931,20.551031,136.08147,0.62638974,46.854576,137.72908,0.92468953,5.8839703,150.9144,0.49009612,59.91146,147.1675,0.93052393,5.1398563,159.96011,0.47374824,69.96883,147.42668,0.8612121,19.465893,180.40796,0.89537346,34.63593,180.90518,0.9557904,14.115934,207.86615,0.78342134,25.961369,208.11859,0.90037996,7.3252106,228.4353,0.5929803,16.352898,228.32697,0.72463685,4.16567685,3.41815629,-2.05777185,1.19776716
89,2966.666666666667,495.55014,198.70427,0.5981822,495.08,196.61427,0.14820796,493.98938,196.62822,0.72441536,483.74915,198.44232,0.12847611,485.9148,199.44243,0.9312513,473.30554,208.73953,0.8752664,484.2223,210.22496,0.97437334,480.96613,217.63959,0.29867792,495.47906,218.29662,0.91275847,496.5347,210.36223,0.26244572,502.18713,212.41647,0.77462775,459.89648,228.61403,0.61811244,468.22174,229.12582,0.7974,460.9374,225.46004,0.21033287,478.0351,225.69054,0.42759055,455.6151,226.90067,0.13927011,478.22025,228.85754,0.25654384,1.85609247,1.50335009,-1.08231381,0.11668158
90,3000.0,497.09167,198.3212,0.52117234,495.8057,195.8454,0.09401057,495.18436,196.03886,0.7013638,479.80118,197.74884,0.12049792,485.45038,199.53532,0.95904696,467.71597,209.66295,0.853812,485.40753,212.4418,0.97646433,472.384,218.15184,0.19489655,498.4776,220.62154,0.9060421,490.26337,206.85602,0.16015255,502.49005,211.13725,0.72365505,458.19687,231.63655,0.51033556,471.39417,232.70288,0.7471333,459.6105,226.60062,0.14435239,482.83368,226.98016,0.35436857,453.97797,228.99606,0.10314077,483.947,231.24841,0.21393965,0.98184117,0.13535064,-0.17391697,0.95678899
91,3033.333333333333,50.004234,130.74852,0.05758867,47.897354,127.601105,0.013760772,50.261673,128.74077,0.06247642,34.176136,123.947525,0.15220116,45.714043,127.34416,0.63174456,23.740314,132.80118,0.93550116,43.508835,136.72078,0.9809435,6.3645935,145.89886,0.84952474,54.79283,143.8229,0.9757548,5.4789925,166.14359,0.76794904,68.49025,148.52435,0.92132795,20.39291,177.40605,0.98863333,31.824234,179.11977,0.99420846,16.178967,202.81508,0.94052434,26.561611,204.17392,0.9664441,14.412704,223.29987,0.81010866,21.178013,226.87695,0.8699984,1.17407969,-0.10243415,0.56940613,1.02163938
92,3066.666666666667,493.6914,196.80048,0.6523308,493.36926,195.44765,0.36675364,492.4632,194.77133,0.6180157,488.47748,197.78294,0.35766312,484.23053,195.97285,0.7346487,483.55814,207.56293,0.94308215,477.1217,205.70824,0.9483311,491.44437,216.6839,0.72241247,485.1912,215.16283,0.7778173,501.74448,213.66896,0.6141827,500.86426,211.22853,0.63376755,473.5195,226.09001,0.8207714,467.898,225.5715,0.81605864,469.25073,223.2456,0.51454407,460.6254,223.12813,0.50794965,472.19034,232.58775,0.35595155,459.95612,233.41672,0.35001817,0.40018575,0.32670843,-0.11373384,0.20118362
93,3100.0,493.84488,199.39986,0.37972394,492.77646,197.40999,0.08005207,492.99185,197.40742,0.48519287,478.67728,199.12227,0.1352794,486.36993,200.16364,0.88549984,468.23923,208.19217,0.8631068,484.7915,210.572,0.96124595,473.03143,214.99568,0.3636573,495.53622,218.0459,0.88625836,489.9336,207.01944,0.29452506,500.07666,212.95433,0.72208565,461.54968,227.07724,0.66320723,473.4264,228.15045,0.80103934,464.40552,227.95146,0.24294509,481.79916,228.37305,0.42213172,464.981,228.84482,0.15097328,486.86905,230.78456,0.24459378,1.65699169,0.54459594,-0.84698548,1.31592262
94,3133.3333333333335,493.90277,200.17535,0.25906304,492.34262,198.0093,0.04937491,492.87613,198.09174,0.3499249,475.51636,200.05205,0.14432509,486.3944,201.51163,0.88356113,463.74844,210.2244,0.84287405,486.29483,213.19348,0.94897115,466.12845,215.47662,0.3205368,497.60556,218.82892,0.8389701,483.38037,205.46953,0.23793328,498.10776,210.84904,0.62458885,460.0567,229.68982,0.5889331,476.05478,231.23401,0.7323504,469.31546,225.99733,0.18845648,490.5349,226.69836,0.3326242,469.46582,226.10045,0.12794511,495.39694,228.2288,0.20370491,1.93537976,0.77894169,-0.51339897,1.69569047
