frame_id,timestamp_ms,nose_x,nose_y,nose_conf,left_eye_x,left_eye_y,left_eye_conf,right_eye_x,right_eye_y,right_eye_conf,left_ear_x,left_ear_y,left_ear_conf,right_ear_x,right_ear_y,right_ear_conf,left_shoulder_x,left_shoulder_y,left_shoulder_conf,right_shoulder_x,right_shoulder_y,right_shoulder_conf,left_elbow_x,left_elbow_y,left_elbow_conf,right_elbow_x,right_elbow_y,right_elbow_conf,left_wrist_x,left_wrist_y,left_wrist_conf,right_wrist_x,right_wrist_y,right_wrist_conf,left_hip_x,left_hip_y,left_hip_conf,right_hip_x,right_hip_y,right_hip_conf,left_knee_x,left_knee_y,left_knee_conf,right_knee_x,right_knee_y,right_knee_conf,left_ankle_x,left_ankle_y,left_ankle_conf,right_ankle_x,right_ankle_y,right_ankle_conf,acc_x,acc_y,acc_z,acc_mag
0,0.0,560.73895,105.667465,0.9399922,564.70056,101.545944,0.95327747,559.4368,102.37799,0.574408,576.148,102.086525,0.9509539,563.44824,103.431305,0.18358651,586.57587,122.21802,0.99793965,570.7516,122.82298,0.956545,586.8698,152.9216,0.99566674,567.1893,150.34006,0.75612843,558.49976,164.94933,0.9889003,556.78625,162.11584,0.76521444,581.6012,169.62141,0.99556124,571.84906,166.17319,0.97913855,537.294,179.40778,0.98926616,531.1474,175.8818,0.9484373,543.41833,226.62689,0.9537369,542.62146,218.81563,0.8824181,1.02834962,-0.73497116,0.70745887,-0.12970079
1,33.333333333333336,559.55646,105.56408,0.9368563,563.54645,101.57919,0.9502269,558.4613,102.31311,0.5603862,575.2174,102.37863,0.9483746,562.5754,103.5267,0.174845,585.7515,122.51256,0.9978756,569.26263,122.96115,0.95536953,585.77734,152.89458,0.9956826,565.0892,150.19846,0.75897324,557.7502,165.02039,0.9890506,555.6456,162.3792,0.76900834,580.6996,169.37363,0.9956454,570.4815,165.9369,0.97959125,537.59,179.64114,0.9893154,530.9432,176.21364,0.9489573,543.2594,226.36063,0.95346785,541.95966,218.92131,0.8821029,1.01727738,-0.73472551,0.69247449,-0.12454224
2,66.66666666666667,558.59106,105.37819,0.935357,562.5926,101.52012,0.94830215,557.5785,102.14131,0.5574343,574.0569,102.572815,0.9467361,561.60547,103.456505,0.17590585,584.53204,122.748,0.9978549,567.7373,123.11421,0.95527405,585.14526,152.80536,0.99568546,563.72284,150.26497,0.76160645,557.1295,164.99075,0.9890331,554.3417,162.85759,0.7708928,579.3812,169.6721,0.995634,568.9758,166.3,0.97962004,537.7295,180.18498,0.9890104,530.74384,176.87595,0.94791627,543.53705,226.436,0.9517193,542.014,219.36136,0.8783817,1.03641726,-0.76665942,0.68682465,-0.1211032
3,100.0,556.2444,105.11653,0.93645775,560.2487,101.341415,0.9514379,555.375,101.9476,0.5471942,572.04443,102.63327,0.9516501,559.8006,103.48098,0.16446827,583.33453,122.798065,0.9980331,566.59607,123.27846,0.95330226,584.67456,152.48225,0.9960901,562.90936,150.23283,0.7486679,556.2802,164.95099,0.98987085,554.03955,163.72537,0.7622738,579.7999,169.61111,0.99573153,569.43866,166.26003,0.97887164,537.3272,179.96298,0.98903745,530.47894,176.71165,0.94493824,543.5715,226.35712,0.9507816,542.3126,219.22115,0.87195534,1.03396583,-0.71556517,0.73718196,-0.11668158
4,133.33333333333334,554.9603,105.69101,0.9451991,559.13257,101.94792,0.95944136,553.98206,102.45883,0.583919,571.11365,103.07563,0.95722264,558.1842,103.7113,0.17421386,581.9377,122.98062,0.99823254,565.6062,123.36882,0.95452076,583.74927,152.03922,0.99629444,562.8162,149.87155,0.74056077,556.27234,164.75307,0.9901708,554.04706,164.00455,0.7549302,579.0202,169.56961,0.99577373,568.885,166.26534,0.9782969,537.2183,179.96375,0.989087,530.4093,176.84196,0.9433231,543.61554,226.0326,0.9511578,542.46545,219.13248,0.8702439,1.00871266,-0.73054954,0.68878981,-0.0967843
5,166.66666666666666,553.12537,106.02989,0.94174504,557.2582,102.21375,0.95706916,551.99805,102.80957,0.57500607,569.032,103.03085,0.95489573,556.02966,103.79994,0.17130469,580.4018,122.543884,0.99796474,564.09174,123.32651,0.94976074,583.4285,151.46036,0.995795,562.7892,149.87543,0.7253543,556.5122,164.8911,0.98909086,554.108,164.82024,0.7422499,579.61475,169.79785,0.9947667,569.5245,166.80661,0.97382283,537.06146,179.38535,0.98635614,530.4528,176.81097,0.9311294,544.5906,225.44592,0.94057345,544.0147,219.22385,0.84641665,1.01224167,-0.73349728,0.69222885,-0.08622155
6,200.0,551.1667,107.213974,0.93570226,554.9781,103.31447,0.9503986,549.9513,104.11616,0.5520548,566.4623,103.46188,0.95075655,554.1338,104.75278,0.17077857,579.0567,122.055145,0.99794,562.55707,123.42166,0.95346826,583.2616,150.8751,0.99589074,561.73816,149.8252,0.7555551,555.955,165.09113,0.98939216,552.7501,164.755,0.7669984,579.5241,169.49881,0.9954774,569.328,166.78944,0.978458,537.6637,179.6278,0.9881274,530.85535,177.38809,0.94284344,545.052,225.02173,0.9477169,544.14526,219.12975,0.8678372,1.02956498,-0.69640482,0.75265763,-0.09236269
7,233.33333333333334,549.41876,110.184555,0.89627624,552.5595,106.23375,0.9204556,548.5907,107.12184,0.40797758,563.58276,104.99871,0.93795425,553.98535,106.48505,0.12724167,577.9349,121.54961,0.9975114,562.45856,123.0502,0.94102305,582.6465,150.61435,0.99595475,562.3614,150.0546,0.7427247,555.09796,165.55554,0.9895509,552.70386,165.35597,0.7598639,579.778,170.07773,0.9958105,570.2608,167.33966,0.9794996,538.0344,179.6966,0.9893176,531.3185,176.79863,0.94720215,545.75415,225.28275,0.95340586,544.3935,218.11331,0.87997276,1.05171998,-0.7108979,0.77378313,-0.04470747
8,266.6666666666667,547.82007,112.579506,0.8880429,550.5924,108.466545,0.90854913,546.69037,109.52208,0.40210858,561.0913,106.09055,0.9285424,551.9604,108.029274,0.13458475,576.89886,121.56082,0.99708253,561.27594,123.46588,0.9444493,582.38043,151.2173,0.9953172,561.48047,150.9689,0.77102095,553.64575,165.85753,0.9884066,549.9417,166.5777,0.7827314,581.6662,170.5051,0.995453,572.0556,167.99527,0.9802735,539.8545,180.1779,0.9883796,532.7243,177.61406,0.9489568,546.93713,225.2384,0.950139,545.00214,218.7273,0.88103616,1.06576031,-0.70303725,0.79982155,-0.0432336
9,300.0,546.1685,112.05687,0.8780938,548.6396,107.93234,0.8954759,544.72766,109.116486,0.39412335,558.11694,105.95619,0.9199463,549.5069,108.10457,0.14493442,574.4095,121.704956,0.996783,559.2902,123.67183,0.9462149,581.5379,150.76913,0.99481446,560.4858,150.38574,0.78336036,553.50366,165.92673,0.9872289,548.6236,167.014,0.78979933,581.62256,170.44183,0.99522674,572.4328,168.14326,0.98066956,539.2254,180.92883,0.9876573,533.0249,178.41904,0.9491597,547.91833,225.81755,0.9474696,546.6641,219.00778,0.8797679,1.09417066,-0.71040661,0.83028159,-0.05625281
10,333.3333333333333,543.8026,113.357376,0.86359173,545.85504,109.17417,0.8876105,542.42065,110.50096,0.35583517,554.8152,106.362885,0.91995543,547.8642,108.80322,0.13378413,571.8394,120.836334,0.99669147,558.56213,123.31247,0.9379106,581.25366,149.0709,0.99495524,560.5242,149.43068,0.7594263,553.8529,166.01205,0.98725593,547.25745,167.00974,0.7712769,580.4183,170.62376,0.9948768,572.5815,168.71262,0.9780588,538.6347,181.78651,0.986225,533.8012,180.25838,0.9405263,547.91846,226.3671,0.9402126,546.98535,220.50775,0.8600294,1.19897028,-0.80940172,0.87769116,-0.10980351
11,366.66666666666663,541.33844,114.65501,0.84088415,543.0779,110.4917,0.86932635,540.2384,111.989716,0.3045228,551.82733,107.565155,0.9139993,546.1619,110.431984,0.113115504,569.5885,121.28963,0.99667835,556.65173,124.58893,0.9318284,579.28503,149.39102,0.9954705,557.33154,150.88728,0.7561747,552.08405,167.46104,0.9885366,545.66724,168.59605,0.77410406,579.7904,170.37465,0.99547285,572.23785,169.10051,0.9796836,538.1612,181.6541,0.9879459,534.6691,181.74258,0.94537765,547.6371,226.69678,0.9459579,547.27875,222.76105,0.8688381,1.20775649,-0.80571704,0.89046472,-0.12871821
12,400.0,539.0708,114.87523,0.8747193,541.02747,110.80553,0.9002323,537.7784,112.28728,0.36594722,550.0691,107.70931,0.92865425,543.1901,110.57283,0.1289024,567.4493,121.085205,0.99740183,554.32697,124.50867,0.9410741,578.1686,148.9741,0.99604565,555.74963,150.40315,0.76267105,551.9089,168.31422,0.9895091,545.5727,169.12099,0.7773496,579.0019,168.68132,0.99638367,571.349,167.75972,0.9830445,538.89136,182.47684,0.99070626,536.0294,183.46463,0.9560587,549.1655,226.66736,0.9580981,549.952,224.05025,0.8943736,1.24066271,-0.82831642,0.88825391,-0.25326045
13,433.33333333333337,536.69965,116.45465,0.87263185,538.51605,112.415924,0.9058508,535.4172,113.9078,0.35530838,547.43713,108.87167,0.93422157,541.14014,111.737366,0.12209663,564.75134,121.362076,0.99747866,553.30615,125.015686,0.9326486,576.33276,148.59216,0.9961378,555.85913,150.82373,0.7244211,552.3761,168.5963,0.98927444,545.6375,169.77481,0.74443525,577.97516,168.59146,0.99633455,571.4195,167.93301,0.9813441,538.24945,182.23625,0.99101347,536.12036,183.56601,0.9540136,549.46277,225.85204,0.9610031,550.33105,223.33911,0.8963638,1.1578733,-0.69026369,0.92510073,-0.09162575
14,466.6666666666667,534.6944,117.18622,0.8951691,536.7551,112.63902,0.91376114,533.43005,114.54017,0.448961,546.22833,108.46125,0.9279152,539.15857,112.232834,0.17533293,564.0164,119.92835,0.99603856,550.9447,125.88573,0.9470323,575.9226,146.2962,0.9920476,553.8858,152.06302,0.7550547,550.5741,167.66975,0.9819063,545.70184,171.04575,0.7655555,577.58325,166.85109,0.9937018,569.5917,167.19916,0.9767964,538.76807,182.05649,0.98780406,534.8891,185.0478,0.95505196,550.38715,223.37962,0.9555001,550.963,223.10689,0.9059322,1.02590717,-0.55343918,0.8617242,-0.06018313
15,500.0,534.5021,118.96059,0.87525594,536.13696,114.4017,0.89589196,532.8853,116.39076,0.40614694,544.3346,109.059,0.9167587,537.89,113.06177,0.16625668,562.01685,118.96584,0.9957487,549.90826,124.953125,0.9417257,574.3429,145.39606,0.99212587,553.78357,150.97382,0.7485891,549.1715,167.412,0.9819226,545.2816,171.33095,0.7617037,577.1356,165.9937,0.9944246,569.8413,166.5884,0.9790856,537.6731,181.0761,0.9900343,534.9786,184.67007,0.96239024,550.0262,222.79733,0.96512455,551.22546,223.14874,0.9244563,0.86051859,-0.43307291,0.73841019,0.08769542
16,533.3333333333334,533.52484,119.00589,0.85930127,535.00024,114.593185,0.8776325,531.80475,116.542755,0.37606287,542.71814,109.42303,0.9060662,536.0651,113.547424,0.15663078,560.9394,119.06969,0.9957769,546.69806,125.312225,0.9414658,573.06476,145.0517,0.992669,550.4177,151.4331,0.7606534,547.6413,167.18105,0.98304164,544.04456,172.07603,0.7718895,575.5531,165.18283,0.9951133,567.0986,165.81207,0.9814824,537.2838,181.8111,0.9909552,535.22437,184.34943,0.96549815,548.7692,222.60388,0.96752596,552.1393,221.03268,0.92904896,0.81259964,-0.25154093,0.76813329,0.08376509
17,566.6666666666666,532.3594,119.79458,0.8391613,533.57654,115.39916,0.8538086,530.7194,117.490265,0.339698,540.966,109.860085,0.8924826,535.09503,114.287735,0.14643392,559.5877,118.46652,0.9954482,545.8616,125.37642,0.942035,571.63074,144.43646,0.99277824,549.6744,152.01176,0.7824824,547.03503,166.43985,0.98372966,544.2208,172.14885,0.7929517,576.2566,164.34787,0.9957088,567.9133,165.47142,0.98440635,537.3265,181.61783,0.9922333,534.80853,185.36021,0.9714338,549.4774,222.75763,0.97173375,551.16846,222.79437,0.939408,0.79910561,-0.21002685,0.76297474,0.11103174
18,600.0,530.1594,119.97462,0.8294532,531.1272,115.59676,0.8580814,528.6621,117.66369,0.30052295,538.4883,109.37023,0.9058598,534.04785,113.79782,0.12866256,557.403,117.10633,0.99605584,545.69995,124.45447,0.9332312,570.1183,141.89648,0.99400276,550.00507,151.25403,0.7439523,546.8362,164.69044,0.9854835,542.9795,171.97287,0.7630072,574.78125,164.44807,0.995905,568.1591,165.77496,0.982786,536.2812,182.61838,0.9922999,536.491,186.19122,0.9674508,548.38525,223.40257,0.97084886,553.00616,222.50562,0.9319499,0.8580789,-0.33334086,0.76248344,0.20928991
19,633.3333333333333,529.5405,120.37773,0.84703845,530.5929,115.87919,0.8761503,527.8983,118.12004,0.32863232,537.9482,109.20887,0.913321,533.04553,113.97112,0.13554363,556.07117,116.8354,0.99633044,544.6946,124.47392,0.93334657,568.47437,142.82248,0.9943077,548.65594,151.66241,0.7335611,543.44556,166.37674,0.98592746,539.0548,171.7825,0.7550412,572.4139,164.4606,0.99582976,565.86145,166.06862,0.98181754,535.2008,182.97488,0.99195355,534.0563,187.63481,0.9647127,549.7968,223.49982,0.96918017,551.56726,224.13055,0.92621285,0.99386588,-0.4443726,0.84526596,0.27536854
20,666.6666666666666,529.2398,120.217865,0.8270569,530.2016,115.79271,0.8503519,527.7482,118.04362,0.3049105,537.21295,109.27203,0.89598167,532.6643,114.04043,0.1304717,555.2802,116.70859,0.9958568,543.03375,124.6376,0.93351376,567.74615,142.04549,0.9940743,545.7316,151.57347,0.75638825,543.256,164.74861,0.9859169,536.0885,171.12605,0.7761477,571.26953,164.06055,0.9959621,564.1391,165.96445,0.98339766,534.9405,183.26392,0.9919666,532.96545,188.79472,0.966764,549.62415,222.56082,0.9686025,549.97864,224.72472,0.9272998,1.02910975,-0.47335876,0.87597164,0.26013852
21,700.0,528.58624,119.0169,0.83691967,529.679,114.56456,0.854103,527.05566,116.88614,0.33464602,536.7815,108.65608,0.89110947,531.61865,113.59486,0.14129637,554.8691,116.861145,0.9954542,541.32306,125.22974,0.9360311,567.88074,141.80838,0.9931988,542.6196,152.07913,0.7642104,543.5224,163.87279,0.98434585,532.8021,171.02098,0.78049934,570.4212,163.51215,0.99534625,562.5464,165.68259,0.9821321,534.84546,183.68443,0.9904946,532.4972,189.8609,0.9633114,549.4074,222.54623,0.9628144,549.4548,225.77678,0.91770816,0.99187726,-0.4416705,0.84231821,0.28150967
22,733.3333333333333,527.85944,118.39593,0.8533811,529.1032,114.04632,0.870128,526.4135,116.251175,0.36760202,536.34564,108.508316,0.89880544,531.0432,113.17388,0.15281521,553.9493,117.30061,0.99563366,540.4559,125.427246,0.9385205,566.63165,142.04416,0.9929946,541.2574,151.83704,0.76000714,543.0315,164.8896,0.9836036,532.1606,170.71573,0.77378464,569.21356,163.71674,0.99491394,561.6217,165.91432,0.9805068,534.477,185.00195,0.98910236,533.7423,191.21434,0.95821476,548.5194,222.63354,0.9568759,551.0293,225.93869,0.9053214,0.9028812,-0.50062541,0.69124627,0.29452888
23,766.6666666666667,528.0337,119.23836,0.8709127,529.2376,114.86,0.87766767,526.4007,117.13577,0.41613188,536.2249,108.804855,0.89624506,530.69995,113.686226,0.17986196,553.6229,117.134445,0.9958835,539.6269,125.524475,0.95054334,566.8901,141.32413,0.9929905,538.6891,151.34908,0.7990907,544.48315,162.7603,0.9836897,526.62854,167.88039,0.80432373,568.0871,163.79837,0.99546695,560.3768,166.19185,0.9839967,534.9915,185.49646,0.99011505,534.1325,192.04626,0.96519,548.4212,221.91559,0.96052337,550.77026,225.9124,0.91753966,0.87366538,-0.46623504,0.67920964,0.2908442
24,800.0,527.6492,118.659485,0.85956585,528.7265,114.33525,0.866058,526.17554,116.575066,0.39197585,535.46515,108.40634,0.8914726,530.9453,113.11578,0.17598522,552.9515,116.81101,0.99578345,539.75146,125.006424,0.9496083,568.09656,139.68587,0.9928752,537.65784,149.72775,0.79730475,548.06323,159.47925,0.9832395,524.23956,165.31937,0.8015974,567.50146,163.91327,0.9955355,560.82196,166.40146,0.98427063,534.1355,185.6611,0.9902042,536.01324,192.84537,0.9657926,546.82385,220.63727,0.960687,552.6422,225.7263,0.9181986,0.84940293,-0.3773114,0.73030389,0.21395718
25,833.3333333333334,527.11163,117.51994,0.856716,528.2164,113.27929,0.8478007,525.6371,115.53409,0.40114516,534.7505,107.9393,0.87162745,530.01086,112.68357,0.19064826,551.49255,116.15254,0.9954358,538.2302,125.308304,0.9579875,566.8391,136.14047,0.9924615,534.55676,149.12035,0.84053415,551.2985,155.44362,0.9830762,519.70544,163.80444,0.8387399,566.7954,163.39746,0.9960175,560.0669,166.5185,0.98766357,534.386,184.64897,0.99130344,536.05414,192.70685,0.97322106,546.371,220.163,0.96481895,552.0265,226.54391,0.9320156,0.76528399,-0.35692282,0.6600493,0.15033501
26,866.6666666666667,528.0201,115.4294,0.8197932,529.1496,111.786736,0.8305139,526.24347,113.46938,0.35423356,535.90796,108.23453,0.7716444,527.8253,112.69304,0.07187321,552.63556,116.33946,0.9867986,532.833,123.82912,0.9696488,566.257,133.02937,0.9894009,532.847,146.4956,0.9132119,551.811,145.9967,0.9855251,517.1847,161.57712,0.92384595,567.617,160.30212,0.99454194,554.80505,163.02977,0.9916044,536.6536,183.14975,0.98796487,532.6466,185.68784,0.97285956,545.8911,219.37721,0.95481455,546.2172,221.83772,0.919172,0.71896379,-0.39524351,0.57702114,0.16654761
27,900.0,526.86316,115.39331,0.77943563,527.60223,111.721725,0.8154043,525.71185,113.54652,0.26094604,534.98956,107.82826,0.7658988,528.7983,112.56452,0.04370721,552.847,115.269684,0.98356897,533.7808,123.27461,0.9520455,567.71155,129.02437,0.99098843,529.3112,144.50368,0.877657,551.0097,136.95985,0.98844284,510.21906,156.1655,0.9078294,568.9481,161.74243,0.99378467,555.84595,164.63133,0.98859733,538.4639,181.25615,0.9872185,531.5134,184.17981,0.9645787,547.0963,218.47443,0.95478356,540.41705,221.31572,0.90758973,0.72678221,-0.52199656,0.49939718,0.07958912
28,933.3333333333334,527.0137,115.0202,0.78549194,527.98706,111.28055,0.82264286,525.59985,113.30124,0.28731415,535.59564,107.46626,0.7563334,527.9233,112.761406,0.045697533,553.00214,113.98758,0.98141277,531.3971,123.37363,0.9497139,566.11145,124.26726,0.9901574,522.26746,143.40456,0.8813378,549.5313,124.910065,0.9877265,504.62048,151.82893,0.9096033,568.923,160.6171,0.9925659,554.2454,164.12834,0.986765,538.67267,179.7085,0.9841868,530.03125,183.15663,0.9571832,544.6255,218.22311,0.94202536,537.9393,221.73082,0.88443977,0.88630869,-0.73693632,0.47778038,0.11913804
29,966.6666666666666,528.05566,114.15221,0.7856419,528.7706,110.57689,0.8200883,526.4412,112.49608,0.29650426,535.28143,106.940216,0.7596531,528.24335,112.062965,0.04912228,551.68427,113.16217,0.98141426,532.7283,122.16846,0.94966894,564.71655,118.83656,0.9899983,523.89154,137.57745,0.88011295,546.4351,118.15759,0.987856,501.48163,146.69754,0.910708,565.8096,158.60011,0.99346185,553.08167,161.8353,0.98822683,537.16656,181.2623,0.9869034,531.6717,184.39798,0.96418667,542.30725,216.65836,0.95071304,538.3734,219.896,0.9001703,1.000611,-0.78287202,0.597901,0.17563649
30,1000.0,529.2691,113.141335,0.8689846,530.1681,109.748856,0.8751996,527.3722,111.54149,0.48968154,535.9348,107.30175,0.77880186,528.15985,112.02993,0.10323295,551.9215,114.901855,0.9879546,530.8008,123.00142,0.9787459,565.14276,119.66397,0.9905997,517.92334,136.04056,0.9425488,547.3763,113.922455,0.98834527,495.20444,140.52853,0.949244,564.4259,159.13493,0.9951427,550.8309,161.97536,0.99314225,536.61816,180.75668,0.988557,531.94714,183.39578,0.97537327,539.4737,217.42052,0.9543757,540.03644,220.18825,0.92128605,1.10740359,-0.82856207,0.73472551,-0.00245645
31,1033.3333333333335,527.7839,111.87732,0.9106546,529.7975,108.15932,0.8624574,526.1224,109.985085,0.63502085,536.6915,106.1346,0.82418114,528.5053,110.23087,0.34225842,549.9712,116.11565,0.99400616,532.2663,123.690094,0.98074543,562.6071,120.778625,0.9869667,516.60583,134.27557,0.92960453,547.1793,115.21573,0.9755745,496.23978,132.7333,0.9156058,557.31714,158.50732,0.99592364,548.03265,160.52956,0.9926185,531.5608,179.96869,0.991617,533.21326,185.3138,0.98489434,537.989,216.60364,0.96778274,545.93353,222.20822,0.9551976,1.10337511,-0.87056744,0.67749012,-0.02358196
32,1066.6666666666667,528.7806,112.34003,0.9291667,531.13446,108.59923,0.8848286,526.86957,110.36892,0.7142512,538.29865,106.76819,0.82641333,528.4832,110.75193,0.40124017,550.3271,117.59873,0.9936976,531.5197,124.56177,0.9829481,562.359,122.42786,0.98447466,515.3885,134.3646,0.9339451,547.5876,115.033295,0.97185826,494.8961,131.01776,0.9182616,554.87317,159.34149,0.9950701,544.86426,161.12604,0.99179465,531.1873,179.71321,0.98980546,531.93506,184.72195,0.98317635,536.8518,216.04532,0.96230745,544.2927,221.74219,0.950336,0.83715505,-0.76051828,0.34586878,0.05305941
33,1100.0,528.828,113.26233,0.93258536,531.2729,109.602875,0.8911803,526.9117,111.23222,0.7265813,538.6546,107.93866,0.83277,528.48895,111.580864,0.4112146,550.0712,119.34801,0.9941837,531.197,124.7334,0.9833376,562.921,126.71152,0.9852423,514.8848,134.57224,0.9340337,548.5107,118.70581,0.9727621,494.9009,130.85649,0.917845,552.0458,159.39026,0.9954514,541.94476,160.62607,0.99221236,531.04535,180.31845,0.99045676,531.29144,185.22546,0.9840088,535.6141,215.77467,0.96431845,541.79395,221.96017,0.95243007,0.58256182,-0.41219305,0.35274685,0.21223766
34,1133.3333333333333,526.82355,113.199974,0.93318146,529.4197,109.528,0.89984995,525.2241,111.09601,0.711987,537.8767,108.98695,0.8531332,527.88367,112.572815,0.37573922,550.34607,122.68707,0.9946484,530.2168,127.15239,0.98115575,562.87476,131.57965,0.98643726,512.7328,136.57216,0.9228216,546.8862,122.53572,0.9744888,493.3778,131.42642,0.9074303,550.18884,163.25572,0.99502265,539.3317,163.87984,0.9906093,531.4704,181.91064,0.98881966,530.39526,185.52484,0.9795236,535.3389,216.97385,0.95705914,539.7433,221.44463,0.9397055,0.48579738,-0.2827379,0.35348379,0.17637343
35,1166.6666666666667,527.42377,113.517075,0.9454353,530.13525,109.96491,0.90074176,525.2448,111.53162,0.7962436,537.74036,110.171616,0.8237006,526.3095,113.712204,0.50104535,548.312,125.08096,0.99361914,527.4854,129.53656,0.9874281,558.2061,136.20798,0.9808219,510.48218,140.5262,0.9481979,547.70856,130.99922,0.96566194,491.82498,134.94576,0.9285638,548.12805,166.20392,0.99452955,536.5775,167.16835,0.99222296,531.4694,185.00128,0.9874396,528.5227,187.98535,0.98254895,535.37415,219.21158,0.9545871,537.8707,222.55899,0.94634765,0.6548232,-0.27315773,0.34120152,0.4876062
36,1200.0,529.0739,116.4393,0.9478445,531.94934,113.18961,0.9569264,526.36206,113.90973,0.80036885,538.53064,113.588585,0.8935099,523.8564,115.610596,0.26540244,547.436,126.90637,0.9908165,523.9415,129.50177,0.97692716,555.49,141.32445,0.9766481,513.9192,144.3295,0.828264,545.9872,138.28036,0.96252185,510.85184,141.42813,0.8211228,548.2624,164.22185,0.9891668,533.36395,164.82465,0.9816758,533.877,185.73248,0.9837329,523.41144,186.12581,0.9630683,534.3223,219.91727,0.9608779,529.5033,219.9153,0.9281027,1.73032958,-1.50899994,0.56891484,0.62713281
37,1233.3333333333335,526.22687,118.71413,0.94009715,528.66864,115.50692,0.94144446,523.92596,116.533,0.78089947,535.04126,116.10547,0.8610004,522.2725,119.011475,0.29152584,546.33234,129.80351,0.9933217,521.24365,133.41913,0.98845994,555.8863,147.65714,0.9861579,511.36285,150.04823,0.93836945,542.6191,145.81018,0.97709423,504.58554,144.2909,0.9254167,547.4162,167.80197,0.9932829,531.3701,168.91446,0.9909026,532.54877,188.93384,0.98206294,520.7428,190.0683,0.9675698,533.2071,220.14334,0.93795216,527.3825,221.34018,0.9047148,2.14537656,-1.89171553,0.41784289,0.92166169
38,1266.6666666666665,526.29126,121.231415,0.94281536,529.02856,118.16111,0.95467967,523.4318,118.86798,0.78566295,534.74963,118.97307,0.898036,520.2286,121.11153,0.25136325,543.5264,132.71849,0.9892586,520.31854,135.77068,0.9678189,550.7901,149.6178,0.9730891,512.7799,153.83266,0.7677992,539.42615,152.078,0.95434016,509.01938,158.14665,0.75991064,544.395,168.38531,0.98272264,529.7622,169.17415,0.9678303,530.12024,188.05865,0.9719115,520.05426,188.53336,0.9318239,532.62537,220.37697,0.93780494,529.1943,220.48534,0.8808999,1.35363334,-1.07789219,0.21715057,0.78950444
39,1300.0,524.16974,123.899216,0.9516337,526.81744,120.81894,0.94804037,521.1733,121.516525,0.83901596,532.30817,121.01196,0.8690196,517.7648,123.22633,0.3898174,541.3891,133.64946,0.9918325,518.0117,137.95822,0.98681253,545.91516,152.05286,0.97160316,514.69135,161.54282,0.8960832,531.6842,155.8286,0.95236087,505.3229,175.02084,0.86528933,543.0064,169.23302,0.9871127,528.0916,170.35745,0.98303,527.352,188.6535,0.9723274,514.7611,189.25526,0.9522692,532.71387,222.75856,0.92755264,525.5522,223.16559,0.8915439,0.92884323,-0.79048702,0.08376509,0.48048248
40,1333.3333333333333,521.5703,128.28133,0.96393096,523.9379,124.82587,0.9589984,518.0591,126.044785,0.861602,528.6417,124.73505,0.8867576,513.9384,128.40312,0.43021142,536.5991,137.55894,0.9950223,516.3169,144.05472,0.99129045,542.74524,154.02118,0.9840672,516.6142,165.63962,0.92094076,520.8545,159.51875,0.97453314,504.72772,175.87679,0.90630853,540.68774,175.55858,0.9915352,527.2661,178.13306,0.9880344,528.9809,192.98506,0.97690535,520.97675,195.33018,0.9566914,534.99725,219.51534,0.9329339,532.8595,222.23428,0.8947166,0.24182855,0.24073253,0.02112551,0.00908888
41,1366.6666666666667,515.98553,132.0078,0.8739502,517.96265,129.04492,0.88921356,513.9483,129.69438,0.55641854,523.3691,128.54343,0.8450997,512.2453,130.65845,0.15583532,532.6206,140.23428,0.986661,514.96735,144.11475,0.95702136,535.6379,157.97716,0.9761973,514.6984,166.3454,0.75864315,517.91925,164.92299,0.96121943,504.8276,180.78766,0.76646656,537.35864,177.4344,0.98573154,525.6616,178.58502,0.97175366,526.55804,190.83813,0.97541,517.2365,191.58394,0.9372266,534.15485,217.64854,0.9454821,527.1585,217.6673,0.89220524,2.80207114,0.66913818,0.35176427,2.69816951
42,1400.0,508.1907,138.90851,0.86464787,510.39532,135.85748,0.903729,506.72687,136.41818,0.4483279,518.2229,135.06729,0.89232326,507.51947,136.74738,0.09005698,529.9473,146.37633,0.98591715,513.5339,148.31389,0.936723,530.5899,166.5032,0.97305524,512.8637,170.05049,0.6127136,514.20013,173.5348,0.95415115,507.06415,181.6557,0.65185696,538.4895,180.73216,0.9833747,526.8849,180.59155,0.9615669,524.7363,183.25826,0.98223627,510.3775,182.50778,0.9451251,531.71014,216.3965,0.9727797,516.48224,213.91194,0.93660665,1.43154329,-0.12699869,1.39944207,0.27340337
43,1433.3333333333333,503.8884,145.60493,0.8216673,505.47815,142.65013,0.8717696,502.98578,143.13058,0.34967825,512.03314,141.48207,0.9028436,506.28964,142.34906,0.101998985,521.9359,152.5921,0.9881179,513.71747,152.96596,0.9444054,520.65356,174.76657,0.96869713,513.747,174.39688,0.55691886,505.27454,187.38396,0.9323085,507.03333,186.35757,0.54772764,536.5206,184.35843,0.9812108,530.8229,184.15561,0.95721716,523.82733,186.94174,0.9758789,519.20416,186.39522,0.9276373,531.9698,217.13376,0.95939565,529.0635,214.70596,0.9084664,1.00793356,-0.22992413,0.56621274,0.80154107
44,1466.6666666666665,498.97784,152.73358,0.7890031,500.3566,149.8586,0.853591,498.45892,150.26897,0.28666475,506.7881,148.20616,0.90332526,502.89743,148.72813,0.0817324,517.11017,157.37132,0.98937094,510.57367,157.29172,0.94609743,518.6585,178.72519,0.97974783,510.26712,177.53433,0.62527466,505.70773,198.09125,0.9526705,502.7904,196.40756,0.6118398,534.87585,184.52275,0.9883322,530.3274,184.3717,0.97217673,523.9456,203.47737,0.9785513,520.99005,202.94644,0.9322109,537.15906,224.55925,0.9508724,535.7258,222.05792,0.88674915,1.2166157,-0.84845935,0.42251016,0.76272909
45,1500.0,497.04437,157.84021,0.6570028,497.7008,155.05557,0.73010856,496.88538,155.42694,0.17644793,502.81842,153.53194,0.85523075,503.61368,153.47144,0.07969345,513.6745,161.64626,0.9831072,512.25977,160.91441,0.93311906,516.75604,183.2995,0.9717159,512.39703,182.23997,0.64712644,506.0852,202.28064,0.93388623,505.27267,201.11989,0.6121395,537.53284,185.3096,0.980896,536.0653,184.97519,0.9611441,520.2835,200.85858,0.9604984,519.5318,200.17107,0.8948908,533.05743,220.03293,0.9076643,532.86926,217.30278,0.8178976,0.93222787,-0.53870045,0.35888799,0.6708577
46,1533.3333333333335,493.446,164.86694,0.7098631,494.46295,161.88945,0.7810658,492.90723,162.39551,0.19434758,500.17413,159.697,0.8715948,499.26028,160.25641,0.06970562,509.28195,166.23123,0.9858709,509.80176,167.09874,0.92761666,515.10205,186.95544,0.98437655,514.20386,188.43042,0.6645387,506.33762,206.45059,0.9690801,507.15527,206.42488,0.6922844,536.0597,191.89127,0.98770344,535.7447,192.66946,0.96967053,521.044,209.72676,0.9787265,521.3568,209.77231,0.9304205,549.561,232.59634,0.9509316,547.9547,230.66995,0.88488704,1.11016966,0.05797232,-0.62344813,0.91674878
47,1566.6666666666667,488.7242,171.7407,0.75650024,489.67755,168.75954,0.7767116,488.85233,169.1326,0.24277449,496.0622,165.65881,0.8426385,496.4253,165.77753,0.10046926,506.7556,171.42699,0.98819655,506.80975,171.93646,0.96270967,514.5425,190.64153,0.980057,513.0779,192.37585,0.7880138,508.91434,206.44386,0.96369785,508.79898,206.93674,0.7906136,535.77545,195.36159,0.9919573,535.5468,196.08691,0.9855343,518.21606,210.16385,0.9885385,520.0382,210.17169,0.97210926,547.5384,230.04869,0.9756173,548.47235,227.81406,0.9526531,8.23453508,-0.72735615,-1.76029522,8.01123472
48,1600.0,490.87112,178.8181,0.81430185,491.88138,175.92926,0.8469385,490.12915,176.45262,0.33009973,497.78555,172.81274,0.86781853,496.2675,173.29288,0.11288834,507.70264,177.40222,0.9887195,506.71997,178.04633,0.954,518.15656,194.16544,0.98240155,512.2801,195.46002,0.74275047,523.1064,213.97647,0.9668783,510.51767,210.09738,0.7580795,536.32385,198.8534,0.9886441,535.8057,199.77895,0.9762872,521.9323,212.57123,0.98008144,523.3145,212.6599,0.94643444,548.6843,231.42868,0.9583949,549.9236,229.39258,0.91472566,3.87341464,-3.23686996,0.96808868,1.89441763
49,1633.3333333333333,489.79004,180.87439,0.8714405,490.8853,177.92622,0.8747403,488.4463,178.82816,0.49766976,496.4294,175.03409,0.8515329,492.77646,176.72562,0.1979208,505.52432,179.3438,0.98883355,503.63596,182.22015,0.96896946,515.28046,193.18451,0.9744641,510.12,197.48207,0.79957235,514.18713,211.68059,0.9558834,506.57367,209.96864,0.79941505,534.9039,198.05138,0.9875601,533.28186,200.21095,0.97904646,523.34454,212.22066,0.9774829,523.6867,213.5976,0.9522006,549.9419,226.04077,0.95729786,549.0057,225.83502,0.9258975,3.3257436,-3.22041171,-0.07909783,0.8265969
50,1666.6666666666667,49.769848,137.5818,0.20413521,47.590652,134.3541,0.043164454,50.17611,134.9985,0.22075965,33.740723,130.15546,0.122463964,48.02314,131.97908,0.6951758,21.607658,134.54105,0.75249475,47.323563,138.36093,0.95697975,6.130848,147.57478,0.5615823,66.34639,146.07863,0.9484609,5.3536453,164.88234,0.52772665,83.01199,147.64569,0.8846359,16.926926,177.67618,0.9235886,31.188429,179.05226,0.9677472,12.9311905,206.44495,0.8328331,22.51424,207.2661,0.92418987,9.247837,227.21492,0.6679874,16.133308,226.76787,0.7813162,2.00829329,0.51094251,-1.92414073,0.26431449
51,1700.0,492.51123,186.3021,0.7444695,492.8099,183.87926,0.70574534,491.75726,184.57509,0.36705163,496.3163,181.05632,0.68087006,494.94412,182.16666,0.19934563,505.44458,183.94844,0.97419536,501.51852,186.41971,0.94521743,515.9595,196.68164,0.9399356,506.2679,201.34143,0.73495007,513.9909,211.6339,0.90854937,506.76788,211.74146,0.73179185,531.51733,195.66878,0.97441125,528.9882,197.93808,0.9619768,523.6339,200.1839,0.9603389,524.5274,201.98877,0.9296474,543.0411,209.59418,0.94447595,545.4487,210.10973,0.91570073,0.3550593,-0.01375614,0.26873611,-0.23164365
52,1733.3333333333335,495.15155,188.54762,0.8927521,495.85358,185.8191,0.84985083,493.68356,186.6602,0.6584764,499.85278,182.82266,0.7486452,495.3882,184.25543,0.3667998,509.3229,186.93625,0.9887565,502.03995,189.7102,0.98724556,519.2102,200.99005,0.9651086,507.25772,205.11322,0.9281369,517.12897,210.42038,0.94809896,506.78674,210.59769,0.9110557,538.3939,199.65988,0.9895309,533.6518,202.25114,0.98931247,530.80035,213.75961,0.97845197,528.7855,215.64958,0.97214466,557.0925,220.917,0.9565409,555.5169,221.50787,0.9467241,1.25099194,-0.5276464,-0.98995112,0.55368482
53,1766.6666666666665,493.72766,189.80338,0.91018826,494.28473,187.2124,0.8759681,492.1363,188.21681,0.75066596,498.52148,184.25343,0.7441994,493.02118,186.09958,0.42158622,507.687,186.7151,0.98607427,498.70395,190.21985,0.98097044,519.89185,200.4504,0.9492396,502.3705,205.61293,0.8899412,523.973,211.15186,0.920131,507.64032,210.88857,0.86145806,534.4621,195.18129,0.9793204,528.6569,198.18492,0.97699636,533.61914,210.5609,0.9527476,528.7057,213.03108,0.9385327,554.99036,218.43951,0.9015469,550.8615,220.13495,0.8787773,1.88561144,-0.89193859,-1.33360909,0.99068806
54,1800.0,492.46204,191.18462,0.88195115,492.78656,188.78566,0.83866936,491.01083,189.62776,0.6979707,496.56473,185.47955,0.7353651,492.29446,186.73906,0.43806353,504.52817,186.83395,0.9847543,498.4514,189.40251,0.98081034,510.79413,200.27158,0.94307375,502.43588,204.26642,0.8894279,509.42575,210.78442,0.9085261,505.1056,211.12971,0.85416925,532.93036,193.18947,0.9805064,528.7142,195.67279,0.97928774,531.7955,209.57408,0.95892733,529.0216,211.45566,0.9489742,552.56116,220.39159,0.91422147,550.3458,221.40964,0.8984078,1.42487107,-0.77378313,-0.76911587,0.91650314
55,1833.3333333333333,492.36298,190.68102,0.63871384,491.94983,188.17386,0.58973575,491.12888,189.01921,0.25783566,493.60788,184.1558,0.6330093,494.15338,185.22278,0.16934662,501.5507,183.37994,0.97343767,501.9252,185.76205,0.9440628,507.9071,196.77246,0.95975035,507.64722,200.62198,0.8006735,503.49695,211.44006,0.93574345,505.20612,209.9989,0.79620826,535.45483,190.84142,0.9843769,535.11633,193.40295,0.9769348,526.16785,208.81087,0.97592825,526.8862,210.73853,0.9557878,555.86127,222.73016,0.95333976,556.0597,223.54063,0.9268751,1.20523509,-0.58954905,-0.70696758,0.77795911
56,1866.6666666666667,490.39868,191.09523,0.77400833,490.14902,188.40169,0.71648896,488.78766,189.44981,0.4114462,492.40625,183.64006,0.6771808,491.28525,185.33331,0.2429432,500.75726,182.11243,0.9812206,499.6115,185.72958,0.96699774,508.37726,195.34158,0.9625268,507.36386,201.09012,0.8540024,504.26498,211.75519,0.9419374,506.38562,210.7236,0.844707,536.06055,188.77522,0.9878193,534.7271,192.07272,0.9838935,526.73615,207.61984,0.98159236,527.2737,210.2727,0.9695617,556.2422,221.99709,0.9645014,556.4038,223.71744,0.94832027,0.91932621,-0.32548021,-0.69149191,0.51094251
57,1900.0,490.88867,191.6445,0.7325342,490.6728,188.96924,0.7288441,489.47665,189.97945,0.29672277,493.19556,184.26767,0.7560628,492.7125,185.78036,0.1438835,502.10995,182.64487,0.98207444,501.65997,185.80704,0.949518,508.79153,195.74103,0.9743304,508.06195,200.67586,0.7795246,501.99728,211.74358,0.9573053,503.956,210.53839,0.791201,537.8668,189.55911,0.98749757,536.82166,192.41005,0.97825694,524.2902,208.33676,0.98147476,524.9757,210.55936,0.957731,555.199,222.89761,0.9625194,555.10565,223.9661,0.9310238,1.0498643,-0.32793666,-0.7784504,0.62344813
58,1933.3333333333333,490.11316,191.31812,0.8331668,490.09714,188.81082,0.8429947,488.72375,189.49167,0.40567333,492.91315,184.32468,0.8552599,491.7821,184.87186,0.17210478,503.00522,184.24367,0.98801976,501.6786,185.33043,0.9631968,509.185,197.37123,0.9760475,508.22314,198.76846,0.767275,500.6189,211.00732,0.95730716,502.51596,208.10194,0.7741037,538.69824,191.38654,0.98533756,537.2388,192.94547,0.97400624,521.89923,207.06157,0.97542125,523.07135,207.89938,0.941429,552.1466,217.7218,0.9495571,553.11615,216.79578,0.904143,1.28775926,-0.33358651,-0.9855295,0.75879876
59,1966.6666666666665,491.38565,191.09534,0.6090759,491.07468,188.55203,0.6178905,490.28854,189.52905,0.19006778,493.5497,184.22136,0.70388716,493.87793,185.60065,0.09918168,502.612,182.98851,0.9734359,502.96582,185.54349,0.9199737,509.21594,194.99869,0.9705723,508.10745,198.64429,0.7308046,500.93408,211.28667,0.95256454,501.97345,209.50624,0.7567837,537.9258,191.87143,0.9846362,537.25574,194.24663,0.9719614,522.5466,208.32474,0.9769106,523.6188,210.01193,0.94483227,555.0036,221.35829,0.95495874,555.1879,221.78705,0.91449016,1.3255993,-0.22009831,-1.05824055,0.76739635
60,2000.0,493.24408,190.80365,0.59092456,492.856,188.11682,0.58977133,491.90662,189.23134,0.18633395,494.90234,183.49088,0.674314,494.72504,185.2163,0.10189802,503.07996,181.71152,0.9727832,503.04773,184.92279,0.9207977,508.7074,194.33409,0.9715604,507.78094,198.90616,0.74492407,500.9798,211.85205,0.9547223,502.28104,210.03935,0.7692023,538.13983,190.0271,0.9862459,537.214,192.83537,0.9751961,522.38086,208.25803,0.9802217,523.0516,210.48314,0.9527497,555.4983,222.17432,0.9605179,555.13684,223.45047,0.92475826,1.15211317,-0.2368022,-0.81799931,0.77599394
61,2033.3333333333333,493.48825,190.99052,0.61899257,493.22586,188.18597,0.6325967,492.0423,189.37694,0.19630902,495.41095,183.63074,0.7143928,494.71524,185.59102,0.100069664,502.8209,182.26575,0.97374105,503.61307,185.85802,0.9043611,508.62036,194.53047,0.9695136,508.44357,199.72919,0.6532099,501.39203,211.8149,0.94908327,502.97128,209.92485,0.6913107,537.4942,191.22835,0.98331845,537.1077,194.23334,0.9657119,522.4377,208.45807,0.97692525,523.4576,210.94023,0.9379827,556.6565,221.06906,0.9567389,556.3433,222.65756,0.9101208,0.89357644,-0.40285852,-0.47778038,0.63867814
62,2066.666666666667,493.7722,190.19626,0.6234737,493.5601,187.38823,0.6292313,492.2326,188.54655,0.20996313,495.6005,183.2685,0.7040324,494.5199,185.13763,0.11172806,502.39722,182.61543,0.9722735,503.27243,185.98798,0.90172666,507.7278,194.7449,0.9650261,507.2891,199.555,0.63839275,501.20416,211.32167,0.94139796,502.09543,209.27534,0.6726822,536.69916,191.82474,0.98074156,536.3797,194.75021,0.9610078,523.1614,208.39601,0.9724793,524.16364,210.79791,0.9284758,556.8857,220.21486,0.94995373,556.627,221.72498,0.89872843,0.92173783,-0.32793666,-0.57751243,0.63916943
63,2100.0,494.28793,190.13348,0.6392763,494.00507,187.30586,0.6346552,492.6273,188.47571,0.22214097,495.85522,182.78351,0.69463545,494.74408,184.65611,0.11840242,502.66333,181.58424,0.9729341,503.2998,184.87984,0.9103696,507.38712,194.26608,0.9656068,507.2639,198.85988,0.6683628,502.061,212.12773,0.9429569,503.00427,209.34555,0.69929117,537.7706,190.41922,0.9815345,537.31226,193.38536,0.96418,523.5598,207.96657,0.9734501,524.43915,210.39557,0.9334854,557.32947,220.7308,0.95035565,557.1486,222.26137,0.902239,0.85989087,-0.2476106,-0.54361336,0.61853522
64,2133.3333333333335,493.7891,190.35924,0.75815934,493.53442,187.39339,0.7384978,491.7453,188.72058,0.33874145,495.5491,182.26855,0.7316085,493.08252,184.6462,0.16120166,502.4456,180.55038,0.98010796,502.14874,184.81651,0.9392235,508.26163,193.35341,0.96954286,508.1001,199.57848,0.72697204,503.76688,212.05515,0.950169,505.29367,209.9855,0.748998,538.3148,189.4913,0.98342323,537.32574,193.03302,0.96958107,524.4318,207.75534,0.9744887,525.328,210.74329,0.9395901,558.5462,220.64955,0.949973,558.47003,222.9033,0.9055712,1.02360461,-0.31909343,-0.57309081,0.78581976
65,2166.6666666666665,494.36914,189.1052,0.8252146,494.292,186.00046,0.7959522,492.09006,187.42743,0.45363212,496.48816,180.69553,0.75035906,492.8949,183.48975,0.21926847,502.8732,179.38608,0.98501194,501.6625,184.36198,0.960991,509.03165,192.68378,0.9721921,508.2947,199.794,0.7936523,504.3164,211.8885,0.9549112,505.70767,209.90611,0.8014659,536.7935,189.2662,0.98696566,535.3431,193.16727,0.9781985,523.9211,207.97289,0.97945064,524.8683,211.39705,0.9555688,557.1155,221.17108,0.9589021,557.35986,224.13565,0.9270438,1.20003301,-0.38148737,-0.51118816,1.01648083
66,2200.0,494.367,188.76828,0.81488246,494.29263,185.74252,0.783198,492.20023,187.07762,0.44366583,496.4533,180.66843,0.74304116,493.11743,183.22644,0.22124694,502.668,179.84511,0.984501,501.7162,184.28229,0.96114486,508.444,193.00606,0.9711377,507.78162,199.18689,0.8000233,504.0146,211.9438,0.95315796,505.2151,209.6492,0.80441207,535.6195,190.52563,0.9867763,534.42474,194.1001,0.9783598,523.56616,208.75531,0.9783157,524.68665,211.8151,0.9545402,555.86835,221.35791,0.9566078,556.46155,223.8724,0.92481434,1.21489167,-0.48023683,-0.68731594,0.87916503
67,2233.3333333333335,492.95053,187.90608,0.75036716,492.66098,184.97093,0.7306623,491.13324,186.1363,0.33317655,494.7379,179.75629,0.7326464,493.33792,181.83147,0.1650099,502.36496,178.72876,0.98162156,502.0597,182.42673,0.9498788,509.17,192.9233,0.97223467,508.80756,198.24283,0.7800308,504.14905,212.67174,0.9541553,505.07278,210.49594,0.7893203,535.5306,189.20834,0.9860802,534.8078,192.32426,0.97617143,523.0364,208.41298,0.9773627,523.91846,210.98811,0.9502493,554.27545,222.11479,0.9529189,554.46027,223.91582,0.9160006,0.95773534,-0.38050479,-0.55540434,0.6811748
68,2266.6666666666665,492.47583,186.66794,0.811859,492.63727,183.68813,0.80792207,490.63458,184.87263,0.39729276,495.59482,179.03082,0.7991557,492.90475,181.31097,0.17227142,503.04776,179.2117,0.98595285,502.41635,183.26135,0.9569969,510.07822,193.1521,0.9769,509.75125,198.79463,0.7763332,503.55637,212.66646,0.9607599,504.98843,210.7721,0.7884661,535.37946,191.06026,0.9865215,534.36774,194.2582,0.97546595,523.18915,209.60149,0.9761069,524.47205,212.22888,0.94401026,555.30884,222.1202,0.9495832,555.8728,223.90881,0.9059276,0.94528486,-0.42177322,-0.51217074,0.67331415
69,2300.0,489.96228,184.53232,0.7843891,490.28372,181.68312,0.78706765,488.61108,182.77074,0.351056,493.85724,177.81602,0.79774374,492.0189,179.87497,0.1544953,501.42593,179.18353,0.9848451,501.99417,182.90627,0.95226824,509.45847,192.0329,0.9761597,509.413,197.291,0.76566356,503.2088,211.47408,0.9592847,504.56378,209.73947,0.77911085,533.7126,193.24576,0.98618466,533.4386,196.2039,0.97462714,522.1472,210.5108,0.9741532,523.97003,212.82283,0.93964946,555.49384,221.51936,0.94670266,556.46387,222.8389,0.9010626,1.03433326,-0.49595814,-0.32376069,0.84796806
70,2333.3333333333335,489.7677,183.47592,0.7923177,490.25235,180.72702,0.79665333,488.50153,181.78802,0.37029362,494.24292,177.66429,0.8021899,491.68097,179.7015,0.1591997,501.64005,179.96011,0.98591805,501.52206,183.73926,0.9542782,511.31412,190.8366,0.97856355,509.29675,196.34496,0.7784294,506.21085,208.89758,0.9638071,505.2579,207.98326,0.79187,532.5675,195.38426,0.98719865,531.93616,198.32013,0.9760667,523.27454,211.30095,0.9737993,525.0375,213.56369,0.9388123,555.88904,220.66388,0.9457163,557.188,221.97885,0.899559,1.46427701,-0.69001804,-0.47876296,1.19948668
71,2366.6666666666665,492.1315,181.97295,0.8893582,493.1531,179.04042,0.8520997,490.15323,180.46167,0.6454094,497.89676,176.00871,0.7253437,490.6737,179.43375,0.30359623,505.31235,178.17111,0.9865537,499.25812,184.73943,0.9776586,519.87744,186.57373,0.971527,507.5035,197.26076,0.8986705,518.32745,202.0252,0.9603707,505.75467,206.73161,0.8952482,532.2385,195.14697,0.9886177,528.1305,199.41896,0.9853549,523.7473,210.4847,0.97425574,524.48376,214.07115,0.959672,555.2828,218.70215,0.9468716,556.71295,221.99463,0.9257523,1.34399552,-0.80891043,-0.47507828,0.96243883
72,2400.0,493.0642,182.02689,0.8876363,494.2303,179.01195,0.8664505,491.268,180.39166,0.59721684,499.27692,175.82462,0.78988874,492.39386,179.01372,0.25784898,506.5604,178.55197,0.98840415,501.2874,184.36758,0.9770964,516.07477,189.88672,0.97632164,508.5943,198.00609,0.88036156,508.1001,205.78146,0.96488166,503.9495,207.07524,0.8793972,534.70966,194.93564,0.9890148,530.75977,198.84729,0.9843242,523.9023,210.61084,0.9760416,525.03,213.90202,0.9566625,556.75116,218.9944,0.9497809,558.0852,221.70483,0.9219083,1.31978711,-0.64604751,-0.67552496,0.93173315
73,2433.333333333333,493.0912,181.22008,0.88271767,494.27576,178.1937,0.8522278,491.4062,179.62167,0.60971624,499.50357,174.95056,0.7533382,492.548,178.36604,0.27542442,507.31454,177.68396,0.98715556,500.46423,184.17499,0.97755814,518.7896,188.38042,0.97251016,507.80853,198.22116,0.89026326,512.46954,203.53618,0.96040064,504.516,206.92407,0.8858923,533.87445,195.22128,0.9894106,529.017,199.43954,0.98591334,524.20996,210.94708,0.9776505,524.0316,214.58804,0.962932,555.7197,219.57028,0.95432407,555.72797,222.80104,0.9332204,1.04871542,-0.43430114,-0.58930341,0.75093811
74,2466.666666666667,493.4208,180.80444,0.9141632,495.10287,177.64798,0.88861763,491.43466,179.18982,0.7071722,501.29245,174.87755,0.7517664,491.69113,178.85873,0.30756912,509.36575,177.97302,0.987398,499.20868,186.06174,0.9785619,524.1726,186.25989,0.9717419,506.42676,200.46652,0.8962018,522.2112,197.1659,0.9610236,504.41644,207.45029,0.89355654,534.5538,196.41571,0.98749524,527.54315,201.36272,0.98359495,528.02106,210.92723,0.9702017,524.9216,215.24232,0.9525048,559.1352,217.75064,0.93911254,555.7425,221.79637,0.9138441,0.97770999,-0.51118816,-0.38173301,0.74086665
75,2500.0,494.95197,180.76785,0.93878275,496.38248,177.36528,0.90225226,492.31943,179.15114,0.8326751,501.75446,175.13538,0.7347218,491.2093,179.55704,0.5065107,509.3789,180.17947,0.98955137,498.6478,188.77634,0.988756,524.10657,188.74649,0.9619391,506.28043,204.61078,0.93727064,523.8034,191.23079,0.9473316,506.37152,206.04623,0.91992444,533.9191,199.02829,0.9853873,526.72644,204.02719,0.9855651,528.14545,209.56451,0.95872426,522.42163,213.86163,0.95102036,557.2121,212.09839,0.9094917,551.60297,216.56105,0.8953779,1.14242418,-0.70180902,-0.50455573,0.74700778
76,2533.333333333333,493.51755,180.49377,0.9306571,494.71674,177.1924,0.88725865,491.3673,178.89058,0.80725664,500.26767,174.44809,0.7218548,491.5519,178.37408,0.4949085,509.3273,179.70091,0.98827016,499.29504,187.02872,0.9892798,522.7043,191.37328,0.953034,506.91428,203.96112,0.9399249,519.0544,199.53003,0.935064,505.15448,209.7489,0.9194815,536.13446,198.93439,0.98556846,529.31195,203.3344,0.9870249,526.77185,209.01657,0.9631675,522.33936,212.68051,0.95957726,556.6595,213.82846,0.92310536,552.39435,217.32472,0.9157431,1.09740092,-0.68485949,-0.49890589,0.6973874
77,2566.666666666667,493.5388,180.7909,0.8998565,494.74014,177.43253,0.87638175,491.75912,178.85147,0.67150855,500.69867,174.10837,0.7978833,493.17828,177.2336,0.33077607,509.87143,180.2019,0.9879367,502.4,185.21999,0.98123527,519.1244,194.2022,0.95868284,509.32095,201.20491,0.87556165,508.72275,206.549,0.9356341,503.13846,209.48763,0.8527757,536.1496,201.49678,0.9859876,530.75183,204.59438,0.9830836,526.848,213.70941,0.9696554,523.71716,216.11926,0.95452565,557.73627,218.35547,0.93850106,553.28125,220.01906,0.9157421,1.06267742,-0.68878981,-0.4632873,0.66348833
78,2600.0,494.24237,179.98746,0.9095948,495.5533,176.57047,0.8721052,492.13907,178.14796,0.7187679,501.4157,173.52162,0.7537954,492.82227,177.078,0.38331985,510.21735,179.38933,0.98690134,501.88782,185.30579,0.98376715,520.4121,193.92274,0.95118284,509.67258,202.51073,0.8999962,512.57245,205.9262,0.9288192,505.15472,210.03665,0.8774403,537.04645,199.06921,0.9844603,531.1266,202.70021,0.98350126,525.5514,208.42001,0.9671745,522.80096,211.37103,0.9569657,556.5886,214.48596,0.93673426,553.4282,216.91747,0.92102414,1.07632299,-0.7136,-0.45862004,0.66250575
79,2633.3333333333335,493.45444,179.67975,0.8490502,494.88742,176.4165,0.8354034,491.9224,177.66351,0.474049,500.78784,173.49164,0.78811187,494.15594,176.28755,0.1852589,508.32797,178.82285,0.9840937,503.9756,183.33044,0.96249765,515.61914,194.08348,0.96762365,510.06036,199.503,0.80224454,506.8545,209.88338,0.95089334,504.1925,208.40613,0.81109893,536.1768,200.07233,0.9828219,532.73834,203.19324,0.97309417,523.0155,207.16653,0.9691141,524.2711,209.66492,0.93848956,556.4614,218.50925,0.94658023,557.5932,219.91605,0.91041434,1.10619572,-0.74921859,-0.41415821,0.70058079
80,2666.6666666666665,493.6292,179.04964,0.831177,495.05225,175.88797,0.8555268,492.414,176.88234,0.3612657,501.04367,173.45741,0.8708641,496.22375,175.48262,0.12248771,508.06796,179.33324,0.98757684,507.74622,182.47336,0.949081,512.161,195.54837,0.9781869,512.3872,199.25826,0.690113,502.12698,210.67154,0.9611728,504.3146,209.11403,0.7203142,537.21954,200.89772,0.9821677,536.19806,203.14844,0.96190476,522.667,204.22841,0.9694642,524.9383,205.84077,0.9151552,555.15845,218.95148,0.9473009,556.20526,218.97847,0.8879002,1.10011832,-0.72367147,-0.42152757,0.71335436
81,2700.0,494.33853,177.1535,0.8037947,495.38422,173.75417,0.8251928,494.41837,176.0139,0.4314064,500.8252,171.33646,0.85281473,499.66376,175.28407,0.2182079,510.88428,178.86353,0.988187,507.41943,185.58372,0.9118306,513.372,197.0651,0.976861,510.20117,204.20856,0.68216354,502.4447,206.97942,0.94606125,506.05402,210.69397,0.6585384,535.4927,202.97307,0.97961694,533.42883,207.2156,0.9453595,517.90643,196.5426,0.9625014,517.94305,203.92773,0.89854187,552.07605,214.10721,0.9241597,551.03406,220.05916,0.86175054,1.08584359,-0.7163021,-0.43258162,0.6919832
82,2733.3333333333335,494.5632,176.35591,0.80979955,495.31888,172.9725,0.8258795,494.73392,175.13815,0.42708087,500.8358,170.54048,0.84672606,500.53937,174.51172,0.2062026,511.50616,177.18219,0.98744535,509.90594,184.48965,0.91031396,513.97064,195.66025,0.9771244,512.2725,204.57166,0.6981488,503.6285,206.66006,0.9509411,508.01407,210.76285,0.6913485,538.86053,201.49994,0.9754322,537.88385,205.92207,0.9361825,522.0101,188.11102,0.95631254,523.2024,195.65106,0.88566995,551.3213,213.12486,0.9119257,551.73126,218.96681,0.8439227,1.0976209,-0.73202341,-0.42201887,0.70058079
83,2766.6666666666665,494.80698,176.26488,0.7977109,495.53983,172.7847,0.81834346,495.01956,175.1873,0.40706903,500.90906,170.21477,0.8483869,500.98218,174.54851,0.19995958,511.5999,176.81732,0.9875073,510.31848,184.48805,0.9077635,514.5145,196.02065,0.9774545,512.6667,204.78113,0.6878146,503.72858,206.34685,0.95023596,507.69156,209.71567,0.67727864,538.71924,201.25351,0.9769076,537.9388,205.88396,0.93869567,519.5624,190.41162,0.95827895,520.6779,198.91563,0.88790214,551.5656,212.70964,0.91465896,550.9199,219.77095,0.8458843,1.11232771,-0.74086665,-0.40973659,0.72146066
84,2800.0,494.8569,175.8742,0.7863856,495.40454,172.43884,0.8004053,495.11435,174.81436,0.39631718,500.61414,169.97986,0.8339534,501.24353,174.33951,0.2013737,511.51898,176.32582,0.98630244,510.7351,184.10147,0.9092253,514.6914,195.59306,0.9757775,513.14795,204.75246,0.7052518,504.06824,206.29897,0.94834644,508.12955,209.55006,0.69483167,538.8826,200.22775,0.9753827,538.4251,204.90302,0.938229,521.3597,188.46092,0.95530784,522.87616,196.9275,0.8869528,551.36725,211.63063,0.90900147,551.2994,218.71187,0.8420909,1.08400841,-0.73374293,-0.38418947,0.69935257
85,2833.3333333333335,495.33542,176.30896,0.77235615,496.11017,172.80078,0.7914199,495.65723,175.27704,0.39361277,501.3328,170.43939,0.8293859,501.64685,174.8383,0.2046028,511.29974,177.48375,0.9845974,510.31137,184.89114,0.9009307,514.28467,196.32652,0.9712369,512.91364,204.42432,0.6739428,504.67334,206.15465,0.9380817,509.11023,209.5256,0.6561576,536.95386,200.91252,0.97497493,536.44135,205.58247,0.9376802,518.93066,191.5474,0.9585934,520.2699,200.36044,0.8954376,552.508,213.0154,0.92118114,551.732,220.91241,0.8621457,1.10109332,-0.740621,-0.38787415,0.71654775
86,2866.6666666666665,47.64709,132.14394,0.13595696,45.305927,129.44992,0.026098302,48.12349,129.6367,0.13118453,31.82165,127.845825,0.08569345,45.478226,128.66888,0.5668725,20.966002,135.27765,0.70296764,44.174355,137.18571,0.9396284,6.1894207,151.14815,0.5822226,62.538452,143.95915,0.9451007,3.6951027,167.44264,0.57169586,80.37575,140.06905,0.8924164,19.944912,178.59874,0.9191841,32.34671,179.63918,0.9641907,15.707651,206.73506,0.8102783,25.111622,208.84685,0.90880007,7.6495323,226.03712,0.6064185,15.6168995,228.12868,0.72551215,1.1402008,-0.75585102,-0.42963387,0.73767326
87,2900.0,495.24463,175.6567,0.76246023,495.8859,172.15738,0.7791149,495.69382,174.50148,0.38345945,501.393,169.95268,0.8129078,502.15573,174.16133,0.19592296,511.68726,176.93394,0.98097205,511.4129,184.16791,0.890067,514.8801,196.29333,0.96556246,513.53546,204.44243,0.6637516,505.0748,206.24359,0.93119997,508.12537,209.07135,0.65570325,537.74164,199.56136,0.9653478,537.6565,204.08516,0.9190936,521.87744,186.44124,0.9441407,523.17053,194.96526,0.8688642,552.3551,211.02869,0.8979314,551.6067,218.79565,0.83052826,1.09808075,-0.73841019,-0.3903306,0.71286307
88,2933.333333333333,497.15652,174.91946,0.58798873,497.51456,172.57341,0.60066664,496.7496,173.17804,0.19958475,501.52527,170.58438,0.72776586,501.513,171.4738,0.13360265,510.45267,174.99953,0.96917737,508.9279,176.46431,0.9128999,515.24084,190.68564,0.9319925,512.6344,193.27365,0.5940684,507.9481,204.58011,0.87428945,508.39487,204.1703,0.5676932,530.8364,190.39911,0.97049665,529.406,191.48488,0.94848585,518.8917,185.8121,0.9669739,518.8311,186.81323,0.9282458,524.3845,206.20941,0.9558164,525.032,205.92519,0.9219672,1.09634422,-0.72760179,-0.37264413,0.73054954
89,2966.666666666667,50.233795,136.43805,0.017564133,47.469208,133.23705,0.0062904563,50.308548,134.27837,0.01668605,34.15548,128.65118,0.16715142,47.2938,131.60638,0.40284672,24.36489,135.29266,0.8889037,47.019203,137.8859,0.9383786,7.5367146,147.48825,0.8112683,56.541748,142.96149,0.9191787,5.067566,168.66864,0.67496175,65.7014,148.98448,0.78149426,20.920145,173.9348,0.986937,34.1966,175.1382,0.9900338,19.280409,199.2963,0.96562874,29.358091,200.4384,0.9711367,12.8002825,217.75655,0.8975282,17.739195,220.59518,0.90899664,1.06499928,-0.68707029,-0.35790541,0.73079518
90,3000.0,497.9094,173.52658,0.57568187,498.44385,171.36455,0.5678172,497.2897,171.75832,0.23592289,502.28003,169.94002,0.6852763,500.5883,170.3949,0.16639784,510.66486,174.37093,0.967879,507.04608,175.3423,0.92931473,514.3164,189.12822,0.91883147,509.5376,190.97125,0.68231654,505.66364,197.46417,0.8565328,506.62097,197.86835,0.63548577,529.0541,189.2717,0.9764173,526.3566,189.93779,0.96555716,521.3117,183.53389,0.97710973,516.99786,183.95808,0.9594155,529.88904,208.03503,0.9696721,524.389,207.25194,0.95319414,1.0763106,-0.68682465,-0.36330961,0.74479697
91,3033.333333333333,499.03928,172.44116,0.4557812,499.28412,170.41856,0.4293131,498.52432,170.94482,0.17118086,502.12466,169.03633,0.5827065,501.96198,169.86127,0.15381503,508.99622,172.88188,0.95437783,507.47888,174.31248,0.90439224,513.51044,185.68246,0.9055678,511.51242,188.0119,0.64826125,508.08768,193.8437,0.84541005,508.82828,193.47568,0.6133723,525.29736,187.15231,0.9744855,523.8437,188.28786,0.9618258,519.2941,185.76222,0.97467256,516.85126,186.80914,0.954769,526.13776,207.13922,0.96761394,522.4876,207.259,0.9502529,1.05528635,-0.66643608,-0.3610988,0.73423422
92,3066.666666666667,500.00607,171.49806,0.4701774,500.25293,169.52446,0.41943806,499.2615,170.17297,0.20684855,503.03696,168.16557,0.50649005,501.32516,169.41222,0.17183882,509.854,171.50392,0.94754916,505.6082,173.67078,0.90886384,514.5907,182.86104,0.8960399,509.39404,186.37416,0.70206887,509.36,189.12383,0.844558,508.81577,189.2994,0.67173064,524.88196,185.50801,0.9756859,521.15326,187.00659,0.9672605,522.01904,186.15565,0.97601175,513.7589,187.53058,0.962153,530.6815,207.64911,0.96931297,518.37256,208.37721,0.9569674,1.08548429,-0.69124627,-0.35520331,0.75781618
93,3100.0,42.029846,126.834564,0.12784328,39.864033,124.045975,0.03238628,42.687126,124.47916,0.100609146,29.10246,124.26407,0.14351507,44.630688,125.425446,0.5123573,21.37267,134.3324,0.77053,47.470554,136.06895,0.94256943,6.901737,150.8773,0.64112157,65.537125,146.89507,0.9353003,4.128605,165.99113,0.5920446,79.47954,147.86786,0.86993873,22.294617,175.08264,0.9465715,37.081665,175.55547,0.97355515,15.611544,203.39366,0.8893843,26.070114,203.6341,0.9436068,9.049341,224.59436,0.75868404,17.103168,224.15721,0.8362527,1.11157604,-0.70647628,-0.37166155,0.77353749
94,3133.3333333333335,501.3166,170.87738,0.56542665,501.6086,168.64671,0.50399625,500.26178,169.52335,0.2743261,504.55566,166.91148,0.5281425,501.52417,168.78421,0.19447611,511.74548,170.65642,0.9575337,505.50134,173.87068,0.9287364,517.29126,183.09982,0.9120833,508.9746,188.31561,0.7443995,511.71255,192.45113,0.86787677,508.61435,193.25359,0.71414894,527.0535,186.57724,0.97850317,522.0107,188.60555,0.9715675,522.62195,189.47514,0.97614413,513.6393,191.40045,0.9625902,531.85175,209.89021,0.966714,519.08136,211.43106,0.9536886,1.09339191,-0.67970093,-0.37829398,0.76837894
95,3166.6666666666665,501.31165,170.18759,0.5897871,501.6399,167.95032,0.5289638,500.3217,168.69943,0.28239202,504.33585,166.23277,0.5551683,501.8913,167.66382,0.19913362,511.2247,170.26157,0.9615695,505.96274,172.80325,0.9351349,515.924,184.36911,0.9177922,508.99634,188.44894,0.7499563,510.58002,196.67068,0.8712692,508.03525,196.55455,0.714283,528.3017,185.4242,0.978865,524.0922,187.26852,0.97190803,522.8864,191.23085,0.9752364,516.1912,192.88507,0.96051747,534.2897,211.28287,0.9635052,525.0051,212.35083,0.9485831,1.07283671,-0.6762619,-0.34169281,0.7595357
96,3200.0,37.37682,130.45143,0.099494986,35.60672,127.96712,0.029680397,38.922466,128.50418,0.053063106,29.103046,127.31543,0.16691682,44.20205,128.53647,0.31596813,24.281616,133.97084,0.83055913,47.10545,136.71136,0.9330993,10.434292,145.04745,0.8035769,64.88434,145.18875,0.93979496,6.6174545,158.13431,0.7654375,79.973015,147.00665,0.8939846,24.944904,174.30908,0.97523755,37.389603,175.43925,0.9842188,20.475441,201.13524,0.9440137,29.48248,202.9187,0.9647778,15.137958,222.12825,0.84917593,22.604782,224.13094,0.8872311,1.06958309,-0.67233157,-0.31811084,0.76862458
97,3233.3333333333335,500.44534,170.98279,0.54118395,500.88312,168.48224,0.5600387,499.96173,168.95865,0.14824432,503.91052,166.68024,0.72203726,504.25455,167.12958,0.09468743,509.89612,171.84995,0.97720736,510.5912,172.50696,0.9232817,512.19794,189.0452,0.9675211,512.6797,190.18097,0.66554123,507.1159,206.12918,0.9397302,507.62357,204.79167,0.66537374,530.7311,189.91281,0.98639107,530.7945,190.81,0.972739,518.5765,198.33946,0.98298657,518.82733,198.93738,0.9555544,536.9802,217.18866,0.9709349,536.7867,216.4816,0.9409859,1.05662124,-0.66152317,-0.31811084,0.76002699
98,3266.6666666666665,46.836708,122.540146,0.24297208,45.078224,119.90546,0.054411337,46.64711,120.15134,0.21785732,32.99732,121.2959,0.15044886,45.169983,122.23088,0.6716713,22.432165,133.39815,0.8307284,46.20383,135.5024,0.9680857,7.974764,146.50755,0.66992664,63.568756,144.98724,0.9571387,5.3416443,149.14609,0.6305208,78.514015,141.34802,0.9068033,22.122932,176.74927,0.95056266,36.01535,177.65466,0.9778349,14.806126,203.46854,0.88797,29.959597,204.3896,0.94739324,7.1533546,224.82942,0.7377234,23.586937,225.8158,0.8272338,1.0716113,-0.65832978,-0.32007601,0.78262637
99,3300.0,500.5002,171.17468,0.44114116,500.84726,168.73546,0.4319338,499.92865,169.24149,0.124312036,503.66986,166.80931,0.6036031,503.80988,167.30937,0.09614288,509.25412,171.21739,0.95935106,509.776,172.01115,0.8940193,510.78094,187.71349,0.93757856,511.20023,189.46518,0.6230568,507.9404,201.88324,0.89778185,508.82632,201.4833,0.62161577,529.4008,189.5774,0.97994804,529.488,190.47983,0.9651418,515.70355,191.74043,0.9815762,516.3694,192.34988,0.959026,529.921,215.95197,0.9750549,530.36816,215.32101,0.95481527,1.04150772,-0.64531057,-0.25940158,0.77525701
100,3333.3333333333335,19.651821,147.31822,0.22044978,18.447811,145.21274,0.10348993,21.645725,144.81264,0.13027228,19.34082,140.02359,0.24419522,28.92957,139.33206,0.269516,21.85785,141.5018,0.7500305,42.36998,135.77718,0.86902976,12.335197,145.89703,0.6951855,63.361477,136.91252,0.89178467,8.871605,159.49838,0.6753588,91.18907,143.39767,0.8532815,34.544197,163.46358,0.9153704,43.768394,159.8961,0.94810176,30.373257,191.8035,0.81068933,37.279095,190.52039,0.88664746,13.090385,208.30522,0.604869,14.864349,211.34882,0.68814117,1.04504248,-0.6357304,-0.2449085,0.79245219
101,3366.6666666666665,500.5858,172.11687,0.5563946,500.83588,169.39276,0.5500332,499.912,170.06425,0.15824865,503.78082,166.9541,0.688143,504.40506,167.76941,0.10661929,510.5118,171.94688,0.9742963,511.25812,173.30324,0.9290319,512.7718,190.29262,0.96006674,512.8853,192.91728,0.6909725,508.21484,209.59784,0.92846274,508.62027,208.94785,0.68116206,534.60815,192.40051,0.9831924,534.74585,193.72195,0.97010964,518.83154,197.68652,0.97866404,520.4897,198.69753,0.950246,534.79065,219.09317,0.9639088,536.5277,218.82907,0.93318003,1.03729135,-0.63229136,-0.29158114,0.76887023
102,3400.0,15.743788,151.75464,0.5857544,16.312983,148.82684,0.56447756,14.537042,150.01384,0.21109761,21.779007,140.50085,0.5573721,15.181353,143.35245,0.09068926,36.221752,137.59604,0.95985734,14.640303,144.41418,0.7407781,62.110428,140.18265,0.960715,4.8322153,158.81952,0.5682764,82.53317,148.60374,0.93702924,2.9442596,173.94814,0.6237994,40.507805,170.46573,0.9667935,29.42355,173.3351,0.9064637,19.820915,192.87659,0.9380943,20.932373,200.0031,0.8406157,16.872204,219.55664,0.84203047,23.997265,225.62466,0.72988003,0.98857226,-0.54435029,-0.17489955,0.80645398
103,3433.333333333333,500.28137,172.13606,0.66487277,500.7314,169.22498,0.65088296,499.32047,169.92766,0.23178026,504.34296,166.68195,0.7283973,503.91962,167.6183,0.14212084,512.12067,172.28668,0.97698057,511.73593,173.85353,0.9429812,515.696,191.61588,0.9515147,513.55176,194.89343,0.69484985,511.82236,210.47307,0.9129428,508.36517,210.23761,0.6726821,536.30426,193.0766,0.9789988,535.9354,194.37613,0.9654259,518.8985,196.11125,0.97285265,521.7496,197.12279,0.94197863,530.6338,218.63351,0.95706046,534.193,218.2854,0.925853,1.1226235,-0.79859332,-0.10931222,0.78139814
104,3466.666666666667,500.3017,171.7916,0.76488715,500.84628,169.02258,0.75265366,499.02155,169.78357,0.36199647,504.4626,166.25815,0.7945952,502.82684,167.28523,0.2244805,512.5852,171.44032,0.9808879,510.93945,172.90195,0.9545575,516.99115,190.57614,0.935854,514.69727,193.22249,0.6657577,513.9659,209.91248,0.87334275,510.18323,208.30966,0.6050025,535.1467,190.21603,0.9749885,533.95764,191.3566,0.96030766,516.529,192.18968,0.9691367,519.4065,193.09642,0.9368311,523.6664,217.16812,0.95454365,528.26904,216.78204,0.9235636,1.1513821,-0.75314892,-0.16384551,0.85533742
105,3500.0,500.0308,171.60954,0.7822914,500.53043,168.85979,0.77243614,498.6482,169.77193,0.3907744,504.25143,165.84543,0.7930094,502.01675,167.31903,0.22286879,512.40063,170.24586,0.98103917,509.8866,172.55258,0.9536149,517.6663,187.27191,0.93931323,513.69293,191.67072,0.6673641,514.3231,204.11568,0.8857059,510.03964,204.75745,0.6210356,534.5134,189.2202,0.976478,532.4678,190.7272,0.9619643,516.80396,191.64922,0.97201365,516.9192,192.94829,0.941499,524.9775,216.5211,0.9589064,525.238,216.7296,0.92968416,1.05063568,-0.62295683,-0.10194286,0.83986176
106,3533.333333333333,500.24576,171.89153,0.80220944,500.72595,169.14455,0.7882364,498.76218,170.10983,0.4298593,504.40408,166.02983,0.7817748,501.548,167.70546,0.22998099,512.8749,170.04932,0.98175895,508.88806,172.78955,0.957535,519.12714,186.66376,0.9441921,512.54645,192.05624,0.7030402,515.7266,203.80095,0.8973067,509.36517,205.55428,0.6612198,534.53674,188.37598,0.97913367,531.346,190.0692,0.96713513,517.64624,192.46423,0.9749014,515.0828,193.91853,0.94881314,527.35706,216.98157,0.9620398,523.86365,217.50084,0.9361639,0.9562144,-0.55933467,0.0216168,0.77525701
107,3566.666666666667,41.141724,126.946976,0.0071691903,38.64186,123.97763,0.0028031722,42.06103,124.70633,0.0071150963,29.270048,122.195114,0.1401164,42.992615,124.17,0.37053132,21.731861,132.72232,0.87424135,45.949673,134.08015,0.95105934,6.128681,147.08562,0.8253999,58.88615,143.28699,0.9601509,3.873867,160.23726,0.6788991,74.35155,145.08176,0.8632071,22.571218,174.47147,0.98805106,36.375893,174.80928,0.99322635,16.05432,198.68474,0.9496184,24.191334,199.00952,0.96792835,15.476248,220.13344,0.84364384,15.546011,221.71397,0.8842454,0.98902873,-0.49374733,0.05281377,0.85533742
108,3600.0,500.69467,172.29088,0.80138063,501.11276,169.52032,0.7743563,499.14438,170.5172,0.4482184,504.57443,166.30579,0.7536024,501.81656,168.02634,0.25787845,513.29315,170.19421,0.9791246,508.94775,173.15506,0.9585729,520.0226,187.09798,0.93195385,513.25146,193.0046,0.7179384,516.2465,204.81201,0.8797356,510.38254,207.0687,0.6696955,535.6065,187.7249,0.9752617,532.32697,189.59271,0.9644331,517.79456,191.5196,0.97028905,516.70526,193.14374,0.94523203,526.6471,216.28464,0.95607394,526.06696,217.05742,0.9316098,1.00329218,-0.54975449,0.04790086,0.83789659
109,3633.3333333333335,501.2001,172.28993,0.80460423,501.56927,169.55948,0.7657965,499.56754,170.58746,0.47571203,504.8164,166.21992,0.7272688,501.7638,168.05487,0.2845765,513.39197,169.61246,0.97874844,508.30786,172.831,0.9624962,520.0923,186.0448,0.92901635,512.61633,192.4084,0.751306,516.4018,203.52084,0.8779518,510.73975,206.19333,0.70116,535.27966,186.31361,0.97713375,531.46204,188.35301,0.96912205,518.8679,191.34991,0.97229576,516.5949,193.13109,0.95251316,527.7644,215.6027,0.95832175,525.65546,216.64973,0.93849576,1.05172675,-0.56154547,0.03046003,0.8887452
