frame_id,timestamp_ms,nose_x,nose_y,nose_conf,left_eye_x,left_eye_y,left_eye_conf,right_eye_x,right_eye_y,right_eye_conf,left_ear_x,left_ear_y,left_ear_conf,right_ear_x,right_ear_y,right_ear_conf,left_shoulder_x,left_shoulder_y,left_shoulder_conf,right_shoulder_x,right_shoulder_y,right_shoulder_conf,left_elbow_x,left_elbow_y,left_elbow_conf,right_elbow_x,right_elbow_y,right_elbow_conf,left_wrist_x,left_wrist_y,left_wrist_conf,right_wrist_x,right_wrist_y,right_wrist_conf,left_hip_x,left_hip_y,left_hip_conf,right_hip_x,right_hip_y,right_hip_conf,left_knee_x,left_knee_y,left_knee_conf,right_knee_x,right_knee_y,right_knee_conf,left_ankle_x,left_ankle_y,left_ankle_conf,right_ankle_x,right_ankle_y,right_ankle_conf,acc_x,acc_y,acc_z,acc_mag
0,0.0,571.79596,77.637596,0.9506343,576.8851,73.65544,0.95352775,570.9721,74.2225,0.6388977,589.50006,75.92814,0.9373489,574.0716,76.42847,0.19897537,595.30457,98.7717,0.99754024,576.0129,96.81865,0.96927005,585.80945,130.04402,0.99534744,562.0455,122.81917,0.83877826,554.2965,137.39888,0.9899614,548.0736,136.42111,0.8419296,581.5843,148.4553,0.9963129,569.0056,143.74663,0.9862386,532.70624,160.46869,0.9914443,523.3323,156.55853,0.965633,541.5438,209.01665,0.9626126,535.7087,203.134,0.9131382,1.02683138,-0.85975904,-0.02628406,0.56080854
1,33.333333333333336,570.9659,78.23511,0.94758487,575.88556,74.230385,0.9515271,570.33496,74.82875,0.6161154,588.5077,76.13693,0.93777454,573.96906,76.70279,0.18787067,594.6607,98.566666,0.99760866,576.08154,96.750015,0.96814996,585.4138,129.79312,0.9955947,562.0401,123.00482,0.83470887,554.36597,137.3064,0.9903279,548.11096,136.55267,0.8388123,581.2667,148.5798,0.9965299,569.1984,143.92133,0.98663425,532.45844,160.54404,0.9920106,523.59705,156.59378,0.96693504,541.4792,209.26218,0.9649678,535.77185,203.08295,0.9169998,1.01659599,-0.84747677,-0.03193391,0.56056289
2,66.66666666666667,570.3539,78.6541,0.9456049,575.1897,74.62746,0.9494044,569.79266,75.27103,0.6061934,587.8974,76.37542,0.9360294,573.6631,77.049805,0.18359773,594.368,98.63957,0.9975381,575.8871,96.87239,0.967773,585.11414,129.8336,0.99552876,561.6754,123.04436,0.8363666,554.1623,137.293,0.99025613,547.8531,136.54105,0.8406256,581.2371,148.74873,0.99650913,569.2379,144.11078,0.9866996,532.5151,160.38727,0.99197173,523.7298,156.48373,0.9671669,541.3084,209.16681,0.9648936,535.5151,203.04411,0.9174708,1.04991344,-0.86467195,-0.01031711,0.59544455
3,100.0,569.5324,78.877495,0.94827473,574.42725,74.80504,0.95246655,568.90375,75.4783,0.6163853,587.3056,76.44118,0.9387776,572.7285,77.18919,0.18442816,593.90936,98.660065,0.99761826,575.3827,97.038475,0.96784914,584.9873,129.81775,0.9956155,561.4709,123.19858,0.83403283,554.3716,137.26602,0.9904073,547.62384,136.64783,0.83901197,581.38556,148.97516,0.9964888,569.34924,144.41623,0.9864488,532.4432,160.32008,0.99191964,523.56537,156.60104,0.9665287,541.3928,209.28792,0.96462846,535.52356,203.38348,0.9162158,1.04592084,-0.86368937,-0.01154534,0.5897947
4,133.33333333333334,568.73773,79.1913,0.9497258,573.5582,75.00192,0.95416015,568.0041,75.79868,0.62265277,586.56866,76.39792,0.94061595,571.97345,77.46805,0.1867083,593.6123,98.6242,0.997644,575.2498,97.23001,0.9680935,584.8865,129.86084,0.9955764,561.5179,123.425385,0.8331116,554.05206,137.178,0.9903138,547.3744,136.64737,0.83818483,581.48285,149.06377,0.99639744,569.5864,144.54297,0.98613286,532.46124,160.24344,0.99170494,523.83356,156.45845,0.9657715,541.24567,209.33438,0.9638143,535.46344,203.15576,0.9146428,1.04128528,-0.85509178,-0.00024565,0.59421632
5,166.66666666666666,568.08514,80.15664,0.95275384,572.76373,75.756744,0.9572436,567.02905,76.72095,0.63957787,585.5545,76.3199,0.9431549,570.82904,77.86257,0.19530135,593.1193,98.04514,0.9977095,575.01917,97.1456,0.9688657,584.9083,129.5111,0.9955615,561.7902,123.628494,0.83302397,553.92487,137.08864,0.9902028,547.0224,136.72113,0.8375797,581.9342,149.10298,0.99632627,570.2831,144.75815,0.9858956,532.57605,160.22421,0.9915569,524.4251,156.58005,0.9652704,540.89844,209.46399,0.9634499,535.381,203.16586,0.9140203,1.05403739,-0.86491759,0.02038857,0.60207697
6,200.0,567.43054,80.5211,0.95802414,572.1771,76.10861,0.9615245,566.05853,77.08182,0.6762608,584.77655,76.61861,0.94532937,569.18066,78.28014,0.2144174,592.3802,98.18808,0.9977943,573.57733,97.56258,0.9708556,585.1321,129.30368,0.9954731,561.10956,123.89438,0.83763146,554.24786,136.95193,0.99000144,546.84735,136.8816,0.84025687,581.3872,148.56744,0.99625254,569.3065,144.34183,0.98585284,532.8643,160.40945,0.9912975,524.5344,156.75725,0.9648726,540.65515,209.57428,0.9623913,535.4029,203.18701,0.91258883,1.0580883,-0.86860227,0.02259938,0.60379649
7,233.33333333333334,566.483,80.52259,0.95699483,571.25104,76.14667,0.961476,565.28345,77.11903,0.66261774,584.15356,76.96387,0.94706076,568.7725,78.61222,0.20258212,592.0823,98.76307,0.99786866,573.2732,98.18722,0.96969515,585.1285,129.6644,0.99569964,560.63745,124.19887,0.83169794,553.5674,137.0525,0.9904358,546.127,136.69118,0.8366679,581.128,149.08084,0.9963653,569.0334,144.85025,0.98580015,532.8978,160.19467,0.9915969,524.3542,156.68433,0.9649769,540.81757,209.60857,0.96345955,535.365,203.47028,0.91334826,1.0592625,-0.87228696,0.01154534,0.60084875
8,266.6666666666667,565.17267,81.770325,0.9528496,569.619,77.32545,0.9587172,564.0922,78.40015,0.632595,582.3372,77.43855,0.94675404,568.1864,79.36531,0.18784374,591.35114,98.47528,0.99785197,573.1872,98.22987,0.9673716,585.2742,129.3861,0.995827,560.5227,124.28003,0.82412124,553.4868,137.17877,0.99063385,545.6788,136.42267,0.8316675,581.402,149.33966,0.996351,569.87244,145.20328,0.985329,532.9565,159.98628,0.9915724,525.26404,156.48174,0.96395874,540.53357,209.74722,0.96331006,535.67426,203.24489,0.91177636,1.06565655,-0.87916503,0.01400179,0.60207697
9,300.0,563.7405,82.2219,0.9476651,567.9446,77.78638,0.9548382,562.76263,78.9209,0.60227984,580.56885,77.78796,0.94514084,567.32117,79.86887,0.17500967,590.4519,98.56397,0.99776316,572.7459,98.30898,0.9648667,585.082,129.7563,0.9957926,560.18695,124.51248,0.81732035,553.4626,137.04364,0.99054104,545.77277,136.09967,0.82665825,581.47864,148.97675,0.99628,570.2988,144.81021,0.9848571,532.81537,159.4035,0.99150085,525.6331,155.71103,0.96327055,540.25116,209.50272,0.9632175,535.5736,202.50043,0.9111288,1.06565655,-0.87916503,0.01400179,0.60207697
10,333.3333333333333,562.38794,82.84349,0.9428473,566.1869,78.14745,0.951596,561.31323,79.5175,0.5733203,578.6356,77.285164,0.9442131,566.5797,79.92972,0.16550548,589.52734,97.946304,0.9976451,573.1773,97.650375,0.9623005,583.8735,130.51314,0.99568653,560.38007,124.604706,0.80948186,552.232,137.19055,0.9902755,545.0287,135.73804,0.82114214,582.10724,149.46393,0.9960051,571.8774,145.25568,0.9836911,532.6221,158.913,0.9909979,526.57825,154.91675,0.9609892,540.26697,209.9317,0.96151656,535.4459,202.03577,0.9072686,1.05192978,-0.85116145,-0.02014293,0.61779828
11,366.66666666666663,561.1867,83.4586,0.9509105,565.08514,78.555756,0.9556067,559.3568,80.1911,0.6339927,577.2783,77.21048,0.9424716,563.1451,80.61165,0.1936891,588.95337,97.647095,0.9975975,570.0875,97.96152,0.9677413,584.3503,130.2793,0.9952807,557.8987,124.06401,0.83446974,551.3505,138.11151,0.9897407,542.424,135.86311,0.8406019,582.30835,149.04936,0.9960373,570.3864,145.07079,0.98530376,532.9941,158.11333,0.9912252,525.29016,154.3154,0.96531284,540.6798,209.71436,0.96361107,534.7575,202.10904,0.91694015,1.04163819,-0.83175546,-0.04175972,0.62565893
12,400.0,559.35046,83.674225,0.9551306,563.31036,78.75894,0.9600502,557.42816,80.29512,0.6542751,575.7567,77.26512,0.9456254,561.25555,80.43344,0.19897202,587.2552,97.85206,0.9976286,569.2114,97.6862,0.9680587,581.7113,131.03903,0.99518305,557.1164,124.09384,0.8317465,550.1289,138.18819,0.9895147,541.74274,135.66684,0.8388165,582.87335,148.94286,0.995774,571.40533,144.88048,0.98440796,533.21234,157.47331,0.9907844,525.8706,153.46298,0.96372086,540.5535,209.47643,0.9623752,534.67535,201.62607,0.91459453,1.04328146,-0.83396627,-0.03856633,0.62565893
13,433.33333333333337,558.03076,85.03801,0.95211834,561.774,80.109406,0.9561643,556.13745,81.72801,0.6418267,573.96014,77.76313,0.94116706,559.9486,81.19255,0.19338004,586.6209,97.20282,0.99750406,567.64856,97.32303,0.9682682,581.51556,130.6296,0.99510443,555.07947,123.839066,0.84134823,548.7439,138.57903,0.98953,539.80597,136.07538,0.8474908,583.0597,148.43048,0.99597025,570.9788,144.41534,0.985615,533.2251,156.61458,0.9914102,525.0743,152.45644,0.9671989,540.62244,209.51723,0.96543926,533.83954,201.39952,0.92292017,1.05994109,-0.83691401,-0.02996874,0.64973219
14,466.6666666666667,555.9126,85.70167,0.9454687,559.488,80.79476,0.9517048,554.22577,82.49682,0.60190576,572.0284,78.50845,0.9394788,558.7291,82.121796,0.17290793,584.9915,97.71461,0.9973525,566.8695,97.96742,0.96415085,578.55566,130.96751,0.99504244,554.1012,124.6785,0.8276041,546.66016,138.75974,0.9893044,540.0853,136.26135,0.8367104,582.4886,148.1651,0.99582565,570.8971,144.23615,0.9846526,532.49567,157.05545,0.9912395,525.3079,152.58127,0.96557117,540.16125,210.31894,0.9648519,533.921,201.22931,0.92040724,1.03432769,-0.80891043,-0.05355071,0.64236282
15,500.0,553.1754,86.41717,0.942836,556.58606,81.41788,0.9505764,551.36487,83.17452,0.5895341,569.0722,78.765564,0.93945396,556.0804,82.574066,0.16694869,583.28156,97.83902,0.997142,565.057,98.24323,0.96091837,576.295,132.00594,0.9946536,552.8143,125.68872,0.8154657,542.5683,139.6476,0.9884532,537.821,136.46478,0.82651985,582.6146,149.00049,0.9950597,570.9092,144.97849,0.98194754,532.27045,156.3101,0.9895996,524.7819,151.0629,0.95942855,539.38574,210.21521,0.9593717,533.0712,199.79126,0.90907425,1.0484438,-0.80669962,-0.07934348,0.6649622
16,533.3333333333334,551.2131,86.65984,0.943792,554.6236,81.773315,0.9505994,549.1588,83.434456,0.59709525,566.84204,79.331665,0.9395741,553.2577,82.990204,0.1733893,581.5888,98.109024,0.997242,562.6902,98.62087,0.96335995,574.95435,131.77875,0.9948172,550.91986,125.55179,0.8274034,539.7594,140.49121,0.98874,535.5155,137.03838,0.83648926,583.0184,148.12341,0.99534684,570.81494,144.15816,0.9833536,532.76794,157.10632,0.9898774,524.8238,151.83473,0.9613352,538.69165,210.53613,0.95930773,532.62933,200.14435,0.91029316,1.05634663,-0.80645398,-0.10243415,0.67454238
17,566.6666666666666,548.37555,87.21266,0.9433836,551.7337,82.327354,0.9495084,546.18555,84.04562,0.60173637,563.9243,80.102394,0.9372096,550.10004,83.929634,0.17651546,579.0136,98.909966,0.9971085,559.9042,99.82573,0.9635123,572.13367,132.0215,0.994514,547.81335,126.196106,0.8307912,537.9963,140.60577,0.9881179,532.33594,136.19041,0.8389923,582.58295,148.08452,0.9951573,570.20886,144.51642,0.9832371,533.5212,156.85913,0.98951924,525.45526,152.06606,0.96134245,539.1404,209.64188,0.95851773,532.89136,199.75438,0.91061836,1.03547254,-0.78016992,-0.09236269,0.67454238
18,600.0,545.07446,89.37504,0.91709906,547.88477,84.009995,0.9218132,543.285,86.06153,0.5715425,560.6891,81.106316,0.90714586,548.8399,85.19426,0.1973432,577.9893,99.76962,0.9943293,558.8441,99.47461,0.9555511,571.20355,131.75378,0.9879865,546.573,125.38223,0.8213015,538.94684,143.30942,0.97186106,530.45685,137.24155,0.800252,583.2823,149.49103,0.9889002,570.08594,145.54852,0.9718373,534.90717,155.43932,0.97128963,527.6654,150.8996,0.9240045,539.55536,207.6885,0.8841373,533.66284,199.52277,0.7996165,1.02505155,-0.78704799,-0.07909783,0.651943
19,633.3333333333333,542.1437,91.7327,0.9335649,545.2098,86.75696,0.9334842,540.6525,88.56453,0.5822173,557.00146,83.03897,0.91865003,545.4068,86.65074,0.20367052,572.47974,98.79653,0.9960681,554.5139,99.982925,0.9689077,566.9772,132.22612,0.9918812,540.98474,125.19673,0.85740185,533.59216,144.3782,0.9843535,526.00616,138.11992,0.8620735,580.95935,147.15433,0.9947068,569.1978,144.60603,0.98514,533.57794,156.1326,0.99069387,526.35614,154.79233,0.9725998,540.6645,204.26868,0.96514934,536.9949,199.81439,0.9361617,1.01635084,-0.77108103,-0.07074589,0.65832978
20,666.6666666666666,539.0244,91.9918,0.9048784,541.365,87.25214,0.9182622,537.84875,89.28759,0.48637596,553.3469,83.88986,0.9260141,544.0564,88.0942,0.16588622,570.7574,99.79885,0.9966641,552.9453,100.8811,0.96303105,563.9403,130.96951,0.99375916,539.7159,125.338165,0.8395636,531.9801,144.92574,0.9840171,525.5173,137.69481,0.8262646,579.5471,148.38373,0.99602246,568.2692,145.60246,0.9873311,533.6957,158.59822,0.99031067,527.5263,155.6584,0.96776384,541.38806,206.11955,0.95774937,537.12537,198.91605,0.9141854,1.04748947,-0.78483718,-0.04175972,0.69247449
21,700.0,536.1235,94.41342,0.9182034,538.59595,89.55066,0.9319031,534.4344,91.76055,0.5349501,550.7156,85.21205,0.9332799,539.6749,89.88589,0.18072121,568.211,99.65853,0.9969608,549.3757,101.92709,0.96469617,562.94867,130.85661,0.993923,538.3862,127.54341,0.83459014,531.3178,145.43417,0.98397684,524.4125,140.3163,0.8185688,578.51074,147.33315,0.9962076,566.5418,145.17903,0.98763484,532.93854,158.52722,0.9911816,526.5387,156.32205,0.9698915,541.49445,205.08926,0.96271473,538.48395,198.62137,0.92264175,1.07184775,-0.82045577,-0.04421618,0.68829852
22,733.3333333333333,533.5434,95.32552,0.926774,535.8566,90.36463,0.93692476,531.39056,92.80767,0.58188695,547.61,85.696976,0.9341974,535.9833,90.96356,0.21085002,565.8624,100.074524,0.997036,546.2755,102.55223,0.9695114,562.15955,131.13206,0.99350584,535.55133,127.357895,0.8493397,530.6475,147.11774,0.98267317,521.6845,141.87819,0.82771355,578.3762,146.68326,0.99621946,566.2024,144.85397,0.9884979,533.3325,160.14513,0.991148,528.76495,158.17352,0.9717372,543.23444,205.44446,0.96295285,542.9941,199.02744,0.9263137,1.0371366,-0.79883897,-0.06411346,0.65832978
23,766.6666666666667,529.2267,95.89581,0.9083169,531.4726,91.809525,0.94352937,527.52747,92.720604,0.31960455,542.5914,88.93508,0.93659306,531.03326,90.613075,0.028914904,562.52277,101.178566,0.98941886,541.0661,100.29164,0.95031345,562.1657,135.07007,0.9906735,536.20734,129.36914,0.7558204,535.6498,150.72334,0.9850558,520.0978,145.92372,0.8194001,581.4455,144.36957,0.98075956,566.7418,142.15877,0.95668125,530.82874,157.57062,0.95910496,526.17017,154.81638,0.85417384,542.38074,203.34027,0.86426455,545.6645,197.90436,0.68896,1.01706011,-0.79711945,-0.01228227,0.63155443
24,800.0,526.26483,97.707214,0.91880983,528.401,93.47838,0.94871044,524.32104,94.48532,0.34755453,539.376,89.950874,0.940431,527.77466,91.91645,0.032896295,559.71405,101.62264,0.9911096,538.3911,101.349106,0.9574728,560.4025,135.8391,0.991029,534.87524,130.9592,0.76166546,532.8893,153.04065,0.98496073,518.7341,147.68704,0.81912065,580.1953,144.3014,0.9840835,565.59467,142.5807,0.96387976,531.7314,158.02116,0.9676164,527.1653,155.81058,0.8825906,543.2042,203.20432,0.8896804,546.16296,198.38986,0.7381263,1.06104562,-0.85042451,-0.00171952,0.63450217
25,833.3333333333334,523.89087,101.858864,0.9278879,525.774,97.321655,0.93278354,521.9582,99.538826,0.5369791,535.8709,90.99166,0.9291059,526.43097,96.15461,0.17608842,557.2787,101.94649,0.9972083,537.2592,105.860176,0.9698401,559.94824,134.66609,0.99454665,526.95715,131.3393,0.8586348,528.8162,154.86147,0.98820704,515.9167,149.42087,0.8622524,577.08405,145.18652,0.99714977,565.11176,144.41573,0.99088925,531.68396,162.5102,0.99525994,528.1641,161.9749,0.9839283,544.3685,204.43698,0.98375803,545.6447,199.055,0.96717906,1.06104562,-0.85042451,-0.00171952,0.63450217
26,866.6666666666667,520.9325,102.64649,0.9466927,523.27496,98.09128,0.9463328,518.18646,100.31978,0.6512274,534.0845,92.04004,0.92850983,521.07043,97.20859,0.23626074,553.3906,103.577644,0.9969284,533.53046,107.06047,0.9764266,553.2268,136.76584,0.99283797,523.98663,132.43532,0.8808171,526.01056,158.63481,0.9850772,513.2504,151.94016,0.8766985,576.2,143.50662,0.99662626,564.1212,143.01724,0.99098927,531.4351,163.1859,0.994517,528.73267,163.0014,0.9843999,543.26855,204.32751,0.9820893,546.45386,199.7398,0.9676943,1.10498434,-0.89906231,0.21592234,0.60502472
27,900.0,515.4047,102.56177,0.913929,517.52655,98.469734,0.92535186,513.74756,100.01376,0.54133517,528.9546,93.627396,0.9235135,518.44446,96.55496,0.1946507,547.9492,106.059105,0.9966426,531.2956,105.89975,0.96550584,546.4181,139.98447,0.9926973,522.62646,132.9111,0.84402657,523.6884,161.30804,0.97987235,514.81604,153.09601,0.8200356,574.3723,142.17531,0.9960665,563.6939,140.52602,0.98843455,530.29486,163.90071,0.9920513,528.0993,161.90459,0.9753906,543.541,205.59393,0.9694178,546.3219,199.49344,0.9408125,1.17090969,-0.99904,0.14296565,0.59372503
28,933.3333333333334,512.947,104.269424,0.89439154,514.68536,100.054276,0.9034345,511.28622,101.80244,0.49238738,525.7545,95.06095,0.90712935,516.02344,98.48923,0.18299435,545.62036,107.431015,0.99613225,528.48834,107.39241,0.96471524,543.1701,143.107,0.99219054,519.10205,136.1875,0.85646975,520.68286,163.79474,0.9789873,513.3686,155.9686,0.83298486,573.5102,141.86577,0.9961092,562.24835,140.44028,0.9892786,530.3564,163.71617,0.992307,527.25635,161.91539,0.97765476,544.15094,205.12076,0.970574,544.6941,199.07007,0.9452185,1.17159796,-1.00911147,0.18816441,0.56473887
29,966.6666666666666,508.76257,105.456406,0.91819334,510.64157,101.16903,0.92359227,506.6225,103.07593,0.5821199,521.60016,96.85733,0.9148518,510.2377,100.590324,0.22688818,540.5374,109.32421,0.9965082,524.4727,110.29545,0.97054344,540.18756,143.49585,0.99197716,517.36365,138.36246,0.8690913,519.67664,165.81854,0.9781179,512.3753,158.30463,0.8427702,571.5751,140.43991,0.9963581,560.55334,139.87837,0.99043816,530.6212,163.54137,0.9930609,526.6505,163.63902,0.9808708,545.3313,204.6767,0.9738694,544.1319,201.19025,0.95271784,1.10303758,-0.92608331,0.28077274,0.52936592
30,1000.0,506.1353,110.95747,0.90823966,506.99493,106.22021,0.9177102,504.05008,108.777176,0.57391536,517.24805,99.65232,0.9101391,508.768,105.00304,0.23515967,538.1754,109.93027,0.9949563,524.42535,111.22251,0.9656145,539.4039,144.15808,0.9884983,517.3343,137.65962,0.8543867,520.20654,170.49718,0.96957594,510.4164,159.17151,0.8225256,571.57477,140.40456,0.99307775,562.6369,139.99536,0.9838806,527.94006,162.41818,0.985329,527.116,163.87527,0.9635568,544.1699,203.76035,0.94272614,543.4999,201.99895,0.90255004,1.04885652,-0.8860431,0.26554272,0.49448427
31,1033.3333333333335,502.4375,111.982704,0.8749834,503.17892,108.35387,0.8805342,500.72696,109.6759,0.417786,511.89594,103.331085,0.89329505,505.50467,106.17629,0.16414423,532.5137,112.3847,0.99537826,521.252,113.1625,0.96059555,536.4951,144.84886,0.99206007,514.66113,138.70975,0.85588664,516.7785,169.94858,0.9825904,505.80664,162.91257,0.8575417,570.26117,138.70586,0.99612844,563.165,138.2115,0.98942554,531.1857,166.41461,0.9934695,529.8117,165.90611,0.9811716,543.7978,204.96945,0.97768265,542.4841,199.69717,0.9597666,1.08923049,-0.9184683,0.4335642,0.39352399
32,1066.6666666666667,499.38052,115.03166,0.8861874,499.74313,110.90447,0.8959315,497.30292,112.77224,0.46362948,508.2794,105.09496,0.89104766,500.4414,108.727005,0.16860458,528.66254,114.20243,0.99624264,518.6946,114.38648,0.9538993,534.29376,147.35574,0.9932721,512.7261,139.42458,0.8321531,516.42346,172.1075,0.98285174,505.26105,164.77898,0.8330162,569.3752,137.14313,0.99642676,562.5729,136.89677,0.9888833,528.5059,164.29797,0.99369377,530.26276,164.94351,0.9793802,544.4611,205.24794,0.9770264,545.0542,201.14899,0.95417285,1.08923049,-0.9184683,0.4335642,0.39352399
33,1100.0,497.489,119.75688,0.8814748,497.91623,114.985466,0.8989142,495.0161,117.41025,0.4810688,507.40628,108.14494,0.89980936,498.84113,113.44873,0.18935211,528.7252,115.84726,0.9937801,516.70294,117.23042,0.9522905,535.805,149.3421,0.9877708,511.56995,141.48178,0.8140782,517.4825,176.90065,0.97002393,502.688,166.8797,0.7948107,568.5875,136.66222,0.99156636,561.36664,136.76974,0.97849107,527.3868,161.43628,0.9848577,527.5927,164.1529,0.9587168,544.4712,202.46144,0.9436228,544.46344,201.58081,0.900601,0.97590488,-0.86196985,0.30926761,0.33727119
34,1133.3333333333333,495.27673,120.93454,0.8997236,495.9565,116.47647,0.90862375,492.70795,118.60855,0.5110633,505.78915,109.516426,0.8892811,494.8384,113.853836,0.17107573,526.40436,117.40705,0.99573034,513.8782,117.86827,0.95262814,531.8767,152.8234,0.9922571,507.29675,144.96883,0.8322546,514.36786,176.64612,0.98158294,500.84137,169.53142,0.83717406,568.94696,135.33594,0.99539053,560.2021,135.4058,0.9864839,527.93164,162.05946,0.9923071,528.62286,163.29132,0.97603816,545.4005,204.99918,0.97258174,545.9093,201.78708,0.94704956,0.92613898,-0.83224675,0.30754809,0.26554272
35,1166.6666666666667,492.1936,121.135956,0.91887707,493.49576,116.860344,0.9356531,489.18158,118.73146,0.5550088,503.86194,111.33766,0.9294973,491.2989,115.65144,0.19306453,523.50574,119.56067,0.9961599,510.3101,121.16571,0.9589608,529.5028,153.6186,0.9919369,504.59692,148.12808,0.8131567,511.583,180.43202,0.97933495,497.6378,171.58105,0.80547005,567.32794,133.2179,0.994288,558.89996,133.59373,0.98279953,527.3367,163.55338,0.9906488,527.82227,165.16273,0.96961313,544.54846,203.85516,0.96497357,547.6464,200.78394,0.9312979,0.91235306,-0.79024138,0.36527477,0.27291208
36,1200.0,490.94202,124.03473,0.9033904,491.82755,119.985886,0.9232088,487.9183,121.532394,0.5058779,501.50385,113.66934,0.9205899,489.5795,117.45829,0.1768415,521.3242,120.77435,0.9960602,507.6564,120.611725,0.95357716,526.3197,156.6347,0.99244237,501.58557,148.53958,0.8048382,507.562,184.6979,0.9798814,495.69824,175.68091,0.79799193,564.6136,132.04332,0.9944121,555.74725,131.61755,0.9823538,527.42163,165.09882,0.9905585,527.5632,164.67899,0.96796477,543.61694,204.99442,0.9637913,545.7727,199.0777,0.92705834,0.95245141,-0.8189819,0.40408675,0.27045563
37,1233.3333333333335,489.8393,125.610245,0.8869311,490.36398,121.565186,0.90615594,486.80835,123.28868,0.47177953,499.1637,115.02626,0.9056878,487.70422,119.2639,0.16965733,519.0026,121.21155,0.9957979,503.94507,122.020386,0.9501645,523.99365,156.35083,0.99270576,497.66055,150.11507,0.8069752,504.30374,187.63412,0.9800044,492.24707,180.4031,0.79686415,561.217,132.14871,0.99467385,551.1156,132.27757,0.98296183,526.8178,165.30865,0.9904722,523.92474,165.39462,0.9672357,544.69525,203.8347,0.9633076,542.214,197.98425,0.9250572,0.91374547,-0.82217529,0.33211263,0.2205896
38,1266.6666666666665,487.2601,128.45218,0.880948,487.9551,124.713776,0.90229136,484.61508,125.996185,0.4569451,496.53674,117.96858,0.9043269,485.44803,121.038574,0.16407986,515.67816,123.6461,0.99588364,500.67368,122.67346,0.9490135,519.8138,160.72412,0.99300075,493.92822,151.35596,0.8048847,502.24442,191.89008,0.9798549,488.1282,182.52788,0.7902301,558.9288,133.41399,0.99492884,548.62866,133.09264,0.9834917,525.3071,166.68687,0.99082255,520.3583,166.47258,0.9677605,546.1549,202.03003,0.96503806,540.5957,196.68047,0.92726076,0.90068526,-0.82070141,0.31319794,0.19897281
39,1300.0,485.28366,129.67198,0.90737,486.73227,125.694885,0.9237569,482.10428,126.889755,0.54369164,495.94794,119.8024,0.91119117,481.13953,122.623825,0.19104873,514.4693,126.39798,0.9961092,495.43912,125.69858,0.95319283,518.185,164.54988,0.99261874,488.80716,155.70511,0.8030458,498.9543,195.53172,0.9784396,484.22363,186.4379,0.7835433,558.0239,133.58289,0.9941028,544.7761,133.5634,0.9810976,526.212,167.65936,0.9889235,517.3058,167.53561,0.96153235,549.21545,202.67484,0.9575627,540.4088,197.41158,0.9125609,0.85922579,-0.75658795,0.32425198,0.24638238
40,1333.3333333333333,484.60825,133.68324,0.89826035,485.5285,129.55891,0.91411793,481.32648,131.32306,0.53204125,493.9295,122.993256,0.9020505,480.02274,127.04068,0.19808955,512.2273,128.59256,0.99586296,493.76184,129.05818,0.95202506,517.0812,166.24281,0.9922442,486.4271,158.17424,0.7987916,496.06943,197.93605,0.97688454,480.06516,188.93346,0.77565515,555.08203,134.56924,0.9938344,542.5567,135.3489,0.98044044,523.9441,168.96896,0.98842865,518.2226,170.39816,0.9601367,549.99426,202.79785,0.9558969,544.6695,198.96889,0.90926194,0.79695021,-0.71851291,0.2210809,0.26456014
41,1366.6666666666667,481.20175,137.11691,0.88074774,482.32928,132.7638,0.88129497,478.13306,135.04727,0.48607954,491.54245,124.8855,0.8409387,477.03574,129.6265,0.1552732,510.82144,129.19307,0.99301153,491.0803,131.4728,0.93808126,515.52966,171.05501,0.98952186,483.54913,164.38678,0.80698675,492.52042,198.15596,0.9790333,476.43015,193.38098,0.82763267,555.4527,136.9839,0.9910495,542.1506,139.17012,0.9753735,522.5796,169.35962,0.98345906,517.8684,173.27487,0.9504588,553.0655,204.86319,0.9463154,548.16614,204.5078,0.900754,0.79695021,-0.71851291,0.2210809,0.26456014
42,1400.0,477.77698,138.87775,0.8802217,478.5374,134.5054,0.87025464,474.92633,136.98947,0.50792915,487.1036,127.05032,0.82336146,474.02994,132.09082,0.18061705,506.1323,131.4025,0.9924725,488.64728,134.19992,0.9500812,510.4402,174.39233,0.9881451,480.2456,168.5844,0.84676623,488.76013,204.23694,0.97597367,470.9209,198.62532,0.85109216,553.0893,135.88861,0.9917474,540.6441,138.42804,0.9805352,520.3348,168.00409,0.9851307,513.1409,172.501,0.9613597,553.5878,203.30322,0.95342493,542.818,203.58246,0.9208121,0.822567,-0.69124627,0.30681115,0.32351504
43,1433.3333333333333,475.96286,142.08873,0.86583644,476.58936,137.68452,0.8526985,473.4326,140.0899,0.48515505,484.80682,129.33691,0.80659074,472.96353,134.04514,0.17772734,503.11154,133.18439,0.9909113,487.27866,135.10071,0.9483383,503.48895,178.70987,0.9861255,476.57306,171.28026,0.84980637,482.56235,210.06638,0.971265,464.58987,203.41852,0.84667885,551.7859,137.00826,0.99031633,539.9497,139.28047,0.97894543,517.2873,168.63116,0.98230433,507.60257,173.04565,0.95704603,553.00366,202.78137,0.9463461,536.6599,203.50885,0.91255796,0.85598882,-0.68019222,0.41907112,0.30730244
44,1466.6666666666665,476.3621,142.78535,0.90999603,476.58716,137.72635,0.8832441,472.71286,140.85591,0.6491419,483.10025,129.9903,0.7932904,469.27142,136.57016,0.28816378,499.5162,135.8656,0.99130684,482.78906,140.5872,0.96357065,498.16632,180.58098,0.9829889,470.52264,178.00352,0.87577957,477.18994,212.47133,0.9639954,456.2121,210.33484,0.8601843,546.6913,140.29175,0.9889481,533.9138,143.93591,0.97932416,515.78577,171.49414,0.9787127,503.39166,177.35608,0.9552014,552.9071,204.69315,0.93716174,530.2254,205.91565,0.9054687,0.80002243,-0.72342582,0.10292544,0.32572585
45,1500.0,473.65878,148.96777,0.8994419,474.33148,144.1563,0.894406,470.2547,146.9205,0.57804376,481.20328,136.14203,0.85221195,465.99023,141.86278,0.23828825,497.5544,140.41052,0.9955837,474.71234,145.72563,0.96197766,496.23138,182.42615,0.992253,463.8234,182.04753,0.84847677,468.29016,219.89598,0.97528017,449.84497,215.80096,0.81271744,540.8862,145.22339,0.995014,523.5227,149.26367,0.986251,515.9207,174.82478,0.98953384,495.1419,181.94693,0.9680071,555.0046,199.27895,0.96475995,527.0557,202.79999,0.9311521,0.86736226,-0.58832083,0.57824936,0.26799917
46,1533.3333333333335,469.1398,154.02011,0.877234,470.12323,149.68729,0.8660477,466.67493,151.93678,0.54552776,477.28702,142.23703,0.83840996,464.11737,146.55197,0.24811432,493.65894,146.36443,0.9945168,471.22568,150.39586,0.96640134,491.1952,187.708,0.9900248,459.26846,186.15906,0.873666,463.05347,225.35437,0.96819425,443.28375,219.61066,0.8272704,535.9634,150.61494,0.9945885,518.9094,154.10655,0.9875749,513.2889,179.05771,0.98871803,492.1414,185.38887,0.9715673,551.45026,200.70691,0.963608,525.5184,205.14096,0.93712324,0.81899394,-0.76862458,0.00515855,0.2827379
47,1566.6666666666667,462.19897,160.22429,0.82637304,464.08237,156.67169,0.7628595,460.35782,157.70374,0.45101517,472.73367,148.61047,0.69042724,459.41132,150.41718,0.18382709,488.70477,148.71439,0.9789554,465.2412,149.62479,0.9537488,485.46228,193.12375,0.9731171,452.3912,185.17447,0.89783597,462.6436,227.32635,0.95065963,439.41183,224.3558,0.8707593,533.7158,154.758,0.98232186,516.10205,157.2046,0.9739484,514.3079,187.79028,0.95509815,486.99103,193.67694,0.92718714,547.5832,209.06892,0.86462104,512.6443,215.29897,0.8320982,0.91470983,-0.81234947,0.10538189,0.40703449
48,1600.0,464.8335,167.21579,0.8434039,465.4917,163.34854,0.8108952,461.62723,164.77055,0.51941097,471.12747,155.18095,0.75344735,456.56256,158.52013,0.24872008,485.28003,155.3532,0.98973256,461.1691,158.37822,0.9560591,480.44925,194.11162,0.98517543,449.2919,192.08984,0.87737393,460.36685,227.6472,0.96055233,436.5977,225.18301,0.835716,525.1099,154.62561,0.9916055,506.18292,157.60945,0.98311734,511.42584,186.88443,0.9796903,477.36713,192.45236,0.95528346,539.8386,200.59602,0.9355377,493.17972,204.49312,0.89796937,0.91470983,-0.81234947,0.10538189,0.40703449
49,1633.3333333333333,458.127,173.27054,0.85790485,459.11115,169.29562,0.83200353,455.342,170.43317,0.5721579,465.69305,160.70326,0.77479625,451.0913,163.1481,0.2830117,481.90424,161.645,0.99063957,455.5025,162.98343,0.95771486,481.91748,196.85678,0.98363805,446.39203,193.3877,0.8758122,465.3562,228.58408,0.95279485,436.14804,224.18852,0.8238229,518.6718,160.1545,0.9919435,497.8305,162.36209,0.98432606,510.63885,195.60013,0.9786316,474.09415,199.75293,0.95599735,538.1726,202.5621,0.9274016,489.1269,206.75238,0.8880833,0.76163136,-0.62860668,0.1184011,0.41342127
50,1666.6666666666667,453.92957,179.52126,0.8525939,455.21436,175.49884,0.84726596,450.6915,176.96048,0.5313518,463.58838,166.15329,0.8056757,447.2349,169.78871,0.22424917,480.2606,164.1682,0.9912272,452.17108,167.35347,0.9492818,483.92987,196.12537,0.98774767,444.01877,194.49222,0.86480546,467.3015,227.83852,0.9667854,436.32556,226.36395,0.82579345,513.6903,163.03665,0.99347913,492.1512,166.09248,0.98497134,510.40466,196.53542,0.98187524,470.15482,203.79338,0.95661014,534.413,201.17926,0.93864715,480.3244,209.4114,0.89624774,0.82427183,-0.67184028,0.15770437,0.45075938
51,1700.0,450.6729,183.71172,0.8559344,451.64218,179.689,0.8455348,447.24948,181.19272,0.5506858,458.7586,169.46057,0.79308814,442.44324,173.0452,0.24912485,474.77475,166.6625,0.9918829,447.3285,169.79433,0.9497694,481.0821,197.84625,0.9880397,443.16663,195.39792,0.8580435,463.69205,229.50749,0.96697426,436.65796,226.09799,0.8216912,510.13107,165.8708,0.9938346,489.4982,169.44102,0.985327,508.1919,198.6915,0.98380774,472.76685,207.05447,0.9601818,535.5158,200.01254,0.94722354,488.94263,209.71786,0.9084365,1.59124654,-0.28912468,1.46674892,0.54508723
52,1733.3333333333335,448.9606,184.86531,0.8647829,449.45947,180.64294,0.8339696,445.25293,182.44022,0.6085778,455.0929,169.96033,0.75088835,439.1256,174.1415,0.31590983,470.72574,167.76984,0.9907454,443.10968,171.92653,0.9551741,481.44617,197.94632,0.9842731,442.0462,196.95862,0.86649907,465.882,230.34467,0.95825803,436.78287,226.70497,0.8259901,505.30566,170.64801,0.99188995,485.501,174.99419,0.9828954,505.0716,201.43518,0.97800136,475.59442,210.41212,0.95238185,533.4672,199.82034,0.93217176,496.88864,209.57242,0.8911933,1.27491379,-0.29477453,1.18966086,0.35102733
53,1766.6666666666665,446.35132,184.72324,0.86661786,447.17502,180.33469,0.8400821,442.6497,182.1495,0.60984474,454.20126,170.324,0.76205325,438.00858,174.66316,0.30346087,469.73306,169.83789,0.9902445,442.53424,172.40175,0.9531655,479.48987,199.27061,0.9840746,440.42578,195.19974,0.87234426,466.17468,228.98347,0.9588998,436.43372,224.72325,0.83469427,500.08807,174.80113,0.99183005,479.3967,178.36882,0.9830768,506.92114,202.83034,0.9760099,470.64307,211.2688,0.95017976,534.01044,199.61362,0.92605007,484.42804,209.73433,0.884099,1.18808869,-0.38050479,1.10073721,0.23483704
54,1800.0,444.96378,183.62607,0.89956343,446.60217,178.78836,0.8784418,440.8802,180.85709,0.6961364,454.47736,169.11359,0.7881927,435.88437,173.85748,0.35441956,468.4178,170.37823,0.99062693,438.85797,173.99185,0.9568838,477.6932,198.51237,0.9825791,435.88095,196.72377,0.86787313,467.2943,226.98141,0.9554047,435.14133,225.36923,0.827128,495.79233,180.42471,0.98973113,473.46368,184.99637,0.97907513,506.1786,204.27719,0.9675098,467.82675,214.42917,0.93427765,535.89044,197.46205,0.9048566,485.00644,209.67075,0.85335714,1.92284406,-0.71753033,1.56377887,0.85853081
55,1833.3333333333333,442.89526,177.75793,0.9229013,445.55087,172.55887,0.9002934,438.091,174.60309,0.7674702,454.7334,165.21014,0.79428923,432.60858,169.80222,0.41622233,467.42914,170.81723,0.9895216,435.54224,174.39505,0.96186197,475.43402,197.76129,0.97706455,430.9645,197.20302,0.8728682,466.71506,224.60048,0.94467807,434.2935,225.4176,0.8295399,493.46915,189.93674,0.9822974,469.53043,194.76251,0.9681028,504.76657,205.32047,0.93380785,467.73526,215.21748,0.88355935,531.51086,195.4548,0.82261217,487.0126,206.35994,0.7535744,1.30601145,-0.56179112,0.23778479,1.15477921
56,1866.6666666666667,449.42984,175.78525,0.9376605,450.79886,170.55972,0.8776804,444.67896,172.93866,0.8515124,454.03488,163.65344,0.6550906,434.2309,168.40778,0.6031582,461.97714,170.05362,0.98812103,428.02823,175.67334,0.97213644,472.72894,195.31645,0.9702794,423.64987,199.16925,0.90051645,464.4528,223.91675,0.9321496,431.75482,226.71628,0.8584573,482.2965,195.98447,0.9824355,456.75925,202.79756,0.9734125,499.304,199.03026,0.94598305,456.4353,212.30005,0.9177404,534.90027,196.79276,0.8746874,482.48883,210.61136,0.83413666,1.01935544,-0.44535518,-0.11348819,0.90987071
57,1900.0,450.341,171.40509,0.95604867,451.5805,166.10385,0.90549356,445.1632,168.53506,0.8969401,454.30304,161.20776,0.66378415,433.67523,166.08344,0.67315686,461.81448,170.43304,0.9889818,426.7615,176.18945,0.97679204,471.96606,195.81612,0.96932036,419.411,199.70901,0.9106453,463.51904,224.66939,0.93011194,428.7217,224.68103,0.87139434,482.61404,199.04944,0.979328,455.51297,206.10016,0.9703453,502.7552,197.98178,0.9287036,452.85367,211.82974,0.89711565,536.9802,198.42563,0.83189386,473.51984,212.08963,0.7853145,1.08678701,0.30754809,0.51511849,0.90618603
58,1933.3333333333333,451.96692,168.40407,0.96018517,453.07843,162.70674,0.8971465,446.6145,165.65802,0.9194436,455.29987,158.29547,0.60468495,434.49805,164.07693,0.7448189,461.85306,168.54922,0.9871029,425.87546,176.08185,0.9833994,471.3957,195.39482,0.9609571,416.47504,202.06339,0.938184,462.69678,223.57243,0.91688985,426.57074,223.38525,0.90213054,480.91162,197.46109,0.9815839,452.3696,205.63928,0.9791439,502.9277,196.31113,0.9388311,445.62137,213.62012,0.92931235,537.4901,196.58044,0.8586282,462.0544,215.33783,0.8393793,0.88329909,0.31663697,0.36404654,0.73988406
59,1966.6666666666665,454.6614,165.84866,0.9587321,454.8916,159.97827,0.86624694,448.65588,163.58904,0.93037003,455.61075,156.9589,0.50395125,435.0432,164.3475,0.8143822,461.40244,168.96129,0.9849378,425.22278,178.77913,0.9883709,470.71606,194.99902,0.94847524,414.25714,205.85135,0.9570316,463.02173,222.66287,0.8997515,426.66547,223.92896,0.9276345,480.35275,197.15056,0.9820676,452.4001,206.78741,0.984037,505.2853,193.13538,0.9455409,452.46732,212.05783,0.9505384,535.66986,194.12578,0.8810376,467.88254,213.62941,0.8827967,5.30167853,1.08378768,2.81190335,4.36192607
60,2000.0,455.21997,159.96567,0.9480984,454.90686,154.85663,0.799164,449.34006,158.17125,0.9244727,453.4989,154.89902,0.40187016,435.14273,161.69852,0.8527785,458.46753,169.3214,0.98212653,423.58405,179.97244,0.99117917,467.78918,195.10155,0.93291456,413.35663,209.5315,0.9684682,461.12515,222.31546,0.8760092,432.2774,225.14774,0.94204044,480.78406,200.76437,0.98080105,454.5732,211.51419,0.98614,509.8956,192.48016,0.9413803,465.00452,211.81828,0.9572038,535.42126,193.93285,0.8764623,483.8364,213.013,0.8936649,3.20916117,0.80522575,0.53403319,3.06025089
61,2033.3333333333333,453.98837,163.54764,0.92023194,453.88095,158.9325,0.68063426,449.36316,160.501,0.92258054,452.9818,158.88457,0.16659032,436.23288,162.15227,0.88302344,453.28287,173.50818,0.97767055,418.58728,180.948,0.9855839,464.54913,195.36101,0.8928407,412.40033,211.69041,0.93334657,469.4725,213.64789,0.84261966,440.74292,221.56567,0.8748841,451.2683,209.74954,0.9181161,427.1912,215.46063,0.92876095,470.9097,207.56299,0.5815942,438.90842,214.51591,0.6343243,460.44324,219.57324,0.32494944,437.45117,230.28131,0.37425202,0.28327308,-0.04814651,0.27585983,0.04274231
62,2066.666666666667,450.2913,162.32481,0.94867903,449.79822,157.89948,0.7934219,445.4191,159.34286,0.9496569,448.45633,159.4613,0.24310806,431.47864,162.42001,0.90203387,450.4846,176.90054,0.9798181,415.99753,183.84196,0.98387873,462.8313,200.64491,0.8936794,413.15945,215.75066,0.9135395,462.56543,218.13979,0.83922803,439.4818,224.71967,0.8476422,451.2583,214.53961,0.8629788,426.81494,219.82803,0.86878395,469.7219,216.9272,0.35086653,434.95175,223.61119,0.37714687,461.1914,226.7496,0.13709575,431.24127,237.208,0.15371251,1.35207215,0.36502912,0.91895959,0.92215298
63,2100.0,445.35083,163.17865,0.94118375,443.99985,158.61522,0.73286647,440.31888,160.77148,0.94500935,442.31857,159.98453,0.17350195,426.69324,164.89679,0.9161796,446.0698,176.58269,0.9768471,414.2651,187.55214,0.9845329,462.95557,197.445,0.8786219,418.1736,220.212,0.9262561,459.23862,213.29266,0.8327048,447.29633,225.16643,0.8719804,454.76688,216.80379,0.85387814,431.628,224.30223,0.8744228,470.87665,212.24875,0.3388312,438.264,221.3293,0.39842376,463.2412,224.14935,0.13778418,434.32867,237.8382,0.17049971,1.16414401,-0.08401074,-0.3475883,1.10786093
64,2133.3333333333335,439.01236,164.82037,0.9490038,437.85022,160.44739,0.79428303,434.1014,162.69661,0.94471794,436.79092,161.72517,0.2393948,421.46796,166.9241,0.89656556,441.81305,176.50343,0.9817462,412.26633,188.27496,0.9860722,461.41025,193.79271,0.9112697,419.1384,218.46416,0.9300507,457.88132,210.67206,0.8749441,445.5423,225.1011,0.8842918,455.71683,216.3581,0.88632613,433.2089,223.89343,0.89793783,465.4286,204.4488,0.4417776,427.52332,213.21643,0.47671267,466.7163,219.80504,0.22282559,426.83594,233.0278,0.2512126,1.16126899,-0.18963828,-0.41514079,1.06782073
65,2166.6666666666665,431.41196,169.19751,0.84956884,430.34604,164.34003,0.7028942,426.499,168.17586,0.7101723,427.20297,163.89682,0.46976623,414.74203,172.46747,0.5272552,435.80573,173.38544,0.97623616,408.3227,192.80841,0.94446653,454.10858,189.57106,0.9495967,419.64636,223.22372,0.8314741,455.87616,212.31625,0.910009,448.46033,224.85399,0.815334,466.99216,200.45834,0.9711354,446.07364,214.6886,0.95431215,497.2036,181.21497,0.9465939,456.9864,201.7683,0.9177611,531.28064,191.26166,0.9013331,485.5414,209.74452,0.8666068,1.10755438,-0.1129969,-0.26456014,1.06954024
66,2200.0,425.07675,173.30437,0.880744,423.92993,168.92471,0.76702815,420.53845,172.92053,0.7800568,421.75934,168.5292,0.55545413,411.2202,177.40762,0.6051063,431.87558,176.57391,0.97748613,408.79565,195.27754,0.9614736,450.63315,190.87518,0.9389326,420.62466,222.04358,0.8688824,452.85303,212.1162,0.89297384,451.4154,221.74724,0.8425915,468.1979,194.34367,0.97388273,450.69067,208.4442,0.9659029,496.8902,179.69498,0.95680237,462.89014,201.43343,0.94568413,529.4114,187.90523,0.92310494,490.82263,210.06767,0.90865594,1.04007065,-0.25866465,0.12945515,0.99904
67,2233.3333333333335,414.35162,179.0424,0.8356046,413.62714,174.70282,0.67988586,410.2694,179.0253,0.7101498,413.81155,173.57413,0.50688195,402.80185,183.2135,0.5682172,423.61487,177.33623,0.9757204,399.92484,200.10942,0.9664856,446.80774,185.88875,0.94902325,414.09036,224.1802,0.9076584,451.26727,211.77841,0.91427296,445.70102,221.04192,0.8822054,459.02863,191.9851,0.9790613,441.59247,208.16264,0.97393394,493.82477,180.16046,0.95325696,460.3638,205.55249,0.9441485,523.26733,183.48424,0.90483826,488.68185,209.14555,0.89089066,1.26850993,-0.0378294,-0.054042,1.26679353
68,2266.6666666666665,411.6258,178.28654,0.879498,409.91104,174.57745,0.64871675,407.60114,179.20233,0.8520569,407.09656,174.5517,0.39543658,399.03302,184.57866,0.8053069,415.86783,178.91455,0.96853715,396.91016,201.86362,0.98828375,443.32605,188.68192,0.8916371,414.30054,225.77739,0.96448565,449.7857,211.82375,0.8419927,447.52533,218.48352,0.9379983,457.23163,190.00409,0.977099,444.72833,207.17792,0.9854616,491.40955,174.47656,0.958392,473.3754,202.08798,0.97468764,519.6774,180.41473,0.92729425,509.7459,210.85652,0.9454564,1.17613687,0.18079504,0.00466726,1.16214857
69,2300.0,407.47586,182.6514,0.73323697,404.2492,178.19395,0.40292168,403.98148,183.06927,0.6490002,399.07605,177.76224,0.22465613,394.401,188.3964,0.5987501,408.34113,183.79233,0.93846184,393.1891,205.22958,0.96720004,438.84152,195.61072,0.8873235,413.12543,227.7233,0.9467678,442.62997,208.89297,0.86271787,438.63406,223.8902,0.92996025,449.33917,196.1373,0.96898615,437.2971,212.96384,0.97736657,489.42975,175.23099,0.93533236,461.59848,204.6748,0.9547731,527.0712,177.13463,0.89368224,490.19778,211.97574,0.911888,1.17613687,0.18079504,0.00466726,1.16214857
70,2333.3333333333335,407.9153,183.83316,0.71140736,404.72842,181.08157,0.30607963,404.89954,183.63814,0.66116595,400.5238,183.62108,0.10234194,398.33453,189.52007,0.76628083,406.9727,193.75748,0.96093565,395.76868,206.43748,0.97514695,432.96292,198.0864,0.8937019,412.8266,221.8892,0.9381595,441.10263,211.5523,0.88512766,436.8364,219.79529,0.91794056,435.43015,213.21646,0.9629638,427.06168,222.43637,0.97129864,450.32736,214.32283,0.85507315,444.72174,224.58006,0.89143836,454.3739,215.85242,0.7396784,453.02948,229.8397,0.7923389,1.24116972,-0.1048906,-0.11447077,1.23142059
71,2366.6666666666665,402.894,188.7733,0.8071373,399.98538,185.25789,0.4711368,398.6477,188.62177,0.74300385,398.0597,187.37642,0.14520878,390.568,195.234,0.7477988,406.7699,195.75351,0.9676558,391.04086,211.43088,0.9748034,433.345,197.48929,0.9145447,406.35236,226.57611,0.92627144,436.42844,210.89684,0.9109719,432.8299,222.22891,0.9160129,442.47995,210.8584,0.9693633,430.4157,221.27748,0.97397727,448.38992,217.1332,0.89073604,437.68695,228.4851,0.90544826,457.48346,215.08197,0.80181944,450.78802,230.53824,0.8272665,1.22011754,-0.0405315,-0.26234933,1.19088909
72,2400.0,396.74966,192.82773,0.9009189,395.1943,188.93628,0.6580997,392.44763,192.11273,0.8710886,395.70462,188.95007,0.22371528,385.3465,196.71202,0.8295686,403.12524,194.44804,0.9805387,389.17844,210.23807,0.99125355,422.87836,199.97723,0.92062235,402.57425,229.6028,0.97185564,427.99017,211.70076,0.9133638,419.23483,230.75584,0.95918864,439.28064,208.34085,0.98035,429.3102,218.36394,0.98798126,443.67975,216.20155,0.9254077,437.03497,226.57277,0.95167285,456.87228,217.46167,0.8566045,455.85208,231.09991,0.8957336,0.97180025,0.44412695,-0.34464055,0.79269783
73,2433.333333333333,394.5123,197.20738,0.76917464,392.36,193.68956,0.55923,390.78717,196.71352,0.57090926,391.81992,192.7389,0.30848166,384.14847,199.85251,0.46700317,402.1074,194.66214,0.9744684,387.41843,209.2236,0.9644913,423.1792,198.95425,0.96240526,401.17502,224.835,0.90215325,420.20233,213.23605,0.9557133,421.28186,222.76668,0.90498036,442.71503,203.52142,0.97959536,431.70877,213.11409,0.97658986,442.10513,216.04353,0.93980676,435.34286,226.09196,0.9217576,458.09885,221.43253,0.8684483,457.7779,234.40067,0.8463653,1.27513055,0.25080399,-0.4470747,1.16755277
74,2466.666666666667,378.0795,203.94792,0.77733165,377.23178,200.39897,0.74681365,375.39963,202.99185,0.37952745,380.3432,195.64828,0.65207946,374.59094,201.71571,0.15453698,394.64334,192.51672,0.9770915,383.55545,205.61324,0.9115576,416.9221,198.45447,0.97532505,400.15558,222.03624,0.7015754,415.9008,215.25542,0.96514237,415.12646,222.96457,0.7653645,440.39404,198.84955,0.9746935,431.96835,207.47244,0.95024264,435.805,213.712,0.9457781,432.59827,222.31673,0.8752641,456.91074,219.84724,0.8798829,457.0562,229.28789,0.79157317,1.08748082,0.34709701,-0.27708806,0.99265322
75,2500.0,6.6961975,138.42444,0.1290702,7.1513505,135.72772,0.052740328,6.0394945,135.81442,0.12979785,4.9319386,137.42343,0.07898088,6.524782,137.67786,0.33144736,5.9054093,152.03096,0.4908781,6.2477674,152.7909,0.7057872,16.1985,169.9121,0.23866357,15.57986,172.20619,0.6446614,28.684177,167.59569,0.2267209,30.799417,169.63449,0.5122245,6.631165,187.422,0.6383654,7.3712463,188.11528,0.7552381,8.969802,210.06625,0.5131429,11.314728,210.38362,0.66779125,9.700222,229.8458,0.41616592,11.552378,230.05058,0.5384246,0.99758001,0.40973659,-0.22845026,0.88039326
76,2533.333333333333,81.849365,124.31966,0.43069348,82.39649,122.56642,0.23385581,81.43492,122.82178,0.31992254,82.00093,119.8214,0.17001647,77.33838,120.28308,0.3312788,77.8686,116.79979,0.91910774,69.34481,121.35251,0.84517837,92.133484,116.74704,0.8843103,77.514336,130.3231,0.7129238,104.1351,115.71539,0.8671338,95.192825,128.38167,0.71537524,71.4112,126.71156,0.95243454,64.92141,130.09097,0.9304787,80.56585,122.175705,0.9255626,73.90011,126.509415,0.8960127,90.99467,134.40364,0.8913615,83.99676,140.81924,0.86087954,1.1650778,0.37657446,-0.28937033,1.0638904
77,2566.666666666667,74.296844,123.51851,0.12544607,73.82676,122.42105,0.05783955,74.66969,122.55124,0.08786635,70.59677,120.16658,0.14727078,74.26498,120.58302,0.24163705,69.16731,118.12061,0.89381725,72.96112,119.21782,0.89635366,81.18027,119.2596,0.8715905,88.52174,120.85385,0.87980783,96.040794,116.71897,0.8505424,101.10722,117.35286,0.8433082,65.984245,124.584015,0.9824091,67.99458,125.702835,0.98254126,77.46182,128.11063,0.9755028,78.126465,129.14214,0.97612566,83.43359,138.93011,0.9632107,83.83234,140.43246,0.96334106,1.05815944,0.374118,-0.24982141,0.95777157
78,2600.0,377.27423,203.54976,0.47998556,376.6155,200.3678,0.23413679,373.7036,202.21237,0.32100856,377.04495,199.25986,0.13831086,367.3991,203.33435,0.32627174,381.63565,200.22063,0.8760199,372.14124,207.56935,0.84519356,394.47968,204.2191,0.7947354,378.7663,216.21056,0.7285428,398.36276,214.41313,0.781125,392.9985,215.19902,0.74042344,411.2411,211.28722,0.9200549,403.84448,216.85014,0.91339135,418.56976,209.17712,0.86008847,414.28232,214.50356,0.8484549,443.86124,220.48727,0.8067265,442.14117,226.70009,0.79318416,1.05808536,0.59495325,-0.16114341,0.86000468
79,2633.3333333333335,81.518196,115.30949,0.14247194,80.932884,113.73436,0.025287766,81.79461,114.05849,0.16880673,72.80114,111.62311,0.04504312,80.997986,112.770096,0.60864735,68.7403,112.35766,0.85419184,77.95933,114.13317,0.9656074,80.28034,116.06713,0.6853428,92.1563,116.88568,0.9746582,99.06506,118.36126,0.68982184,104.20008,117.00579,0.9463299,61.835793,129.2141,0.9728415,67.668465,130.52495,0.988863,80.41373,134.16724,0.931265,85.79594,134.94745,0.9750284,81.5337,142.69403,0.8857447,88.035675,144.28467,0.943975,1.2438755,0.66201446,-0.09359091,1.04890603
80,2666.6666666666665,382.54584,205.34396,0.5051066,378.05286,201.9313,0.29629868,376.41428,204.75005,0.46210527,374.43912,203.87791,0.1831818,367.26318,213.03879,0.44933942,386.00635,213.97095,0.72864014,378.68866,227.0461,0.8143827,405.7237,198.76347,0.5527038,398.79224,216.44443,0.72213817,409.22067,193.05206,0.55229735,406.17645,193.88635,0.73120695,434.3736,205.11479,0.6953427,432.19415,215.55031,0.75319684,484.5204,182.7348,0.6070327,487.07812,191.83075,0.69202,485.0579,185.36714,0.5720965,493.39172,192.59741,0.63159376,1.16426309,0.34046458,0.20093797,1.09508737
81,2700.0,81.26264,120.260574,0.1027253,80.99019,119.319565,0.04393305,81.57411,119.29579,0.071173064,78.085754,117.829956,0.11042308,81.61666,117.58348,0.20828925,76.21011,116.40703,0.8519896,80.02868,115.78612,0.8586976,85.828156,118.794495,0.81972027,92.01404,117.71662,0.85262066,100.939224,118.73255,0.7973825,102.814674,118.23934,0.814262,68.928535,123.88733,0.9759295,71.23956,123.57417,0.977229,72.36313,123.72862,0.97009397,72.78825,123.38959,0.97216225,74.98068,139.25224,0.95869917,75.900314,139.41768,0.9601407,0.97935072,0.44928551,0.43209033,0.75535973
82,2733.3333333333335,69.96267,121.4229,0.053069122,69.22033,120.44032,0.023177927,70.32931,120.443695,0.039755512,66.42056,118.169136,0.078881286,70.356895,118.07446,0.16372074,66.6028,115.31422,0.77679574,70.49419,115.365074,0.8057857,79.38612,116.4577,0.7665385,85.53044,117.127785,0.8358077,95.51994,117.827515,0.74641764,98.53248,118.6989,0.7923462,66.20574,122.60634,0.97531295,68.32771,122.99608,0.9778812,71.43325,121.425735,0.97457904,71.8655,121.524414,0.9777198,78.661995,138.31807,0.9683792,78.18963,138.55864,0.97079766,0.97935072,0.44928551,0.43209033,0.75535973
83,2766.6666666666665,375.7194,211.35507,0.78052056,372.23682,207.68518,0.7598454,371.05856,211.72763,0.54393977,372.8224,203.52475,0.6737673,365.59348,214.44801,0.32521352,390.19183,201.0987,0.97174644,377.78107,222.54639,0.8660866,414.28345,194.20293,0.94568956,401.83752,227.09354,0.62033355,399.60147,216.53201,0.874792,406.94406,226.98795,0.58577865,447.0573,194.33852,0.91432136,440.89725,208.27193,0.8216333,486.49387,195.32066,0.73699135,486.29834,207.79248,0.5531239,515.22015,189.712,0.52726763,522.0241,194.58992,0.39937195,0.96624293,0.40998224,0.3822243,0.78704799
84,2800.0,373.31256,215.11427,0.88753694,373.5443,211.08997,0.8821311,368.6569,213.89369,0.65043664,377.69427,205.50906,0.78758025,364.8474,212.7362,0.2745213,390.78592,201.26918,0.97733593,372.2222,213.13875,0.9067597,406.41837,208.65689,0.95276713,382.73126,225.77542,0.5893846,394.88992,224.57898,0.9230646,393.98184,225.5662,0.62790674,416.4618,205.26997,0.9019267,402.39316,211.81882,0.81375915,417.72507,216.83829,0.7060785,401.32993,223.40373,0.50222015,423.60492,222.95862,0.49314502,412.30234,230.667,0.3394853,0.91484941,0.34414926,0.36674864,0.76420296
85,2833.3333333333335,373.8114,214.70561,0.8954916,374.20224,210.24442,0.89168787,368.53275,213.26501,0.6710948,378.67773,204.58775,0.7925911,363.71228,212.39502,0.28269008,392.4451,201.08217,0.97823036,371.6573,213.86726,0.91160053,409.02087,207.69005,0.95491385,381.81757,226.44127,0.6013383,396.21765,225.2973,0.9266428,393.3196,227.97227,0.6388306,420.17642,207.90013,0.9048928,404.51993,214.81918,0.8203464,419.46646,219.78867,0.68597776,400.4376,226.64392,0.47651467,426.27484,222.48874,0.45959026,412.02164,230.6139,0.30919197,0.96262505,0.36060751,0.5600716,0.69493095
86,2866.6666666666665,373.7169,213.09949,0.8522477,370.81177,209.46353,0.8626292,369.08102,213.78294,0.6106645,372.9522,204.95258,0.8058948,364.96063,216.30487,0.3260911,391.98138,201.37755,0.985537,376.34683,222.41446,0.89788556,411.06982,201.8247,0.96767455,388.6858,233.07948,0.6134232,398.7561,225.3005,0.9042634,391.96487,236.41078,0.5555577,453.1547,196.53757,0.94401217,445.03375,210.52983,0.8574355,485.10242,199.812,0.82452446,484.74536,211.60678,0.6236702,517.85724,200.46945,0.63171846,525.8149,202.74953,0.4726111,1.00627661,0.39941948,0.64555622,0.66054059
87,2900.0,15.705858,131.27452,0.7319427,18.6558,127.675186,0.76254654,14.300762,127.88847,0.37351117,28.04371,127.98239,0.70920074,14.811057,129.12128,0.10475841,39.35385,146.18347,0.9366626,16.135727,145.60371,0.83955115,41.475132,174.05846,0.8724955,12.95693,170.03539,0.46927235,13.502377,170.9063,0.8208102,10.460436,167.77498,0.4813223,28.676647,193.8064,0.86777526,14.01525,192.00177,0.7862475,21.77132,205.01453,0.7287439,10.882696,203.28471,0.56747955,15.750836,234.52213,0.5307295,13.921186,231.9112,0.4027198,1.25264273,0.58414486,0.85853081,0.70058079
88,2933.333333333333,373.34848,214.0822,0.7659512,369.4759,209.83067,0.7631238,368.318,214.88696,0.5239609,370.69846,204.53445,0.69447845,363.99268,217.58974,0.30726433,389.7849,202.80287,0.97147083,376.65012,222.56435,0.8581019,410.68268,203.83878,0.93932664,393.29565,230.09544,0.5713967,399.2321,225.27574,0.8434462,397.0023,233.60797,0.50898397,448.4522,196.95728,0.9231302,442.08893,210.44536,0.83544457,484.2036,199.25801,0.8041494,486.14685,210.4297,0.63621294,520.59735,200.26843,0.6470905,526.728,202.21887,0.51874256,1.02424154,0.38296124,0.69984386,0.64236282
89,2966.666666666667,370.87732,209.5733,0.32626387,369.25488,206.01245,0.34431183,368.2901,209.28247,0.15310119,373.17245,202.17471,0.41424736,366.26538,210.11148,0.11547675,396.90253,203.01128,0.8438992,376.36517,213.79642,0.528697,410.82776,206.27567,0.78153306,390.08398,219.68082,0.30345714,397.91098,222.69992,0.6720683,392.05444,222.93784,0.36140883,451.7037,201.65125,0.8077109,438.5039,210.65984,0.6788698,483.30365,195.99637,0.78232044,480.83133,201.62709,0.65554976,518.83356,193.9332,0.74045295,526.0651,194.31467,0.6620085,1.04879793,0.38861109,0.66889253,0.7081958
90,3000.0,370.49835,210.47208,0.39703807,368.6232,207.02707,0.42389503,366.99762,209.95123,0.205455,372.55872,202.98634,0.441597,363.84656,210.76927,0.13612498,396.7775,202.55005,0.8503726,375.47476,214.077,0.54172814,411.1349,206.38834,0.77045095,388.6434,222.4306,0.3016416,398.27655,221.86421,0.6641024,392.6878,222.6671,0.3706822,453.7881,200.87845,0.79444623,440.03827,210.3913,0.6623368,492.21768,195.81372,0.77675086,488.75006,202.0102,0.65657896,515.31287,197.78738,0.7329415,523.2961,199.1821,0.6589292,1.23222405,0.6357304,0.74356875,0.74921859
