frame_id,timestamp_ms,nose_x,nose_y,nose_conf,left_eye_x,left_eye_y,left_eye_conf,right_eye_x,right_eye_y,right_eye_conf,left_ear_x,left_ear_y,left_ear_conf,right_ear_x,right_ear_y,right_ear_conf,left_shoulder_x,left_shoulder_y,left_shoulder_conf,right_shoulder_x,right_shoulder_y,right_shoulder_conf,left_elbow_x,left_elbow_y,left_elbow_conf,right_elbow_x,right_elbow_y,right_elbow_conf,left_wrist_x,left_wrist_y,left_wrist_conf,right_wrist_x,right_wrist_y,right_wrist_conf,left_hip_x,left_hip_y,left_hip_conf,right_hip_x,right_hip_y,right_hip_conf,left_knee_x,left_knee_y,left_knee_conf,right_knee_x,right_knee_y,right_knee_conf,left_ankle_x,left_ankle_y,left_ankle_conf,right_ankle_x,right_ankle_y,right_ankle_conf,acc_x,acc_y,acc_z,acc_mag
0,0.0,544.51697,115.38306,0.7794987,546.3771,111.13783,0.7858936,543.88245,112.95697,0.2559774,555.0227,107.28024,0.869585,549.95966,110.274994,0.116881005,574.6086,121.21176,0.99557614,557.0255,123.11966,0.946486,586.7135,155.06651,0.99394774,559.85834,152.27063,0.8260528,563.77246,168.74496,0.98532563,551.7349,169.51361,0.81607705,585.83185,170.82068,0.99701416,574.9887,169.53532,0.9896729,544.3482,182.53458,0.9935853,534.4459,181.92368,0.9771524,568.3681,220.44444,0.976344,560.4898,216.64326,0.94954425,1.03653108,0.02751229,0.91281845,-0.4903083
1,33.333333333333336,543.0553,116.89485,0.7838921,544.9421,112.6692,0.8065091,542.5871,114.48242,0.24795893,553.9547,108.17949,0.8851771,549.2048,111.160645,0.104850404,573.6403,121.35022,0.9958729,556.7088,123.34047,0.93717474,585.66156,155.3105,0.99442405,559.73083,152.95914,0.78913283,562.9128,169.34256,0.9859703,551.6845,171.35919,0.7846855,585.02795,171.549,0.9968021,574.6939,170.298,0.9875616,542.95056,182.60902,0.99318945,533.88104,182.07831,0.97272646,567.93384,220.6632,0.9750533,560.88873,216.7574,0.94271266,1.063284,0.05993749,0.93296138,-0.5065209
2,66.66666666666667,542.66016,117.42119,0.8334434,544.7596,113.089516,0.862238,541.7838,114.95926,0.30890837,553.9,108.11813,0.9107343,547.92194,111.22894,0.119457506,572.51624,121.391174,0.9966168,556.6401,123.43034,0.9373037,584.7842,155.50719,0.9948649,560.9679,153.02441,0.7576973,562.0007,169.53024,0.98638374,551.793,171.7348,0.7562424,583.705,171.94525,0.9965318,574.0951,170.80183,0.98513293,541.7176,182.86752,0.99257773,533.54626,182.78618,0.96730685,567.8236,220.78645,0.97297704,561.5494,217.31876,0.9340647,1.03239971,0.09481914,0.91822265,-0.46230472
3,100.0,541.92065,118.22534,0.85643727,544.1235,113.894485,0.8780059,540.8824,115.77675,0.351791,553.34393,109.01198,0.91510195,546.5079,112.20705,0.13352534,571.91156,122.31938,0.9968907,555.31396,124.5316,0.94574356,583.9768,155.96326,0.9950859,559.37756,153.55891,0.7820331,560.4557,170.2275,0.9871135,550.06506,172.4143,0.77849215,583.82996,171.87166,0.9965953,573.669,170.81981,0.98591936,542.36127,182.9276,0.9923844,533.6055,182.83315,0.9675465,568.6052,220.79579,0.9714516,561.93835,217.30804,0.9319409,0.98052358,0.09924076,0.89193859,-0.39499787
4,133.33333333333334,541.03973,118.14688,0.87225,543.4125,113.825516,0.8903096,539.865,115.724686,0.39009392,552.86884,109.42212,0.9193421,545.07837,112.70294,0.1458506,571.4963,123.040665,0.9970169,554.06635,125.58264,0.95037615,583.74915,155.70137,0.99500185,558.55865,153.92596,0.7925487,560.1206,170.21304,0.9869545,550.0998,172.76276,0.7860254,583.7972,171.97061,0.996564,572.9842,171.00648,0.98618823,542.9285,183.07037,0.99217457,533.378,182.76566,0.9675886,569.0095,220.76492,0.97068304,562.06433,216.89308,0.93142515,0.98004902,0.11152303,0.90667732,-0.35495766
5,166.66666666666666,538.84973,116.7841,0.8902889,541.24866,112.41154,0.9098212,537.6398,114.34815,0.41946638,550.81696,109.1974,0.931985,543.0928,112.4506,0.15230021,569.3504,123.94266,0.997329,554.26154,126.92656,0.95329046,581.6543,156.30835,0.99527836,557.87555,155.2328,0.7888007,558.7976,171.32376,0.98745316,548.0801,173.2219,0.7842522,586.4451,170.85184,0.9963103,577.0764,170.24506,0.98492694,542.4999,181.89568,0.9914847,534.465,182.58044,0.96378034,568.9564,220.92166,0.9669672,562.72577,217.85603,0.9219281,0.99189846,0.09555608,0.91355539,-0.37436365
6,200.0,537.61084,117.96596,0.8742962,539.871,113.71297,0.90015787,536.60596,115.52408,0.37584683,549.2972,110.28386,0.9297672,542.3567,113.280174,0.13538904,567.62646,124.55313,0.99735403,552.8142,126.85533,0.94602776,580.20905,156.79613,0.9956132,556.60895,154.97285,0.7663521,558.6168,171.2625,0.9879804,547.80945,173.60336,0.765712,583.4479,170.85843,0.9966126,574.2494,170.03563,0.9849797,542.06165,182.41028,0.99235255,533.89246,182.38876,0.96493095,569.42957,221.0097,0.9706323,562.2019,216.93085,0.926941,0.99199564,0.1238053,0.91404668,-0.36502912
7,233.33333333333334,536.3804,120.04253,0.8962465,538.6117,115.7619,0.92296475,534.7889,117.61618,0.4351893,547.8855,111.18553,0.9389867,539.6526,114.38666,0.15124667,565.6407,123.895325,0.99746835,551.8965,126.43175,0.9435874,578.84235,155.73259,0.99541724,557.184,154.3412,0.73631847,558.69946,172.02527,0.9870989,547.4153,174.20746,0.73803425,583.4528,168.50256,0.9962573,574.8675,167.86942,0.9826972,541.89404,182.38237,0.9919938,534.02045,182.54614,0.9616488,569.26184,221.3588,0.97041166,562.0286,217.12796,0.92431,0.96680347,0.11913804,0.89242988,-0.35225556
8,266.6666666666667,533.94794,120.24924,0.8589802,535.9098,115.86192,0.8908312,532.78217,117.537834,0.3850791,544.8474,111.68476,0.91949964,538.6728,114.389275,0.1680526,562.96185,122.73424,0.99493587,550.7944,126.28696,0.9344572,577.65515,151.54599,0.9894916,556.9146,153.60036,0.7014144,559.1347,171.77298,0.9736641,547.4474,174.01274,0.6946226,581.0618,165.79515,0.9930448,573.1791,165.44751,0.9746302,542.78076,183.49638,0.98813057,534.387,183.53198,0.9564586,564.6123,220.01608,0.9634591,558.0815,215.16644,0.92326343,1.01215633,0.06902637,0.91895959,-0.41857983
9,300.0,532.1123,121.704025,0.8686553,534.1716,117.18131,0.90053326,530.5129,119.09566,0.4178626,543.3771,112.944855,0.9223577,535.71716,116.37129,0.17486937,562.557,123.84346,0.99456364,548.7416,128.48833,0.93143976,578.2602,152.32837,0.9878418,556.3161,155.6733,0.68201846,558.24506,171.92241,0.9700586,548.195,175.03815,0.67413527,581.8402,166.584,0.99206674,572.8197,166.59976,0.9716833,543.5132,184.10178,0.98718053,534.34937,184.56244,0.95396745,564.677,220.70883,0.9626213,558.33923,216.30428,0.92248034,1.02298137,0.0594462,0.91699443,-0.44953115
10,333.3333333333333,530.00415,123.362656,0.8328005,531.6605,118.96423,0.87352806,528.5969,120.89325,0.34946075,540.2585,114.11108,0.91158503,534.30164,117.47089,0.15457855,559.7011,123.58769,0.9938379,547.73486,128.06165,0.9213581,576.36444,152.44748,0.987404,556.4609,155.49727,0.6674326,557.8652,171.91154,0.9688365,549.2002,174.00243,0.6616779,580.8904,165.55429,0.992397,573.1185,165.7428,0.9725886,541.8384,183.99722,0.98839605,534.2948,184.95851,0.95781785,564.2009,220.78781,0.966901,559.0473,216.89365,0.93061405,1.08461987,0.04225102,0.9747211,-0.47385005
11,366.66666666666663,527.57355,125.50725,0.7533533,528.64215,121.21582,0.81662047,526.68286,123.012985,0.23698092,536.7084,116.14819,0.89517164,533.968,119.0479,0.117430426,556.96326,125.09326,0.9922627,548.0175,128.28712,0.8948484,574.19977,155.31232,0.9865276,556.9151,156.04025,0.62304777,555.3199,173.07126,0.9667022,548.5875,173.38686,0.6283426,580.1868,166.95317,0.9914051,574.5585,166.73595,0.9679232,540.8031,184.55797,0.9872322,535.61804,185.17589,0.95206416,563.5345,222.03473,0.96380967,560.00366,217.81992,0.92283684,1.11038222,0.04102279,1.02286761,-0.43012516
12,400.0,524.60596,125.87178,0.8375298,526.04095,121.42438,0.8938176,523.13336,123.36096,0.33842254,534.6189,116.44092,0.9302028,529.7034,119.7766,0.14194363,554.556,125.993,0.99421114,545.99396,129.94658,0.90139335,572.98804,155.87231,0.9878155,556.0133,157.26103,0.5793206,552.49194,173.88083,0.9681521,547.0365,174.7586,0.5891838,580.07574,166.63965,0.99023926,574.73505,166.85928,0.95991206,540.6499,184.85971,0.98507786,535.96594,186.57455,0.9383198,564.5227,222.52344,0.9571463,561.4971,219.4814,0.9031841,1.14794477,0.1346137,1.05676668,-0.42766871
13,433.33333333333337,522.68475,127.93582,0.80962044,523.72766,123.87457,0.87057513,521.15814,125.359955,0.3005164,531.2248,118.66698,0.91850704,527.20966,121.01402,0.13833371,550.7664,126.53267,0.99362624,544.0994,129.63881,0.8980671,569.5122,154.81953,0.9877015,555.2475,156.3183,0.5943633,552.4711,174.01302,0.9678651,545.9882,175.12735,0.60452235,580.6279,163.84605,0.9907697,576.424,163.90598,0.9631603,541.55286,185.50157,0.9859553,537.3026,186.14987,0.9432625,564.39874,222.83954,0.9591398,561.5222,218.11183,0.90922034,1.03066296,0.07762396,0.89906231,-0.49792331
14,466.6666666666667,521.82983,129.79575,0.81386286,522.7109,125.60211,0.8713639,520.11334,127.316925,0.3100189,529.7859,120.616104,0.914434,525.5235,123.584854,0.13795847,549.23267,128.48085,0.9932254,542.6181,132.81474,0.8952929,566.4227,154.89043,0.987402,552.91125,158.18163,0.5941836,548.6512,174.4071,0.968012,543.4496,175.73886,0.610165,581.4072,164.65536,0.98964334,577.1634,165.29778,0.9593764,541.4398,184.86652,0.9840934,537.2873,185.94691,0.93604815,565.3915,223.19554,0.9536472,561.7726,218.2511,0.8975203,1.08994783,0.02898616,0.97668627,-0.48293893
15,500.0,516.3126,130.82193,0.7873344,516.98236,127.148865,0.8546059,515.4068,128.53188,0.27164423,524.52075,121.93425,0.9083383,521.7222,123.957596,0.11369707,544.4437,128.86014,0.9945486,539.0798,132.11337,0.89069706,561.5375,153.85896,0.99150836,549.8124,156.47833,0.62490124,547.0206,174.98174,0.9761597,540.5308,174.30836,0.6392585,580.15393,162.6479,0.99341077,576.58936,163.21469,0.971667,542.8385,185.07605,0.98831356,539.0989,185.42157,0.9481747,569.4275,222.06934,0.96212333,566.36487,216.94331,0.9088466,1.18586847,0.08008041,1.07912042,-0.48514974
16,533.3333333333334,513.78577,131.59943,0.81070256,514.6696,127.79285,0.87352026,512.8739,129.24806,0.31021821,523.3858,122.86789,0.9193267,519.00836,125.2664,0.12546611,543.6697,129.62427,0.994882,535.6924,133.12416,0.90786844,560.15393,153.9636,0.9918268,546.50085,157.46272,0.6665629,546.32526,175.4899,0.976262,538.0978,173.84375,0.66403383,578.8938,161.13327,0.9927857,573.4455,161.48853,0.9709138,543.52985,185.60507,0.9842241,537.0539,185.11191,0.9345142,569.62616,220.9779,0.93949056,563.8296,214.9834,0.8619108,1.18720466,0.0405315,1.07027718,-0.51217074
17,566.6666666666666,512.4003,134.5725,0.8249432,512.9062,130.47046,0.8758784,511.2002,132.45955,0.35836157,521.3106,124.56204,0.9107,517.1466,128.22406,0.14836141,542.30646,130.29428,0.99366957,534.5329,135.39087,0.9158207,557.95746,154.66986,0.98927784,544.8758,159.7719,0.6960117,543.01495,177.47165,0.9707492,536.4763,173.7143,0.6872554,579.5056,161.57675,0.99067676,574.0442,162.70386,0.9680265,543.78436,185.50247,0.97964203,537.3385,186.43439,0.92788833,569.3121,220.80563,0.9251284,562.5569,216.37479,0.8458034,1.12134184,0.10931222,1.05529281,-0.36306396
18,600.0,509.77017,135.31071,0.84077686,510.5522,131.70601,0.8882038,508.70786,133.01001,0.3775166,518.4732,126.29544,0.9136495,514.6041,128.23387,0.15299636,537.65216,132.83958,0.994362,533.14685,135.8294,0.9152032,548.96924,157.98073,0.9895236,541.7695,159.90189,0.67722213,534.55084,178.56938,0.97071135,533.3774,176.56844,0.6725004,578.5862,163.50842,0.99254215,574.89716,164.35228,0.9731013,543.09656,186.8533,0.9869414,538.8859,187.51813,0.951254,568.00574,221.742,0.9593775,563.56854,217.63585,0.91241723,1.10879816,0.13854403,1.06806637,-0.26357756
19,633.3333333333333,505.92975,135.50496,0.8714724,506.6356,131.8489,0.91286814,504.86505,133.15784,0.4261018,513.99274,126.42464,0.9309069,510.86542,128.3108,0.17395286,531.76263,132.74425,0.9956708,531.71423,136.62755,0.92498964,543.7623,156.73538,0.9914027,540.9923,160.53606,0.68219787,532.9185,179.05832,0.9744606,531.6026,177.27747,0.67786133,577.1806,162.45169,0.9928919,576.3098,164.17499,0.9727491,541.79114,187.73735,0.9862938,540.1387,190.56293,0.94570965,567.24866,221.56335,0.9530902,563.9307,220.06848,0.8954413,1.14942678,0.12577047,1.10786093,-0.27929886
20,666.6666666666666,504.63525,136.52187,0.8785353,505.2909,132.85239,0.92185223,503.5018,133.98343,0.42067078,512.34076,126.972595,0.939117,509.20746,128.47824,0.16510403,529.60693,133.28522,0.9964006,531.072,136.36186,0.92247087,540.4815,159.35953,0.9930274,540.4468,161.4761,0.66292375,529.8884,181.75156,0.97825056,530.52124,178.38322,0.667322,577.6045,161.89017,0.9933549,577.60675,163.37637,0.97169614,540.7909,187.5404,0.98696053,539.87744,190.20764,0.94235027,566.8923,221.43025,0.95323855,563.5589,219.63602,0.8886002,1.11648611,0.13780709,1.07838348,-0.25424303
21,700.0,499.36694,138.02411,0.8516087,500.06525,134.39902,0.91542923,498.91858,135.46704,0.3362422,508.0908,128.34259,0.9442825,506.10852,129.6724,0.11920088,525.6459,134.1723,0.99650264,528.1302,137.05421,0.8956726,536.64624,161.35023,0.9940211,536.8215,163.32935,0.5922986,525.94696,184.46265,0.980415,527.31885,181.03862,0.6140177,573.57196,160.78445,0.99327034,574.1411,162.36581,0.9662408,539.0254,186.61816,0.9866868,538.5471,190.08327,0.9317227,566.00995,219.76558,0.9506707,562.4725,219.44373,0.8715516,1.11771204,0.14247435,1.08354203,-0.23434575
22,733.3333333333333,497.60107,139.91328,0.85312456,498.15723,136.21275,0.91105044,496.88016,137.4447,0.3539889,506.04187,129.7673,0.9368379,503.14316,131.52873,0.12770243,523.92444,135.09503,0.9963007,524.42566,138.06946,0.9022741,535.3368,163.05557,0.99371755,532.891,164.80707,0.62313795,522.27704,185.5267,0.9798972,522.9548,183.00143,0.6406192,571.2611,159.63507,0.9933055,570.37854,161.34506,0.96852475,538.8934,187.12773,0.98650336,537.3141,190.80678,0.9352036,566.69434,219.40227,0.94929665,561.64386,219.58917,0.873185,1.11663692,0.17711036,1.0855072,-0.19283167
23,766.6666666666667,496.51385,143.31418,0.80612904,496.60962,139.63701,0.87398714,495.86786,140.87694,0.2948812,503.90247,132.366,0.9135115,501.70514,134.19186,0.1125132,522.9005,136.82053,0.99491334,521.5627,138.8255,0.8849004,533.9933,166.3375,0.99227685,529.2683,165.84317,0.61742276,517.92584,189.16551,0.9765553,519.2971,186.20352,0.6381484,570.17224,160.14365,0.9922133,568.0417,161.42627,0.9659908,538.9204,187.47304,0.9852506,536.6096,190.17744,0.9340193,567.70013,220.61371,0.9473358,561.7548,219.7969,0.87385184,1.01617901,0.13412241,1.0071463,-0.01694954
24,800.0,495.1227,143.49307,0.6818428,494.5244,139.65477,0.74419856,494.55905,140.7335,0.18016624,500.19797,133.14108,0.86434525,502.62134,134.46085,0.12209753,517.27673,137.4313,0.9895839,522.16895,139.33249,0.8915139,530.4238,167.38344,0.98414975,532.6074,165.71288,0.6503661,513.612,191.06053,0.9565999,520.9169,186.52686,0.63650346,564.3377,160.8879,0.98721224,567.3587,162.7013,0.9584122,538.246,189.87004,0.9763017,540.30597,194.2235,0.92295605,563.1138,222.20319,0.91938305,561.2963,222.69081,0.8494134,1.07436955,0.33383215,1.02114809,-0.00908888
25,833.3333333333334,492.9354,145.75836,0.61087775,492.1688,142.22989,0.68261814,492.57074,142.95601,0.13685648,497.29712,136.00117,0.8465218,500.52353,136.48103,0.10552187,513.8339,139.46292,0.9888626,519.21655,139.96086,0.8756719,528.347,167.47435,0.9854683,530.23584,164.66087,0.6429935,511.79657,190.44435,0.9605101,517.0924,187.12863,0.6387315,559.365,160.17125,0.9882174,562.70087,161.23532,0.95990676,535.03394,190.59418,0.9776725,536.2562,193.02841,0.9241509,560.7931,223.90988,0.9212962,558.06946,221.96246,0.8490645,0.98715318,0.31737391,0.9346809,0.0108084
26,866.6666666666667,488.58554,147.10065,0.8142489,489.17944,143.82849,0.8724997,488.45868,144.37793,0.32568306,496.2218,137.0028,0.91391987,493.71765,137.01706,0.13688898,512.90094,141.34305,0.9952177,513.4269,140.68208,0.909378,520.11426,171.59366,0.991755,521.33386,167.14697,0.66904396,505.02655,195.37505,0.9741266,511.9793,188.94179,0.6684347,563.5891,158.07167,0.9932401,562.2298,158.40948,0.9736042,532.8314,188.15976,0.9884476,531.49554,188.21552,0.95312107,566.0069,220.99472,0.9601864,562.86163,217.63861,0.909681,0.87754457,0.33800812,0.80940172,-0.02652971
27,900.0,483.27206,148.56067,0.6756556,482.89868,145.17073,0.7399559,482.92215,146.12161,0.17054619,490.09906,138.5115,0.8486496,491.29346,139.49413,0.09698725,508.37872,141.11789,0.9867699,511.0403,140.72493,0.86599207,521.8143,171.3604,0.98305523,520.04706,164.90137,0.6329843,504.84402,194.17831,0.9602612,506.9862,188.85645,0.64995444,556.3146,158.63475,0.9812733,557.9228,159.3634,0.9411925,530.27106,189.64896,0.96184313,530.72406,191.5812,0.87964123,560.03,221.23781,0.8787809,555.80096,219.07211,0.7811558,0.75751912,0.27168386,0.70254596,0.08032606
28,933.3333333333334,481.90906,150.71872,0.7026128,481.29382,147.1752,0.7588914,481.4011,148.54178,0.19029559,487.95938,140.05878,0.8525055,489.34808,142.09834,0.10349504,506.20007,141.74966,0.9879248,508.882,143.03082,0.87440765,519.3218,170.80077,0.9846867,516.9935,166.79774,0.6485816,502.87225,194.84335,0.9637975,504.05725,189.78581,0.66501474,554.6111,158.62659,0.98169476,556.15753,160.1593,0.9417333,528.8758,188.8675,0.96094394,529.1267,191.48755,0.8744267,561.56586,221.46951,0.8727918,555.4696,219.01616,0.7682215,0.81834514,0.32007601,0.74921859,-0.07688702
29,966.6666666666666,481.12347,153.36493,0.6871209,480.65393,149.72125,0.7677957,480.41678,151.12555,0.16963284,486.8938,142.28964,0.882662,487.31848,144.51517,0.097193144,503.6946,144.25775,0.9925168,505.84598,146.32848,0.8855607,514.81036,172.27614,0.99080724,514.77106,170.3239,0.64816326,498.36923,195.9479,0.9730876,502.54797,192.30133,0.6483901,552.18494,161.0889,0.9915719,553.28595,163.0452,0.96661645,526.04144,190.61772,0.9836601,525.61926,193.21008,0.9329566,561.65826,222.39673,0.94019926,556.61786,219.33298,0.86909616,0.7692703,0.36945074,0.66103188,-0.13535064
30,1000.0,476.23123,154.08762,0.7825653,476.55392,150.63077,0.8609681,475.46298,151.8974,0.26807564,483.70618,144.14,0.91919446,480.52316,146.02176,0.11871434,499.9694,147.48657,0.9953461,498.60562,149.83928,0.89827186,509.5171,176.04756,0.9929517,506.3939,176.59903,0.6230724,491.5926,197.90277,0.9766467,494.99582,196.99213,0.62430406,549.40216,158.40042,0.99315953,547.8078,160.51245,0.9694772,523.5318,192.10733,0.9870701,522.9761,194.2128,0.9396918,563.3136,219.767,0.9530638,560.7669,217.00215,0.8853144,0.73132591,0.33874506,0.64604751,-0.05207683
31,1033.3333333333335,471.3796,154.2752,0.8067205,472.28857,150.92796,0.8822871,470.90643,151.65535,0.2902455,480.23743,145.29713,0.9346551,476.77393,145.7338,0.13005917,495.52408,150.45908,0.9960743,496.1141,150.68904,0.9109458,501.60062,182.47252,0.99324566,503.35095,179.53989,0.6284805,483.3193,202.22733,0.97567546,489.0831,200.09323,0.6159603,547.81635,160.42781,0.99271506,547.31195,161.88951,0.9677582,522.5759,196.25513,0.9847268,522.7254,197.9633,0.9301276,562.4497,219.7358,0.94090265,560.9038,218.03867,0.85927707,0.82834199,0.3876285,0.73177776,0.01989728
32,1066.6666666666667,468.40646,158.43121,0.6726777,468.6368,155.46658,0.78081465,468.01904,155.8966,0.14967564,475.81653,148.81886,0.9074321,475.01645,148.69458,0.08931932,490.0478,151.36734,0.9949261,493.5128,149.50122,0.88951945,495.54236,184.96396,0.99353,502.58917,176.95596,0.6234122,478.5187,205.80194,0.97561944,487.94592,200.41437,0.60080355,542.0116,162.84659,0.99422616,543.7689,163.88155,0.9732179,521.4843,199.2388,0.9873804,521.4066,200.84378,0.93975115,560.5153,219.81662,0.9502143,557.4691,217.75757,0.87883157,0.7180765,0.33284957,0.63548475,0.03168826
33,1100.0,464.6403,160.83682,0.7129595,465.04935,157.67464,0.8112309,463.79782,158.52457,0.18106961,472.04962,151.21347,0.9159403,469.494,152.23766,0.10012811,485.3704,152.96623,0.99571216,487.99387,154.45879,0.9022298,489.55826,186.09181,0.9941195,497.03894,184.34966,0.6300714,474.55112,210.10248,0.97594506,481.8526,207.0737,0.59229136,539.59595,163.81363,0.9950133,540.58826,166.59071,0.97621685,521.2602,199.50465,0.9894104,520.2983,202.8906,0.947492,561.8048,219.0628,0.9592405,558.65576,218.23152,0.8971278,0.77829741,0.29551146,0.71875856,0.04249666
34,1133.3333333333333,463.09003,163.22357,0.7815529,464.00766,159.936,0.8365704,462.75638,160.94714,0.3220292,470.18515,154.21558,0.9080957,466.23312,155.69194,0.16975906,484.00027,158.31517,0.9951509,480.47327,161.21036,0.9325636,482.6598,191.5144,0.9904585,482.5589,192.3766,0.7040862,465.92865,218.23843,0.9624747,469.7783,214.94725,0.63728684,537.7974,165.69792,0.9929559,534.20184,168.9488,0.9756777,521.24615,202.23477,0.9857787,517.9278,204.39105,0.94855654,565.0162,219.01064,0.9508706,561.642,217.6246,0.8967681,0.74593594,0.26333191,0.69689611,0.03758375
35,1166.6666666666667,460.42654,167.21158,0.7931641,460.74484,163.60501,0.81139785,459.41434,165.55585,0.39546087,466.2646,157.72386,0.8647694,461.39798,161.11404,0.22987156,482.12732,162.18178,0.9933698,473.6952,166.85904,0.94827366,486.41833,193.06015,0.9860541,477.77396,195.05847,0.7832712,467.1429,219.31311,0.9520722,464.91336,216.80106,0.7126994,532.6904,170.1253,0.99180484,526.2841,174.37932,0.9789003,517.5286,204.8772,0.982749,513.19904,209.1774,0.9535477,563.8387,218.20108,0.942824,559.6619,219.8607,0.8993445,0.78002333,0.26259497,0.73202341,-0.06018313
36,1200.0,458.61053,178.99751,0.6757046,459.1343,176.17651,0.7040331,458.52756,176.46692,0.29878175,462.76282,167.86421,0.8111882,459.70395,167.77571,0.19903126,476.40192,168.15324,0.98744655,468.77145,167.35687,0.9169779,477.18665,204.86351,0.9747747,471.1482,198.65076,0.71356297,464.23932,224.48434,0.9195673,459.3751,219.48997,0.62816894,527.2479,170.30316,0.9864877,521.1561,172.39005,0.9681299,516.7514,209.37024,0.97723824,509.19968,209.66507,0.9434259,563.8582,217.9617,0.9370009,556.0157,217.18,0.8938137,0.81262114,0.35053604,0.72318017,-0.12036627
37,1233.3333333333335,447.6483,179.30154,0.5572058,447.4422,176.90668,0.59676945,447.55872,177.28064,0.15684693,451.60455,170.82332,0.80134344,450.56122,171.12172,0.12658367,465.75275,170.85529,0.99172485,461.41595,170.54622,0.9150686,473.99753,207.23935,0.98852485,468.78186,201.89806,0.7439352,464.2947,226.85764,0.95807177,457.58264,220.58586,0.6713577,515.55554,173.02806,0.99420434,512.1891,175.52092,0.9819239,512.76654,210.8801,0.9878554,507.4439,212.3986,0.96129984,554.54614,219.89812,0.95733273,548.9108,219.067,0.91612726,0.64629002,0.17121487,0.51610107,-0.34930782
38,1266.6666666666665,445.77722,183.67883,0.46993434,445.31592,181.54869,0.4334473,446.5274,182.1041,0.14360496,449.59454,176.0376,0.68311024,450.85306,176.5661,0.15125135,464.31357,175.03532,0.9854982,459.3919,175.67543,0.9343166,472.73816,205.91483,0.9804263,467.0032,202.87764,0.8406581,464.45123,227.41357,0.9417406,457.49362,218.47342,0.77242845,510.79483,178.15652,0.9936771,507.1253,180.89182,0.98696625,513.08716,211.60663,0.9871975,506.98453,212.66243,0.97340775,552.3977,221.39642,0.95829874,548.13586,220.70337,0.93730855,0.50917714,0.09064317,0.43847711,-0.24245205
39,1300.0,448.76868,197.24802,0.6679408,449.00986,195.09727,0.6610569,449.09576,195.20978,0.31176305,453.19238,187.50253,0.7408702,450.14212,187.14638,0.19420172,467.84735,184.89809,0.98281074,457.11426,183.71815,0.9126684,474.6529,206.23988,0.9715929,462.02814,200.11412,0.77709395,462.94797,223.24904,0.93104917,451.33936,218.07773,0.7374965,509.27332,182.39893,0.98601574,501.26898,183.873,0.971563,509.13797,212.45073,0.9739401,499.66235,210.99583,0.9465803,549.3031,214.78311,0.9366331,540.55115,213.02281,0.9054077,0.91687739,-0.4686915,-0.30263518,0.72760179
40,1333.3333333333333,447.74377,198.1299,0.6586305,447.9424,195.49951,0.7441982,446.8225,196.2402,0.19373293,452.45663,190.51585,0.79692566,449.7556,191.62115,0.051587343,466.6523,187.8313,0.97591466,458.2042,190.98964,0.88331485,478.1297,204.90834,0.98045945,465.34225,207.82591,0.62622696,465.96347,225.01295,0.9664269,457.72083,220.41083,0.6949815,505.9559,187.14977,0.9855753,499.4104,190.6483,0.9656185,511.32498,207.96118,0.98236936,504.52734,210.83524,0.94508547,544.2158,224.91965,0.96319103,535.5843,226.08038,0.91374993,1.90706156,-1.16583326,0.55147401,1.40484627
41,1366.6666666666667,456.87177,197.09456,0.07823597,456.19336,195.09242,0.07851196,457.01346,195.6009,0.021290619,458.36902,191.53104,0.1956128,460.69522,191.87164,0.02523811,466.58456,187.72812,0.80171293,463.58063,189.91286,0.4781221,479.21243,201.72061,0.9252229,473.14166,206.1143,0.45562398,478.50516,222.51315,0.8987647,474.89105,221.04561,0.54482216,489.03094,187.32568,0.96308255,485.36707,190.57173,0.9216311,516.0361,209.71643,0.9562457,506.2471,212.90048,0.90351534,545.58154,223.58803,0.9170702,530.71265,225.97447,0.85249734,1.85898946,-1.06708379,-0.10169721,1.51882575
42,1400.0,367.70276,120.249054,0.7844388,368.00308,117.80373,0.43796775,365.16174,117.62967,0.79965454,365.1441,120.37096,0.17052725,358.49692,119.54764,0.80894834,362.74167,137.94415,0.8891496,354.13327,136.16232,0.95714843,366.7146,160.96793,0.38063246,353.00607,158.63393,0.8033009,367.25937,181.19403,0.29863065,357.65585,178.96025,0.6361147,353.38733,180.63869,0.8249973,347.74298,179.68861,0.8924632,350.27762,208.09003,0.5598933,344.99194,207.50606,0.7056135,343.58105,233.22607,0.39084917,337.2315,233.76253,0.5101802,1.89763318,-1.00640937,0.01154534,1.60873198
43,1433.3333333333333,24.594856,114.3927,0.32272634,25.018585,112.01764,0.1530994,26.828335,112.10529,0.151537,26.35997,116.321884,0.490403,38.846718,115.7249,0.45546007,22.912958,135.17651,0.93478084,47.681095,133.14926,0.9710697,7.4534016,152.42865,0.84662676,66.76886,142.79921,0.94208485,3.4558582,168.02649,0.76785845,84.09775,142.34393,0.87688583,23.55447,180.08098,0.9700714,39.40611,179.09634,0.97949356,13.567825,210.55328,0.9030587,36.29052,208.97296,0.9348358,7.1799583,227.36888,0.7147991,38.208862,225.2653,0.7753036,1.54760594,-0.66790995,0.16581067,1.38617722
44,1466.6666666666665,406.6227,167.66592,0.6355864,406.31927,165.45697,0.4667833,405.67578,165.72673,0.46189448,403.71442,167.38344,0.5045797,402.07657,168.0531,0.44303805,415.02448,181.86208,0.95571697,401.45486,183.31635,0.93796027,421.94678,201.14514,0.8548075,407.70908,198.95831,0.8099113,420.9749,203.19951,0.7384578,416.45554,200.17047,0.73720974,459.1501,201.15462,0.9682217,451.22028,206.84834,0.96644306,493.74353,212.64005,0.95977193,488.89932,213.60367,0.96091145,531.0019,218.0258,0.9367124,535.6365,220.09283,0.94090873,1.08533964,-0.80841914,-0.06534169,0.72121501
45,1500.0,407.28677,167.76488,0.6047771,406.76767,165.56721,0.4284035,406.08755,165.9639,0.44504854,403.34906,168.04414,0.4704571,401.89603,169.10138,0.4438188,414.46072,183.29993,0.9473655,400.82837,184.71832,0.93069744,420.682,202.88701,0.82868046,406.57593,200.54117,0.7929832,420.533,203.3981,0.7043887,414.7589,202.3531,0.71573687,457.13086,203.01509,0.9625668,449.13367,208.54318,0.9617381,490.65738,213.88531,0.9555506,485.7777,214.19873,0.95793575,527.82214,218.92628,0.9339895,531.9216,220.08258,0.9392232,7.59822234,-5.37152883,0.38075043,5.36047478
46,1533.3333333333335,407.377,168.05208,0.55500335,406.70996,166.14651,0.36724058,406.1988,166.43163,0.40563437,402.6225,169.1773,0.43336207,401.38327,170.00806,0.43807235,414.01767,184.11821,0.942311,400.3509,185.26825,0.9336203,419.6998,203.72339,0.81968886,404.8421,201.10677,0.81174314,419.68152,205.27504,0.6920958,411.63873,207.92723,0.728869,459.0462,201.64229,0.96713734,450.9748,207.0567,0.96867734,489.69128,216.13234,0.9606805,484.39096,216.42194,0.96489286,526.687,218.27832,0.940859,530.3803,219.87636,0.9474845,5.52771182,-0.10710141,0.78238073,5.47101523
47,1566.6666666666667,407.69998,167.13803,0.5751142,406.882,165.19992,0.377409,406.3506,165.38463,0.42433977,402.20047,168.09933,0.4281237,400.75336,168.81592,0.4523018,413.45636,182.71542,0.94556165,398.8432,184.32811,0.9362409,419.90582,202.00343,0.830598,403.30408,201.22089,0.81823,420.61288,204.08472,0.70996994,411.8383,209.0516,0.7408408,458.38693,200.59354,0.96592504,449.8683,206.29578,0.96695185,490.51923,214.79898,0.955863,484.7601,214.86084,0.95984066,526.36066,217.27638,0.93045706,530.0222,217.95776,0.9373604,2.45362225,-0.77795911,2.27615064,0.48392152
48,1600.0,409.27332,182.68166,0.37989992,407.4269,181.43182,0.21087077,408.39252,182.37909,0.24754556,403.14514,183.5171,0.32542372,404.37708,185.92548,0.34763962,416.72955,191.29941,0.9224205,405.14865,193.87704,0.9268167,422.41293,201.02927,0.83962,408.69424,199.97845,0.8593249,418.61005,204.82388,0.7440335,412.64288,208.21509,0.7994563,465.4726,199.17625,0.9765737,458.26868,204.80954,0.97959787,490.61566,215.80789,0.97010976,486.74496,217.27545,0.9750149,526.7892,217.70027,0.9502958,530.00916,219.87889,0.95760685,2.69915554,-1.64189412,1.4244979,1.60013439
49,1633.3333333333333,406.63342,168.94336,0.5256845,405.61053,167.37404,0.31906044,405.60178,167.77618,0.37881124,401.34766,170.90614,0.38812613,401.0614,171.92369,0.4339545,413.8015,184.64389,0.9375031,399.96655,185.73001,0.9398779,420.0536,202.02556,0.82539016,404.54327,199.4911,0.85170746,419.1089,204.92351,0.71634555,412.96896,207.63628,0.7836928,459.53485,200.87216,0.969716,451.01126,206.13907,0.97374517,488.48526,214.5994,0.9622068,482.37097,214.7362,0.9691423,525.2304,219.66507,0.94001853,527.74396,220.82262,0.9497484,0.73329081,-0.5843905,-0.35471201,0.26529707
50,1666.6666666666667,407.24054,167.1795,0.6006774,406.68344,165.36977,0.3968987,406.0321,165.73203,0.4544462,402.7008,168.89926,0.4386675,401.2214,169.80783,0.47242537,414.266,183.67819,0.9450857,399.64124,185.03166,0.9434209,420.34088,202.56839,0.82439774,403.6787,200.80687,0.83941054,421.37262,204.92981,0.7095685,413.07086,207.56543,0.76557386,458.15134,201.95541,0.96631384,449.21487,207.34315,0.96973383,486.92157,213.71063,0.9590918,480.128,213.84637,0.96532947,523.8808,219.29785,0.93760294,526.5031,220.32617,0.9463804,0.69893967,-0.58856647,-0.28077274,-0.25154093
51,1700.0,406.32684,174.44641,0.45596173,404.9452,172.96141,0.27659926,405.28256,173.87836,0.30097777,400.76575,176.30585,0.38194817,400.8839,178.43695,0.36983153,414.63153,187.9735,0.9370345,401.59128,190.22432,0.93117857,421.49228,203.24107,0.845542,406.00183,200.5991,0.84192365,419.20712,210.04579,0.7409283,412.70996,207.87144,0.7761226,463.53748,200.12181,0.9761915,455.50037,205.71039,0.9778104,486.3778,216.01535,0.97133476,481.72055,217.25351,0.9743903,524.9185,219.56644,0.9536948,528.51984,221.06131,0.95889074,0.32789434,-0.19995539,0.14124613,0.21813315
52,1733.3333333333335,406.71136,175.6948,0.42505533,405.3225,174.26291,0.25717783,405.90988,175.16689,0.26925698,401.08624,177.48196,0.37832418,401.84766,179.55646,0.3432987,414.9895,188.74838,0.9360111,402.36148,190.89359,0.925576,421.48056,203.86755,0.85076565,406.50336,200.86842,0.8338735,419.07297,210.51303,0.74711823,412.25824,207.46802,0.7676799,463.5113,200.77167,0.9773756,455.6088,206.15598,0.97817117,485.17627,216.00977,0.9736096,480.12817,216.9352,0.9754767,524.8165,219.82599,0.95795345,527.39886,220.77832,0.9617395,0.31200907,-0.20609652,0.17563649,-0.15500227
53,1766.6666666666665,406.6677,173.48907,0.4864528,405.4425,172.00446,0.30864623,405.8755,172.81497,0.3006229,401.16235,175.35248,0.43352088,401.61902,177.18948,0.3557694,415.04132,187.48218,0.9547965,402.0338,189.46744,0.9381713,423.12128,204.69803,0.88877964,406.23257,200.62805,0.8501427,422.94254,215.16971,0.7959824,413.3565,207.64519,0.7876806,463.73944,200.26273,0.982284,455.6654,205.62172,0.9814509,484.44223,216.82275,0.977,478.52524,217.67354,0.97672963,524.9649,220.23767,0.9594901,526.6431,220.65865,0.9610443,0.95626817,-0.77673088,-0.27954451,0.48269329
54,1800.0,406.84265,175.29843,0.45205572,405.48517,173.78607,0.28775096,406.02884,174.77228,0.2677466,401.50778,176.8993,0.4173561,401.8447,179.10252,0.319601,416.4276,188.43971,0.95048606,402.56,190.62328,0.92769915,426.55566,204.97208,0.8878241,407.09485,200.41068,0.83492786,426.8985,218.2179,0.79561424,413.34055,208.51538,0.7730815,465.10876,200.17422,0.9815593,456.5704,205.50902,0.9799344,484.05136,217.48056,0.9760029,477.93176,218.49895,0.9746041,525.1688,220.4386,0.9578016,526.2664,220.61961,0.95815974,2.02937613,-1.33778506,-0.06263959,1.52472124
55,1833.3333333333333,406.31445,167.78233,0.5397242,405.6276,166.0327,0.371297,405.66223,166.4857,0.33735633,401.497,169.50336,0.48270863,401.40967,170.43082,0.357944,414.29922,184.34006,0.959125,401.02957,185.17313,0.931674,422.69693,205.41238,0.8878696,405.8776,199.49998,0.81272155,424.93924,217.43018,0.7859875,413.38348,208.96785,0.7412962,460.621,201.57423,0.97856504,452.48178,206.46492,0.97520375,482.3722,216.51727,0.9726563,475.2147,216.34326,0.9695506,525.0514,220.74597,0.9537807,524.98444,220.17404,0.95272845,1.21073252,-0.78213508,-0.0324252,0.92362685
56,1866.6666666666667,413.4681,193.41228,0.40866852,411.66983,192.0397,0.2540132,412.12207,193.8313,0.22392245,410.2712,192.89508,0.3782747,409.27505,196.95471,0.29152924,422.8802,196.28407,0.95896107,410.7299,200.66208,0.93835497,433.32623,205.41127,0.93179464,414.568,204.74055,0.8796604,431.49045,220.60793,0.8535579,415.7074,213.61354,0.81050694,466.5948,201.69823,0.9905275,459.61523,207.87741,0.9886932,487.05112,216.66476,0.9841033,484.04517,221.33032,0.9814108,522.6764,220.48395,0.96916044,526.25336,223.46646,0.9670168,0.81999851,-0.52518995,0.15475663,0.61042892
57,1900.0,414.18802,197.68231,0.42496327,412.35132,196.3728,0.28129926,412.867,198.28067,0.22221954,411.66205,196.7273,0.409776,410.51505,201.10977,0.26755434,425.28482,198.61649,0.9627936,412.6126,203.56552,0.9360251,439.15326,205.91699,0.9417594,415.76352,205.7909,0.8765784,439.4192,222.8404,0.8746614,415.8375,214.29984,0.8135698,468.59955,201.04314,0.99124205,461.66333,207.39255,0.98874485,487.68875,216.62723,0.98488796,485.15454,222.14117,0.9809303,522.14954,219.59772,0.969205,526.19354,223.53833,0.96537817,0.90343574,-0.55294788,0.19504248,0.68731594
58,1933.3333333333333,416.55728,203.76257,0.46405894,414.75473,202.38524,0.34761444,415.16684,204.59149,0.2255754,415.39478,201.76628,0.477816,413.61987,206.9221,0.23167364,430.33698,201.35419,0.96959305,416.839,207.72713,0.9284825,448.99078,205.70607,0.9559185,419.81906,207.73482,0.8577779,452.13425,224.45323,0.90291834,417.59515,214.98526,0.8009462,471.69028,200.419,0.99198383,464.6887,207.05933,0.9877601,488.35992,216.48123,0.98571104,486.01913,222.70587,0.9784776,522.2455,218.90236,0.9689904,526.0696,222.95972,0.96092093,1.05627485,-0.5546674,-0.01375614,0.89881666
59,1966.6666666666665,416.75015,204.60034,0.46867943,414.7984,203.21326,0.33979657,415.2882,205.39777,0.23600604,415.21973,202.3662,0.45843357,413.51562,207.5311,0.24630609,430.17917,201.94257,0.9683705,416.36356,207.87677,0.9329603,448.9289,206.01483,0.9536985,418.82867,207.10114,0.8699965,451.6063,223.75883,0.9007385,417.15103,214.31848,0.81587,471.18115,200.5877,0.99182254,464.0963,207.13922,0.9881842,489.49722,216.66492,0.98511076,487.79453,222.88124,0.97887564,522.20807,218.89627,0.96732295,526.7096,223.19698,0.96034515,1.0146105,-0.57923195,0.29133549,0.78041556
60,2000.0,416.00183,204.02682,0.4611788,414.18796,202.52151,0.33439624,414.6883,204.37804,0.27061123,413.64597,201.49106,0.43684095,412.2069,206.12389,0.27744135,430.39218,202.79742,0.9440269,415.5843,207.62906,0.90959907,449.5217,204.59889,0.90137017,417.60757,203.65352,0.8278304,452.99377,221.7975,0.8335794,416.49323,209.95653,0.78636324,473.46173,199.53519,0.98046255,465.46432,205.5404,0.9770608,492.6435,217.22757,0.97316724,489.96252,222.30635,0.9692309,524.75494,216.93906,0.9513904,528.68164,222.11792,0.94853055,0.98737896,-0.45419842,0.47262183,0.73841019
