frame_id,timestamp_ms,nose_x,nose_y,nose_conf,left_eye_x,left_eye_y,left_eye_conf,right_eye_x,right_eye_y,right_eye_conf,left_ear_x,left_ear_y,left_ear_conf,right_ear_x,right_ear_y,right_ear_conf,left_shoulder_x,left_shoulder_y,left_shoulder_conf,right_shoulder_x,right_shoulder_y,right_shoulder_conf,left_elbow_x,left_elbow_y,left_elbow_conf,right_elbow_x,right_elbow_y,right_elbow_conf,left_wrist_x,left_wrist_y,left_wrist_conf,right_wrist_x,right_wrist_y,right_wrist_conf,left_hip_x,left_hip_y,left_hip_conf,right_hip_x,right_hip_y,right_hip_conf,left_knee_x,left_knee_y,left_knee_conf,right_knee_x,right_knee_y,right_knee_conf,left_ankle_x,left_ankle_y,left_ankle_conf,right_ankle_x,right_ankle_y,right_ankle_conf,acc_x,acc_y,acc_z,acc_mag
0,0.0,508.2419,56.87509,0.95340234,511.00833,54.373947,0.94289184,506.18414,54.298615,0.868717,515.9076,56.190857,0.8392953,503.40884,56.293594,0.47044837,522.88043,72.24546,0.9934831,499.97525,72.69592,0.9899922,529.62866,91.86722,0.9768801,496.65897,91.95886,0.93163157,522.5514,106.41693,0.96007574,495.31937,107.09607,0.90563637,517.56036,111.031265,0.99482816,502.80194,110.97092,0.9933791,516.2287,140.64581,0.98857903,501.35135,140.39195,0.98252296,517.65533,167.42017,0.9695067,503.96246,166.74564,0.95785743,1.02655503,0.3313757,0.86540888,-0.4416705
1,33.333333333333336,507.96133,56.38591,0.9519728,510.681,53.79521,0.9404359,505.76166,53.80934,0.8679762,515.59314,55.582825,0.8313267,502.871,55.915283,0.4732256,522.6819,71.783905,0.9931369,499.69638,72.56778,0.98986316,529.3426,91.45648,0.97501796,496.41528,92.11885,0.9308936,522.3793,106.33229,0.9573495,495.53058,107.31022,0.90424085,517.91327,110.96867,0.9949886,502.8927,111.06996,0.99373215,517.22485,140.77715,0.9897578,500.61642,140.68956,0.9846811,518.019,168.16412,0.97391903,501.2442,167.70744,0.96453476,1.02790844,0.33063876,0.86540888,-0.44535518
2,66.66666666666667,507.19247,55.86168,0.95211357,509.9015,53.193054,0.9404444,504.87622,53.280205,0.86888623,514.9013,55.079742,0.8296044,501.9172,55.596375,0.47470194,522.1832,71.58157,0.99315697,499.06317,72.681274,0.9898698,529.0177,91.46396,0.9749025,496.29974,92.66843,0.930454,522.08215,106.77515,0.957125,495.4514,107.821014,0.90376174,517.86615,111.15967,0.9950991,502.5675,111.42171,0.9938758,517.9222,141.01369,0.9901557,499.9534,141.11176,0.9853131,518.5021,168.46222,0.97531474,499.25314,168.2414,0.9665063,1.04730143,0.32695408,0.86811098,-0.48613232
3,100.0,505.9877,55.606064,0.9520774,508.68118,52.88353,0.9419907,503.66098,53.062836,0.86684847,513.897,54.74122,0.83492297,500.95325,55.512123,0.46229535,521.51953,71.29822,0.9930432,498.63147,72.87061,0.9894476,528.5217,91.08952,0.9748191,496.41238,93.373245,0.9273529,522.06726,106.95299,0.95690256,495.42496,109.33302,0.9002611,517.71173,111.14982,0.9949532,502.41766,111.58496,0.9936278,518.059,141.30023,0.9899928,498.85553,141.55069,0.9848979,518.6115,168.92162,0.975178,497.0117,168.87529,0.9660827,1.02844145,0.31025019,0.84207257,-0.50234492
4,133.33333333333334,505.41614,55.713165,0.9514802,508.12335,52.94497,0.94177675,503.01562,53.165077,0.8649426,513.4096,54.805267,0.8342368,500.25558,55.680626,0.45477062,520.9494,71.36669,0.99282974,498.1576,73.11325,0.98892283,527.97644,91.0684,0.9743722,496.08093,93.67557,0.92401487,522.0785,107.08004,0.95629877,495.38086,109.502304,0.8967703,517.45135,111.29962,0.9948348,502.10382,111.826675,0.9934263,518.14484,141.6569,0.99002165,498.13037,142.00305,0.98481375,518.8597,169.55176,0.9756083,495.5852,169.62344,0.9664682,0.99717638,0.2156767,0.83937047,-0.49325604
5,166.66666666666666,505.0387,55.56565,0.96542525,508.27078,53.11139,0.939187,502.42587,53.138474,0.88578796,514.14197,55.23197,0.8516534,500.1143,55.37412,0.6410238,520.24023,71.546555,0.9952335,498.5531,72.71819,0.9877051,528.77637,90.88099,0.9813835,495.4346,92.40792,0.93581057,521.67676,106.1,0.95980704,495.11618,108.213165,0.90289587,515.91223,111.09548,0.99575496,500.84253,111.25084,0.99291706,518.7909,141.42485,0.9885683,497.86536,142.6591,0.98249876,520.38574,169.10912,0.95971,495.78992,170.60588,0.94893885,1.02163717,0.14886114,0.86786534,-0.51806623
6,200.0,504.33456,55.790558,0.9656771,507.55164,53.33606,0.93983227,501.71588,53.38844,0.88709784,513.38354,55.339832,0.8515482,499.31723,55.56275,0.6396857,519.56335,71.41461,0.9952695,497.59924,72.70532,0.9875235,528.36365,90.48778,0.9815067,494.50882,91.90584,0.9349379,521.9086,105.9738,0.95985216,495.15103,106.65651,0.9017633,515.27856,111.091934,0.99590707,499.9936,111.35506,0.99309796,518.75104,141.38498,0.98916024,497.4292,142.7883,0.98326033,520.4345,169.42508,0.9621399,495.17923,171.02171,0.95168215,1.30291825,0.16409115,1.25475691,-0.31025019
7,233.33333333333334,503.2008,55.729095,0.9642628,506.32742,53.224678,0.93808043,500.62753,53.385906,0.8816019,512.13696,55.0822,0.8502694,498.39368,55.554672,0.6273319,518.5374,71.00678,0.99523336,496.69186,72.51474,0.98688287,527.7987,90.23798,0.98176724,493.3586,91.641685,0.9324956,521.9456,106.35281,0.9603263,494.53937,106.2145,0.89930236,514.4386,110.84042,0.9959447,499.29208,111.29115,0.99301964,518.09564,140.74562,0.9894376,497.25464,142.58127,0.98336095,520.3407,169.5835,0.9632615,495.24237,171.56645,0.9524579,1.55568242,0.312461,1.51735188,-0.14198306
8,266.6666666666667,501.88028,55.38494,0.9640897,504.9919,52.93809,0.93781185,499.386,53.11137,0.88059473,510.80893,54.87072,0.8506333,497.32477,55.375572,0.62471473,516.92456,70.744156,0.99527043,495.566,72.382706,0.9868448,525.7559,89.521194,0.9821029,491.9857,91.05844,0.93280476,521.2833,106.17468,0.96092093,493.96317,105.063614,0.90000266,513.2157,110.64666,0.99602425,498.4005,111.31692,0.99311864,517.5176,140.91052,0.9895511,497.23492,143.1349,0.9834548,520.04834,169.74384,0.9633176,495.1959,172.1293,0.9523129,1.44821962,0.76297474,1.20832992,-0.23483704
9,300.0,500.73816,55.3096,0.9654656,503.87247,52.778305,0.937932,498.08307,53.114418,0.89186233,509.79108,54.663662,0.84272844,495.823,55.524223,0.6488521,515.87415,70.72653,0.994733,494.25214,72.7899,0.98755336,524.6103,89.853386,0.9789201,490.54266,92.13882,0.9361997,520.90906,107.16307,0.95518047,492.8458,107.54807,0.9020208,512.7289,110.58735,0.99568427,497.76718,111.58677,0.9931357,517.03094,140.7356,0.9891095,496.8502,143.68855,0.98413056,519.80994,169.65536,0.9635159,495.10883,173.18451,0.95492494,1.44821962,0.76297474,1.20832992,-0.23483704
10,333.3333333333333,499.1578,55.31561,0.96476084,502.02982,52.660343,0.9332015,496.36295,53.27282,0.89339566,507.62674,54.372597,0.8307799,494.05362,55.891865,0.6637228,514.1357,70.3597,0.9945511,492.7119,73.26073,0.98854125,523.4951,89.4305,0.9780661,489.0905,93.07492,0.94299835,520.766,107.26308,0.95400804,491.71405,108.799416,0.91007864,511.8187,110.43481,0.9958574,497.03763,111.91278,0.99380046,516.31055,140.49745,0.98956186,496.48032,144.21356,0.98567086,519.6525,169.5533,0.96513367,494.58182,173.81563,0.958432,1.18926628,0.78606541,0.88260406,-0.13215725
11,366.66666666666663,498.1822,55.453606,0.9460191,500.86945,52.601547,0.9344,495.7927,52.873497,0.84653986,506.2609,54.24919,0.8302492,492.9962,55.1817,0.43112737,514.1241,70.63399,0.9929531,489.88373,72.95773,0.9873125,522.1587,89.986565,0.97234565,486.888,94.645096,0.90118873,521.5573,107.69751,0.9496094,487.18048,112.84592,0.8642133,512.3566,111.006744,0.99478805,496.17468,112.00166,0.992897,516.2119,142.14662,0.99029225,494.1608,142.95563,0.9843136,520.12305,172.09482,0.9756953,494.00507,172.5906,0.96481556,0.93398502,0.50332751,0.74799036,-0.24392592
12,400.0,496.9617,55.322197,0.9480454,499.68317,52.444153,0.93618906,494.53836,52.740143,0.85398185,505.127,53.97487,0.8274085,491.72504,54.97908,0.43819726,513.0013,70.13212,0.9926456,488.63058,72.7269,0.9870689,521.5384,89.06741,0.9710882,485.74893,94.532166,0.90133584,522.1206,106.82539,0.94779944,485.8565,113.134155,0.86384934,511.48236,110.58,0.9942603,495.18872,111.71316,0.9923023,515.84314,141.99773,0.98895746,493.24088,142.92108,0.9825156,520.46295,172.0409,0.9722242,493.21936,172.67133,0.96042407,0.47391245,0.23557398,0.41121047,-0.00196516
13,433.33333333333337,495.12903,54.677185,0.9537576,498.04633,51.727753,0.94096553,492.71692,51.987778,0.87039196,503.88367,53.188095,0.8265543,490.02222,54.10501,0.4614548,511.91013,69.54264,0.99298966,486.67538,72.01238,0.9890127,520.77313,89.17285,0.9719241,483.46994,94.50298,0.918945,522.10004,107.52469,0.9499944,482.87885,114.309494,0.8840881,509.8671,110.348076,0.9942668,493.12402,111.400345,0.9928126,514.43854,141.93994,0.98797,491.86423,142.74731,0.9821911,520.0779,172.15411,0.96849924,493.32318,172.61345,0.95722276,0.60962968,0.26234933,0.55024578,-0.00712372
14,466.6666666666667,493.05768,53.70134,0.9545252,496.13446,50.681328,0.94458616,490.67316,50.956924,0.8673323,502.46677,52.104546,0.8365269,488.28546,53.054245,0.435906,510.6553,68.659164,0.9925982,485.41495,71.01164,0.98757845,519.8988,88.64445,0.97117245,482.11993,93.33151,0.9084647,522.0834,107.95201,0.94856757,482.13647,112.93582,0.87284476,508.8926,110.19153,0.99330515,492.1576,111.1855,0.9913318,513.3576,141.84486,0.9854558,490.89447,142.57927,0.9777844,519.9096,171.61998,0.9617884,493.0029,171.90143,0.9469775,0.80101377,0.35495766,0.71040661,-0.10464496
15,500.0,491.5085,53.329002,0.95899266,494.76785,50.43718,0.9498865,489.05432,50.661774,0.89629054,500.75763,52.430145,0.8352151,486.458,53.32086,0.5344437,508.44302,69.66731,0.9932122,483.5003,71.99925,0.99060434,518.9744,89.218834,0.97183704,481.5352,94.27832,0.9272243,521.77026,107.602005,0.9515091,481.3975,112.57861,0.8920758,506.05078,111.19937,0.99472433,489.65073,112.110794,0.99358106,510.81317,143.02965,0.98754764,489.44003,143.50858,0.9823644,516.7494,172.3966,0.9669634,492.2644,172.5396,0.9577309,1.19011182,0.56498451,0.99560097,-0.32548021
16,533.3333333333334,490.31625,52.095093,0.9600174,493.42017,49.209858,0.95382583,487.82468,49.536503,0.8948363,499.29742,51.37805,0.8510671,485.19254,52.463852,0.52157235,507.60193,68.88013,0.9938689,482.09665,71.413895,0.9908947,518.76056,88.699585,0.97231287,479.29703,93.99579,0.9184852,522.0222,107.030205,0.94967496,478.5358,112.10926,0.8773899,506.1185,110.36437,0.9944464,489.422,111.38898,0.9930034,510.5354,142.65434,0.98533267,489.22012,143.28323,0.97834957,515.9512,173.4119,0.9612597,492.39346,173.71457,0.9489517,1.15632534,0.49399298,1.02163938,-0.22206348
17,566.6666666666666,489.61774,51.748947,0.96716434,492.60693,48.841213,0.9550442,486.92548,49.22867,0.9230171,498.0669,51.01481,0.8274824,483.89853,52.272144,0.6252597,506.58823,68.54803,0.9947654,480.5291,71.41453,0.99468637,518.6453,88.565414,0.97345924,477.98254,94.26691,0.95634884,521.7385,107.42344,0.95315886,474.94397,112.97573,0.9253067,505.39255,109.84672,0.99565,488.41617,111.08818,0.99557245,509.9683,142.43407,0.9868995,488.8244,143.28172,0.9844313,515.4777,173.28049,0.962551,492.3278,174.0083,0.9577918,1.09400987,0.46402424,0.96857997,-0.20830733
18,600.0,488.52048,50.36965,0.9709364,491.48965,47.445755,0.95688915,485.69543,47.87848,0.93554395,496.80298,50.011093,0.8201704,482.47052,51.386536,0.67663616,505.3216,68.164375,0.99515957,478.99274,71.29866,0.99593216,517.10614,88.45962,0.9733439,476.09607,94.88936,0.9672742,520.40076,107.44489,0.9537768,472.58185,114.86507,0.940485,504.6524,109.30055,0.99600536,487.63095,110.69827,0.996342,509.05246,142.28523,0.9874056,489.01395,143.25801,0.9865264,513.70557,173.62933,0.9631561,492.7624,174.53941,0.961502,1.07852406,0.37927656,0.98675773,-0.21371153
19,633.3333333333333,487.62708,50.051647,0.9728909,490.65414,47.048275,0.958675,484.6677,47.56725,0.94078887,496.0014,49.60366,0.8196993,481.2553,51.193214,0.695796,504.2983,67.684845,0.99546695,477.80518,71.021866,0.9965012,515.4122,87.966156,0.97484004,474.22855,94.14189,0.97250384,518.6334,106.42322,0.9571394,470.98914,112.59472,0.9493857,504.07635,108.62436,0.99641126,487.03036,110.1779,0.99686724,508.04962,141.95642,0.98867714,489.09216,143.09187,0.98837715,512.0737,173.89098,0.9660506,493.30023,175.02077,0.9655338,1.06624768,0.44412695,0.94180462,-0.22943284
20,666.6666666666666,486.58783,49.882153,0.9748082,489.4624,46.870472,0.9600102,483.60767,47.4422,0.9456945,494.67368,49.34141,0.8181152,480.1706,51.053097,0.7169712,503.55157,67.62288,0.9957327,476.60696,71.01944,0.9970511,514.6831,88.37115,0.9755921,472.48126,94.412384,0.9774359,516.8506,106.995285,0.9583893,468.14178,113.25386,0.95670736,503.77454,109.11541,0.99651897,486.52182,110.688995,0.99714345,506.918,142.77267,0.98800194,488.41666,143.93414,0.9883633,510.56006,174.83206,0.9621617,492.87634,176.01727,0.9631106,1.06624768,0.44412695,0.94180462,-0.22943284
21,700.0,485.34192,49.517838,0.97595155,488.26468,46.435764,0.96146774,482.25174,47.034588,0.94801193,493.63004,48.800365,0.8187075,478.72168,50.558025,0.7208075,502.6052,67.134705,0.9956802,475.39835,70.17784,0.9971488,512.9978,88.98082,0.9750888,470.82434,93.31193,0.97864074,515.05804,107.7805,0.9577851,466.28043,110.49467,0.95882815,502.91803,108.38363,0.9963618,485.55896,109.81624,0.9971008,505.87607,142.79518,0.98724943,487.96335,143.82088,0.98798966,509.44528,175.68852,0.9588586,492.86142,176.67133,0.960658,0.99946814,0.482202,0.83077288,-0.27610547
22,733.3333333333333,484.51147,49.337425,0.9773566,487.5684,46.21492,0.96538424,481.377,46.758766,0.94828546,493.15396,48.564888,0.8358329,477.77884,50.19035,0.70445246,502.02255,67.19331,0.99601716,474.49554,69.92106,0.99718314,511.91458,89.367744,0.9779896,469.32355,92.93921,0.97828865,513.545,108.25964,0.96240544,464.40955,110.294395,0.95924073,502.03143,109.36651,0.99656206,484.57422,110.643585,0.9971488,504.56277,143.96133,0.98777896,487.49933,144.82623,0.98788315,507.76212,177.1218,0.9596968,492.8048,177.84406,0.9599361,0.91591151,0.4497768,0.74848165,-0.27635112
23,766.6666666666667,483.92584,49.098064,0.9777428,487.0387,45.95954,0.96435225,480.7223,46.45068,0.95064443,492.632,48.35757,0.82415926,476.93008,49.819485,0.720065,501.25522,67.20563,0.99576426,473.58072,69.644226,0.99728405,510.65134,89.95207,0.9757716,468.34506,92.8927,0.9797079,512.3244,108.883415,0.9595131,462.6995,110.167725,0.9613188,501.17487,109.66328,0.99626356,483.8944,110.84383,0.9970696,502.25534,144.6433,0.9864032,487.68845,145.4347,0.98725706,505.2392,178.04924,0.9544621,494.2034,178.66977,0.9564751,0.89610827,0.45370713,0.72416276,-0.26971869
24,800.0,482.68228,48.855045,0.9754836,485.82785,45.74218,0.9627242,479.5703,46.18921,0.9424461,491.57343,48.23213,0.830303,475.9803,49.564503,0.6851165,500.41925,67.216644,0.9956018,472.7784,69.388054,0.99680316,509.66913,90.20809,0.97594494,467.77164,92.534424,0.97552127,511.57037,109.22742,0.9592871,461.63022,109.3626,0.9552829,500.14136,109.56623,0.99619305,483.13968,110.59091,0.99680734,499.52658,144.39554,0.9871082,487.21625,145.06015,0.9870264,502.34927,178.21329,0.9575618,494.90628,178.60867,0.9572165,0.90094138,0.48121942,0.7163021,-0.25891029
25,833.3333333333334,482.3917,49.001427,0.9729926,485.84808,46.150154,0.93088645,478.9038,46.68303,0.9291324,492.05255,48.226185,0.80082065,475.17377,49.48706,0.7714317,499.24127,67.71808,0.9945228,472.42456,70.257614,0.9942129,509.18466,89.9998,0.9713108,466.86545,93.03819,0.9693998,509.2209,111.02118,0.94263345,462.20468,109.44484,0.9417112,497.9261,112.59675,0.9954059,481.66684,113.770096,0.99526113,497.0222,146.10338,0.9875636,486.0972,146.29256,0.98781466,500.7849,179.5094,0.9561697,496.70233,179.05173,0.95802385,0.96001233,0.55614128,0.73963842,-0.25547126
26,866.6666666666667,480.95282,49.63445,0.9734151,484.25272,46.509235,0.9636554,478.0156,46.87086,0.9319371,490.44974,48.642185,0.8511173,474.8052,49.80976,0.63083154,499.4772,67.54916,0.9955491,471.55554,69.16373,0.9961112,507.6481,91.12765,0.9769861,466.1589,91.70526,0.9685578,508.93066,111.34034,0.95974696,459.9292,108.56808,0.9453656,497.70535,110.69288,0.9960049,480.82318,111.40546,0.99629825,497.28308,145.57094,0.9869409,486.71402,145.94312,0.9854688,498.6605,179.61906,0.95725286,494.62372,179.52219,0.9535676,1.06417826,0.65808413,0.81652544,-0.18079504
27,900.0,480.23114,49.568542,0.9736655,483.61505,46.43333,0.9655275,477.27875,46.759903,0.93029904,490.0193,48.56729,0.8609307,474.16196,49.68417,0.6134722,499.18665,67.61261,0.9954432,471.0421,69.04486,0.9956825,507.22543,91.595406,0.97687733,465.57114,91.68871,0.96439236,508.03888,112.02919,0.9590073,459.41348,108.6803,0.9393647,496.61453,111.34691,0.99536926,479.68762,111.91199,0.9955205,496.22742,146.81021,0.98388463,486.51593,147.04912,0.9813896,496.0305,181.1694,0.94588804,493.72928,180.87936,0.9397922,0.84692741,0.33334086,0.74774472,-0.21690492
28,933.3333333333334,479.51944,49.393887,0.9711872,482.94656,46.254772,0.9642109,476.61475,46.561153,0.9219376,489.4901,48.504868,0.8641855,473.64218,49.582554,0.5815469,498.72177,67.853645,0.99488986,470.6539,69.1427,0.9946984,506.37903,92.18179,0.9742726,464.99826,91.742,0.95485896,506.75635,113.095245,0.95415086,458.8938,108.732925,0.9257959,495.9644,111.87625,0.9947009,479.12256,112.36058,0.9946197,495.29373,147.66187,0.9827084,486.1592,147.84996,0.9790547,494.11313,182.70586,0.94471073,492.7157,182.30746,0.9363245,0.99824126,0.36036186,0.88456923,-0.29010726
29,966.6666666666666,478.51712,49.14859,0.97116774,482.05286,46.036915,0.96704614,475.77637,46.286125,0.9151268,488.9635,48.4407,0.8828345,473.1703,49.370865,0.5409948,498.33847,68.00047,0.99539435,469.87674,69.15931,0.9942458,505.99704,92.48399,0.9782341,463.5771,92.28227,0.94811815,507.08743,113.4549,0.95971,459.16675,110.16728,0.9177428,495.05762,112.43894,0.9950505,478.0355,112.80482,0.99442756,493.9066,148.80048,0.9837406,485.12506,148.87851,0.9780316,491.5779,184.64836,0.9466821,491.45428,184.0585,0.93368334,1.06253193,0.57579291,0.78311766,-0.42914258
30,1000.0,477.60718,48.762005,0.9716095,481.17862,45.63214,0.9690035,474.7947,45.897797,0.9118647,488.1363,48.220425,0.89358264,472.1407,49.217697,0.51903886,497.40817,67.92734,0.9957795,469.1078,69.343315,0.9939116,505.35144,92.30273,0.98109,462.97287,92.959335,0.9432537,507.01443,113.50154,0.96392107,459.13248,111.62793,0.91234994,494.39966,112.6278,0.99514824,477.4713,113.11395,0.9940801,493.32092,149.29071,0.98324305,484.98904,149.49345,0.9754817,490.54483,185.00757,0.94265175,491.0066,184.5487,0.9247143,1.30755526,0.72072372,1.07420751,-0.19062086
31,1033.3333333333335,476.72894,48.935036,0.97269845,480.29,45.75147,0.9683698,473.79074,46.03943,0.9243546,487.0482,48.089317,0.86628467,470.89822,49.075394,0.553522,496.15268,67.85179,0.9932547,467.89212,69.39141,0.99206054,505.5033,91.82217,0.96912295,462.82437,93.35307,0.9311591,506.58765,112.052605,0.9487873,459.01785,111.4946,0.89819217,493.05038,112.52733,0.99072266,476.24167,113.033005,0.98973364,491.7558,149.63132,0.9675812,483.35315,149.80737,0.95736134,489.78125,184.54106,0.9004396,490.66733,184.25409,0.8811753,0.83426392,0.31958472,0.75241198,-0.16654761
32,1066.6666666666667,475.82864,48.95038,0.971237,479.59503,45.717728,0.9676482,473.15213,45.888878,0.9190589,486.9469,47.933136,0.86657196,470.79642,48.674698,0.5279397,495.54767,68.1961,0.9928726,467.79105,69.50008,0.99150825,503.98572,91.827934,0.97184324,462.60413,92.921036,0.9343502,506.6592,113.157104,0.9561002,459.88025,111.387726,0.90876836,491.8385,113.972336,0.99282223,475.53958,114.45149,0.9920054,490.76498,151.11292,0.9815533,483.8955,151.2958,0.9752467,487.63654,185.9777,0.9445333,489.643,185.62282,0.9323322,0.83426392,0.31958472,0.75241198,-0.16654761
33,1100.0,475.42853,48.576294,0.9718925,479.22424,45.341034,0.9676407,472.76108,45.483818,0.9218185,486.44977,47.683014,0.86444587,470.25824,48.31981,0.54176885,494.71994,68.1779,0.9932138,467.03757,69.334656,0.99218667,503.44174,92.25331,0.97287637,462.08115,92.87334,0.9399429,506.71234,115.10671,0.9575876,459.40247,112.14125,0.915129,491.11072,114.008316,0.9933756,474.83554,114.48577,0.9927731,489.41202,151.13696,0.98278254,482.77786,151.34323,0.9772907,487.40515,185.91667,0.94770133,489.46564,185.62897,0.93682057,0.88671379,0.47213053,0.70377418,-0.26087546
34,1133.3333333333333,473.88315,48.25776,0.9725576,477.77417,45.05036,0.9703147,471.4815,45.119507,0.9161068,485.49753,47.51953,0.8821271,469.58945,47.99814,0.5058149,494.23862,68.35654,0.994027,466.6396,69.27193,0.99216616,503.1094,93.16988,0.97733897,462.2012,93.45508,0.9372917,505.85452,116.57221,0.96338296,459.34433,113.63999,0.91332215,490.40527,114.672714,0.99403834,474.1522,114.94828,0.9930276,488.1523,152.10693,0.9841629,481.413,152.10248,0.97745866,487.29263,187.29175,0.95010036,489.14328,186.67468,0.93626964,1.09806899,0.62443071,0.86467195,-0.2611211
35,1166.6666666666667,150.44203,34.433296,0.8108808,152.40411,30.822533,0.7285146,149.44899,31.512596,0.4384712,159.7237,32.414806,0.74788,152.87242,33.957123,0.27806377,174.33595,53.978256,0.9924142,148.62663,55.345036,0.9689748,187.75015,81.747444,0.98364776,139.53786,82.3283,0.8965673,183.54584,108.11657,0.9621884,135.5437,102.26164,0.86275905,169.14322,109.39485,0.9965912,154.48993,109.20195,0.99290985,166.00092,151.11646,0.9893546,158.33983,149.9322,0.9802613,165.97133,190.9176,0.9506834,162.00519,187.09386,0.9310648,1.26175976,0.77230926,0.91208152,-0.40457804
36,1200.0,471.45532,47.28032,0.9704323,475.21664,44.029266,0.9722189,469.1557,44.206074,0.8954747,483.326,46.395836,0.90237343,467.7216,47.140686,0.4192363,493.47012,67.22488,0.9940844,465.45804,67.92453,0.98893356,503.28653,94.07846,0.976917,461.68463,93.12736,0.8943754,503.9048,118.27341,0.9578443,457.29456,112.64282,0.8592393,488.3289,114.5515,0.99163365,471.6559,114.42171,0.988199,484.67346,153.589,0.9719036,476.6999,153.26924,0.9525764,484.82187,190.74698,0.9107676,485.76715,189.77397,0.8729165,0.94765744,0.5600716,0.7325147,-0.21862444
37,1233.3333333333335,469.68958,46.74241,0.9673136,473.37164,43.47203,0.9721077,467.77264,43.65675,0.87187785,482.14893,45.529835,0.91312706,467.31152,46.3678,0.35139254,493.26654,66.34609,0.9938465,465.7012,67.07,0.9856375,503.34186,93.42391,0.9774599,462.05487,92.631775,0.8588637,502.74472,117.90646,0.95741165,456.80292,113.0035,0.8226853,487.44846,114.81564,0.9910812,471.07007,114.518425,0.98580825,483.8852,154.1808,0.9714453,475.7052,153.73036,0.945918,484.13525,191.72359,0.91029924,484.50375,190.51242,0.861825,1.00404634,0.6735598,0.73570809,-0.11471642
38,1266.6666666666665,467.60812,45.845253,0.9626058,471.5151,42.33246,0.9702049,465.804,42.531815,0.84159076,481.1431,43.983986,0.917465,465.8204,44.91707,0.28917187,492.58508,65.32607,0.9936998,464.9783,65.96469,0.98267996,502.32596,93.076935,0.9812433,462.5423,91.32957,0.84690946,502.4249,119.95635,0.96576667,457.42627,111.79468,0.82465684,486.44672,115.51507,0.9937564,470.0444,115.17164,0.9891243,482.61475,154.38168,0.9862337,474.22937,153.86462,0.9708019,484.71362,191.79391,0.9572309,483.8453,190.3725,0.92687356,1.00404634,0.6735598,0.73570809,-0.11471642
39,1300.0,465.89026,45.71463,0.95935833,469.78583,42.15869,0.9699905,464.36493,42.343307,0.8140489,479.9718,43.400208,0.9244441,464.95142,44.365585,0.23911436,492.0144,64.44855,0.9935144,464.50598,65.13579,0.9790358,501.57584,92.206024,0.98240376,462.1526,90.99844,0.8174379,500.77173,119.447685,0.9673204,456.1884,113.3426,0.7997788,485.39856,115.73716,0.9935801,468.98926,115.23954,0.9877644,481.2801,154.49982,0.98623973,471.92743,153.80624,0.9678862,484.30225,191.91359,0.95745087,481.75696,190.20596,0.9220295,1.02785895,0.71040661,0.72219759,-0.17391697
40,1333.3333333333333,464.36395,45.543045,0.9637902,468.63248,41.85456,0.95410323,462.26047,42.28602,0.8054841,479.48224,42.1873,0.91936135,463.8642,43.248116,0.41502205,489.7501,62.777893,0.99764866,465.01224,64.824524,0.9798838,498.9527,88.83158,0.99218,462.64316,91.07309,0.8831211,495.86493,117.17538,0.9792702,456.6251,112.577965,0.85325027,483.25342,115.29785,0.99685365,467.82605,114.874115,0.9911342,480.23453,156.0624,0.9908924,468.51675,152.33939,0.9760933,487.6869,191.78452,0.95971745,478.619,183.95541,0.92930496,1.02640847,0.74037535,0.68633336,-0.18521666
41,1366.6666666666667,462.8117,44.91893,0.95933867,467.11554,41.17958,0.9542065,461.1106,41.535583,0.76308966,478.3857,41.395813,0.9299659,463.7673,42.211494,0.3580197,488.76202,62.099846,0.99799925,465.30243,64.19351,0.9760936,497.32187,88.06717,0.9937133,463.57816,91.33376,0.8564268,494.54926,115.90486,0.98176587,455.98962,113.03002,0.82496965,482.03537,115.46095,0.9974197,467.26694,114.83644,0.99141216,478.40298,156.59953,0.9927603,465.52148,152.05936,0.97756565,488.14807,190.47691,0.9681649,476.5527,181.24841,0.93788487,1.03879402,0.76395732,0.69075498,-0.13535064
42,1400.0,461.24573,43.83757,0.9495978,465.06924,40.281662,0.9473837,459.87375,40.65429,0.7010237,476.6216,40.868683,0.9300988,463.38583,41.865173,0.32694584,487.00964,61.03991,0.9979721,464.26508,63.405045,0.97688216,496.2547,86.38281,0.9941268,461.7106,91.20007,0.8546267,491.28848,113.63649,0.9836394,455.4785,112.967995,0.8287558,479.9368,115.52821,0.99810576,465.6901,114.99394,0.99337655,478.10492,156.36702,0.9953431,463.82242,152.2547,0.9849732,488.10883,192.29161,0.9801516,474.77872,183.06964,0.960281,0.9466629,0.69001804,0.64359105,-0.07639573
43,1433.3333333333333,459.12958,43.99553,0.93668187,462.76596,40.451134,0.9360164,458.19955,40.824074,0.63697857,474.59015,40.826042,0.924932,462.77963,41.71367,0.28296217,485.44592,60.577255,0.99776566,464.06937,62.74507,0.9728842,494.43494,86.638214,0.9940976,461.64044,91.04401,0.8429058,488.31238,113.04226,0.98354405,454.74554,112.339485,0.81895775,479.14734,115.163376,0.9981219,465.64536,114.57623,0.99325424,477.22974,155.62329,0.9954986,462.62842,151.91437,0.9850964,487.8096,191.53323,0.9809703,473.20074,183.13066,0.96129024,0.91228589,0.6730685,0.61362231,-0.05207683
44,1466.6666666666665,457.97855,44.106537,0.9379486,461.5469,40.447174,0.94042754,456.62466,40.91635,0.646048,473.04938,40.4758,0.92746097,460.70767,41.72239,0.2793921,483.5927,59.845245,0.99766517,462.99893,62.334244,0.9689023,492.03015,85.961136,0.99382,460.96408,90.728096,0.82019424,485.896,112.815796,0.9825304,453.96786,112.8732,0.7972094,478.05338,114.46048,0.9980172,464.69995,114.07515,0.99255776,477.10422,154.81784,0.9955076,460.83322,151.74371,0.9844567,487.1348,191.87265,0.98183316,468.48282,184.22473,0.96182877,0.99510291,0.77353749,0.57947759,-0.2368022
45,1500.0,456.09088,44.286804,0.92156965,459.42474,40.580482,0.92934346,455.03616,41.078926,0.5791747,471.12308,40.104095,0.9202501,459.9759,41.416306,0.22801852,482.10193,58.851707,0.9971437,462.72586,60.969086,0.95637923,490.47635,85.86995,0.9932682,460.33246,89.69986,0.77843463,483.16647,111.09473,0.9812641,454.58704,111.98889,0.7632958,476.71194,113.91459,0.9977532,463.75906,113.50705,0.99099755,477.02377,154.5487,0.9951403,459.27792,152.91208,0.9821883,485.9629,192.9082,0.9806085,462.7259,187.86539,0.9575386,1.16539284,0.96759739,0.48343023,-0.43380985
46,1533.3333333333335,454.2842,44.332077,0.9244583,457.70966,40.50786,0.93394053,453.17633,41.1895,0.58925873,469.8412,39.765312,0.9213384,458.08926,41.5625,0.21654955,480.96115,58.252853,0.99701,461.45416,61.307327,0.9512054,489.1917,84.69081,0.99302965,459.07114,89.55416,0.7599759,480.57257,109.756805,0.9808404,454.6798,111.62046,0.74969465,476.1169,114.335785,0.99774724,462.73004,114.54794,0.9907204,477.45898,154.94333,0.9953164,457.91006,156.00488,0.98245746,485.25644,193.92302,0.98145986,458.16702,193.20798,0.9584963,1.053824,0.90102747,0.44388131,-0.31884778
47,1566.6666666666667,452.98685,43.490776,0.908364,456.19638,39.671356,0.92171526,452.08432,40.31817,0.5304504,468.0937,39.307228,0.91517466,457.58047,41.066483,0.18765257,479.87415,58.037254,0.9966595,461.05768,61.260742,0.94190544,487.54434,84.55832,0.992945,458.73972,89.656456,0.74139535,476.36923,109.18583,0.98049074,454.68167,111.17415,0.73466873,475.68137,114.94734,0.99767905,462.35162,115.19774,0.99014413,478.1104,155.61703,0.99504095,456.2168,157.36157,0.9809107,484.67773,195.26927,0.9798426,452.78397,195.74707,0.95399946,1.02183584,0.84330079,0.57456468,-0.05355071
48,1600.0,450.93878,43.040367,0.89074224,454.02612,39.21286,0.9116546,450.4237,39.773987,0.45834038,466.21664,38.8749,0.915873,456.90826,40.402992,0.15288159,478.55103,57.77726,0.9968522,460.67798,60.596222,0.9335898,485.609,85.81784,0.9939626,458.2065,89.8552,0.72193307,472.2975,109.80807,0.9823522,453.93387,110.76358,0.71780694,474.6965,115.3466,0.9981768,461.62152,115.403694,0.99148273,477.83475,155.99518,0.9962029,453.70316,158.25026,0.98401123,483.9523,195.83273,0.9843201,447.52304,197.44028,0.9619273,1.12649694,1.01304179,0.44682905,-0.2075704
49,1633.3333333333333,450.0216,42.590134,0.90975827,453.59998,38.538864,0.9054259,449.4293,39.051834,0.60167825,466.12134,38.284393,0.8627633,456.385,39.26712,0.22569185,478.3267,57.913162,0.9895738,461.37592,58.8033,0.9397473,484.44562,86.74949,0.97986996,460.66418,85.73255,0.80850124,469.29596,108.423615,0.9633457,454.42288,107.229126,0.8075907,475.5294,114.88004,0.9907486,462.67294,114.351906,0.9785131,476.9642,155.24603,0.9818923,452.20493,157.52736,0.9612857,483.8945,195.86267,0.9422889,445.9334,199.64363,0.910897,1.12649694,1.01304179,0.44682905,-0.2075704
50,1666.6666666666667,448.93304,41.689392,0.93275595,452.82004,37.58957,0.92823726,447.9377,38.075836,0.678668,465.54913,37.386948,0.8794211,453.97357,38.421097,0.2610253,477.38824,57.247437,0.99136025,459.01602,58.55342,0.9499555,483.30887,85.90321,0.9818361,458.16217,85.587685,0.8268046,467.4808,108.05312,0.9664483,451.41223,106.87078,0.8238813,474.47617,113.91247,0.9915535,460.57593,113.57782,0.9804776,477.3197,154.97641,0.98276514,451.03375,157.48056,0.96336335,483.76178,195.39526,0.9433383,444.2431,199.49852,0.91276443,1.06447676,0.95433253,0.45272455,-0.1319116
51,1700.0,448.3303,41.780884,0.93800473,452.2097,37.54062,0.9308116,446.99945,38.200836,0.7046373,464.7441,36.861526,0.8760047,452.376,38.37143,0.27878696,476.69635,56.323288,0.99152124,457.39822,58.30481,0.9543695,483.08206,84.65073,0.9820046,456.5668,85.200195,0.8435902,466.5182,107.00406,0.96729505,449.53683,106.581665,0.83964026,473.67188,113.562836,0.9920499,459.0729,113.58957,0.98234624,477.38116,154.64343,0.9836376,450.05255,158.05042,0.966605,483.68573,195.45422,0.94558936,442.59674,200.88895,0.91805047,1.06191165,0.9725103,0.40556062,-0.1319116
52,1733.3333333333335,446.45905,41.483765,0.94458425,450.57758,37.38707,0.9364971,444.9886,37.983826,0.7300296,462.89285,37.236694,0.8790327,449.34198,38.598877,0.2897596,474.8543,56.741425,0.99250305,453.46298,59.260696,0.9576812,482.73575,84.50247,0.98407894,452.78836,86.21516,0.853248,464.8368,107.20997,0.9710382,447.23972,108.395966,0.851407,472.32593,113.50492,0.99286807,456.34308,114.005005,0.983827,477.07483,154.41963,0.9847052,448.75723,159.16376,0.9681567,484.0444,194.68964,0.9471589,442.83725,202.21164,0.9190988,1.02105605,0.93124186,0.41317563,-0.06804379
53,1766.6666666666665,445.61932,40.640076,0.94957316,449.85422,36.633392,0.9393306,444.0458,37.276733,0.75560576,461.82312,37.13394,0.87789905,447.74713,38.533203,0.31298044,473.5584,57.173553,0.99289775,451.36435,60.128845,0.9627441,482.21655,85.10445,0.98452306,450.41348,87.18111,0.8693301,464.11057,107.48361,0.97206163,445.4248,108.436966,0.8656629,471.79276,113.76581,0.9934197,455.2391,114.73403,0.9856451,476.58713,154.44815,0.98569816,447.8569,160.67065,0.9712992,484.37094,194.4108,0.94962174,442.9497,204.18149,0.9243256,1.01619875,0.97029949,0.29010726,-0.08376509
54,1800.0,444.4056,40.56317,0.9532164,448.70956,36.60092,0.94121236,442.40717,37.29248,0.78085387,459.9102,37.466614,0.8740648,444.80237,39.008987,0.34186277,471.52155,57.589706,0.9931398,448.1117,61.449104,0.96482253,482.98923,84.0909,0.9845056,448.93106,87.98333,0.8752786,464.55862,106.57,0.9719811,444.68732,109.59944,0.8707474,469.8575,114.899185,0.993737,452.51544,116.48751,0.9865355,476.2991,155.65169,0.98607004,446.9259,163.57393,0.9726343,483.91174,194.1757,0.950701,442.34808,206.54196,0.9264299,1.01619875,0.97029949,0.29010726,-0.08376509
55,1833.3333333333333,443.52628,39.960846,0.96065515,448.09387,35.974472,0.9463721,441.07098,36.651245,0.8245013,458.88263,37.068542,0.86913234,442.01398,38.55684,0.39574745,470.0295,57.55153,0.9932794,444.52414,61.76931,0.970359,482.93515,83.90171,0.98348665,445.85956,88.87104,0.89142835,466.1903,105.444084,0.9706306,443.43607,110.10133,0.8837785,468.63336,115.069046,0.99378985,450.01596,117.085175,0.9876468,475.66537,155.78287,0.9860188,445.73312,164.59375,0.9745943,483.2884,193.09819,0.9510932,442.49435,206.888,0.93018436,0.94343348,0.92338121,0.17612778,-0.08008041
56,1866.6666666666667,441.97134,38.07808,0.96165645,446.76807,34.09114,0.9484394,439.48172,34.77063,0.82960725,457.65546,35.630035,0.87062836,440.0682,37.02266,0.39358473,468.52243,56.74141,0.9933435,441.8549,60.984848,0.96857697,482.28738,83.19556,0.9834103,443.27228,88.50262,0.8826397,468.68628,104.78626,0.97026384,444.24826,109.92419,0.87569827,467.1389,114.62088,0.9936621,447.84918,116.92788,0.98694104,474.0778,155.32231,0.9859431,444.04895,164.69331,0.97356594,482.97293,192.1648,0.9515669,442.5516,206.47964,0.9291698,1.33187002,1.31174665,0.13510499,-0.18693618
57,1900.0,442.54285,36.268272,0.97031265,446.90558,32.224632,0.9620795,438.63245,33.56366,0.8607535,455.81818,33.481575,0.9070759,435.55786,36.954674,0.45045525,465.6452,54.512993,0.9976411,436.93427,62.237328,0.97812724,480.6775,80.89697,0.9920706,438.2155,90.82859,0.8754465,472.12094,104.55336,0.9784822,441.68503,109.28403,0.844492,465.39502,112.409615,0.9987587,444.85144,116.61575,0.99628484,474.38342,154.61052,0.99757224,443.51123,167.0202,0.99347407,483.65778,191.40036,0.9908013,441.4781,208.18188,0.9825948,1.37325488,1.35915622,0.12134885,-0.15426534
58,1933.3333333333333,442.62793,35.1586,0.9759074,446.7524,31.112656,0.9543483,438.455,32.53235,0.91033137,454.67062,32.620316,0.8607071,434.0875,36.141754,0.6154511,464.2703,54.33516,0.99701035,433.61008,62.284256,0.98949593,478.9475,81.207726,0.9882941,433.1667,92.115265,0.94571495,471.5911,105.306656,0.9728328,435.8638,112.11014,0.91925013,464.71362,112.49666,0.99864084,443.14792,117.05525,0.9975132,473.94052,154.34026,0.99706715,443.46527,166.91714,0.9951432,481.48685,190.75363,0.9886537,441.81567,208.3399,0.9843183,1.28674451,1.26630224,0.22845026,-0.00073694
59,1966.6666666666665,443.33646,34.183273,0.9793314,447.10767,30.031563,0.93976086,438.66266,31.783096,0.94745004,453.93365,31.815292,0.765314,432.56604,35.898857,0.7792985,462.96472,54.037804,0.9949197,430.63174,62.84189,0.9946837,477.20197,80.89645,0.97490215,429.12225,94.24851,0.97593284,473.4589,106.26088,0.9522761,432.2896,116.72157,0.95566344,464.5953,112.35631,0.99817395,442.12903,117.64348,0.99818414,473.5847,154.18948,0.9961371,443.29736,167.58366,0.9964948,479.50372,190.08441,0.98648155,441.91025,209.19943,0.9873072,1.34397202,1.32427456,0.22722203,0.03046003
60,2000.0,444.7172,33.789482,0.97969157,448.15988,29.585663,0.9215405,439.7924,31.198288,0.9594459,452.84625,31.959206,0.64899385,431.94705,35.778793,0.84261847,460.89795,55.138443,0.98842317,427.56256,63.090637,0.99624795,475.78354,83.73302,0.94602275,424.9388,97.45596,0.98625433,476.26584,111.00652,0.92943424,428.19928,124.624115,0.97476554,464.2187,113.79582,0.995739,440.99487,118.72983,0.99750644,471.4973,154.83632,0.9918938,442.23474,167.02118,0.99556303,478.1831,191.4377,0.9757,441.84164,209.69983,0.9836398,1.26008343,1.25672207,0.07615009,0.05158554
61,2033.3333333333333,445.64526,32.46177,0.98242927,448.49188,28.463211,0.9034127,440.6736,30.049675,0.97127444,452.64993,30.803528,0.5513209,431.14444,34.17048,0.9039891,460.2987,54.023026,0.9916609,426.55853,61.365913,0.9979109,476.61624,82.167786,0.94944215,423.15686,93.54258,0.9925108,480.1744,108.23804,0.92372674,423.7303,118.29267,0.9824917,464.8901,112.61855,0.9978917,441.85632,117.63936,0.99897444,472.30933,155.82968,0.99537945,442.48264,168.11823,0.99790704,476.26654,192.42192,0.9841261,440.92126,210.47243,0.9904738,1.15742889,1.15576179,0.04962038,0.03733811
62,2066.666666666667,447.3237,31.65451,0.98159605,449.70602,27.845284,0.8822045,442.32504,29.059402,0.9715143,452.42416,30.82193,0.4801474,431.25433,33.421364,0.9168882,459.3298,54.707603,0.991683,424.55273,61.083206,0.9982191,475.6396,81.818054,0.94956154,418.99927,94.67496,0.9938258,482.25714,104.077576,0.92507195,419.18076,121.74782,0.98525476,464.60455,113.75828,0.998059,441.15155,118.18538,0.9991184,471.6661,158.35774,0.99573684,442.36295,167.55551,0.99816966,475.5869,197.22983,0.9848187,441.77637,210.25317,0.9912305,1.0943737,1.0936135,0.03217955,0.02505583
63,2100.0,448.03693,30.699142,0.982723,450.52,27.182045,0.9036489,442.77713,28.210335,0.97445405,452.89047,30.940315,0.5168686,431.9529,32.987507,0.92404145,459.74808,54.068417,0.9898976,423.06146,59.283676,0.99786454,474.51596,82.2135,0.9323896,414.02344,92.77708,0.99090624,483.76257,104.8017,0.8918603,413.5952,122.73984,0.976313,464.46033,112.738144,0.9961075,439.68127,117.09303,0.9981273,473.08414,156.58926,0.9871071,440.893,164.68503,0.9942819,475.0774,196.81126,0.95184207,439.5117,207.25533,0.9718626,1.05238305,1.05234506,-0.00859759,0.00245645
64,2133.3333333333335,449.12033,30.713192,0.98298484,451.50677,27.175995,0.8917277,443.92328,28.084778,0.9762877,453.39142,30.758968,0.46532246,432.39313,32.40747,0.9341261,459.16092,53.926228,0.9897058,422.80655,58.063957,0.9982925,474.05203,81.46747,0.93132335,411.5523,89.54808,0.99329656,485.5359,103.076614,0.89394134,407.87903,117.27749,0.98207504,464.17957,112.746086,0.99678516,439.5834,116.81585,0.9986326,473.7076,157.03328,0.98929554,440.97443,165.13686,0.9958056,476.38055,196.54901,0.9592235,439.23688,207.58191,0.97801423,1.05485203,1.05406458,-0.03340778,0.02333632
65,2166.6666666666665,451.36835,31.678009,0.98060846,453.30273,27.956863,0.83406013,446.6599,28.446548,0.9748796,453.84708,30.48851,0.34346303,433.04633,31.316887,0.9403565,458.38916,54.412315,0.9903536,422.5787,57.762268,0.9987909,476.0141,82.603355,0.9393408,410.6262,89.87986,0.99626356,488.55817,103.44289,0.91558367,404.76605,116.596985,0.990274,464.46918,114.13779,0.99846774,440.55048,117.57937,0.9994615,473.9537,159.35706,0.9969537,442.55157,166.45676,0.9989755,477.66357,200.29153,0.9894924,441.56274,211.21245,0.9948348,1.11940266,1.10908916,-0.04200537,0.14566775
66,2200.0,452.99213,31.585495,0.98161525,454.66788,27.760681,0.83098376,448.34894,28.168137,0.97721976,454.45905,29.885727,0.3193041,434.0701,30.488922,0.94698083,458.4947,53.93447,0.9902532,422.5044,56.388702,0.99887425,476.08936,82.717285,0.93670267,409.13724,88.22018,0.99647176,488.92514,102.07153,0.91248095,402.80145,114.37195,0.990694,464.35135,114.40865,0.9984471,440.28513,117.44829,0.9994735,474.31647,160.09846,0.9969549,442.5327,165.94443,0.9990049,479.56772,201.92673,0.989578,442.15244,210.75934,0.9949753,1.11940266,1.10908916,-0.04200537,0.14566775
67,2233.3333333333335,454.89255,31.444977,0.9799463,456.24292,27.546608,0.8047443,450.37863,27.871521,0.9759778,455.04727,29.272064,0.27856863,435.3065,29.663208,0.94862294,458.438,53.200882,0.989781,422.5249,55.04036,0.9988971,475.96262,82.808365,0.935502,408.40222,87.11424,0.99668175,489.28864,101.777695,0.91164213,401.676,113.82286,0.99118125,464.3649,114.36917,0.9985416,440.2312,117.177574,0.9995191,474.88766,160.14604,0.99722064,442.2871,165.20796,0.99911016,481.8682,202.50522,0.9906158,442.5597,210.01233,0.9955338,1.10967021,1.09435043,-0.09752124,0.15573921
68,2266.6666666666665,456.59686,30.916283,0.9760741,457.69238,27.079376,0.76409334,452.3208,27.245438,0.9716574,455.62994,29.010773,0.24293934,436.8828,28.997452,0.94589776,458.59808,53.118668,0.98901117,422.79706,53.97448,0.9988543,476.03214,83.11877,0.93535733,407.64594,85.69512,0.99678123,489.0896,101.56705,0.9123698,400.83353,113.17041,0.99146795,464.36746,114.36011,0.99862397,440.1555,116.71266,0.9995511,475.3077,160.57886,0.9974401,441.93634,164.34987,0.9991831,484.2517,204.43484,0.99134034,443.1909,209.95636,0.99589443,1.1088945,1.08992882,-0.0994864,0.17833859
69,2300.0,458.09283,30.89148,0.9778381,459.2598,27.006851,0.77577406,453.7676,27.083496,0.9741896,457.10144,28.898323,0.24349694,437.86182,28.651833,0.94948256,459.36105,53.26912,0.98918426,423.08374,53.673103,0.9988833,475.9559,83.857666,0.9349902,407.29742,85.4242,0.9967685,488.57062,102.32857,0.91162866,400.82993,112.79721,0.99142975,464.83487,114.39237,0.9985857,440.15558,116.66863,0.9995383,476.89856,161.29396,0.9973183,442.0242,164.99326,0.99914086,486.56308,205.02774,0.9908366,443.28632,210.4501,0.99563664,1.07523372,1.05529281,-0.08302816,0.1886557
70,2333.3333333333335,459.3943,31.101341,0.9757262,460.43494,27.099846,0.75636035,455.24292,27.207275,0.9720581,457.83325,28.58693,0.22847725,439.3695,28.350876,0.9476978,460.0377,52.768097,0.98818284,423.6162,52.90744,0.9987998,476.45013,84.86267,0.9323183,407.1757,84.865326,0.99666685,489.15543,105.74197,0.9088686,401.52155,112.637054,0.9911869,465.16858,114.64511,0.9984427,440.2165,116.9198,0.99949276,478.1078,161.85863,0.99692804,441.69162,165.52446,0.9990133,489.5883,206.27654,0.98932797,443.26437,211.31554,0.9948985,1.06973628,1.04915167,-0.09162575,0.18767312
71,2366.6666666666665,460.21844,31.107574,0.97599673,461.2618,27.051064,0.765282,456.14038,27.144043,0.9716331,458.53418,28.30178,0.24000484,440.376,28.083084,0.945585,460.55557,52.222946,0.98851585,424.5418,52.489525,0.99871814,475.89758,84.42607,0.93550366,408.4596,84.31457,0.9963754,487.9262,106.59185,0.9115205,403.34918,111.21811,0.99052936,465.63947,114.64371,0.99838245,440.68362,116.85034,0.9994449,479.08588,162.90237,0.9967038,441.42572,165.78275,0.99887854,492.05807,208.51433,0.9882543,443.30524,211.85712,0.994175,1.15849403,1.14519904,-0.15721308,0.07688702
72,2400.0,460.445,30.572784,0.97772115,461.76263,26.548126,0.7898946,456.37326,26.583458,0.9727643,459.44495,27.937447,0.26953602,440.96188,27.573029,0.94438154,461.05344,52.20034,0.98939997,425.61285,52.232285,0.99868995,475.14447,84.7532,0.9395053,410.5128,83.79813,0.99610907,486.56454,107.35834,0.91496325,406.09857,110.03422,0.98989797,465.91266,114.81276,0.99840873,441.15082,116.90791,0.99942493,479.5488,163.01831,0.99673164,441.46655,165.80096,0.9988311,493.08475,208.43214,0.98833793,443.60504,211.78415,0.9940309,1.10824252,1.09385914,-0.17612778,0.02554713
73,2433.333333333333,460.42053,29.825142,0.97996885,461.94708,25.72303,0.8208091,456.18317,25.882034,0.9745943,460.35486,27.096832,0.30785614,441.2384,27.060532,0.94328076,462.2414,51.567924,0.9901038,426.5769,52.06111,0.9986339,474.88037,85.224655,0.94213223,412.94327,84.86079,0.9956832,484.4827,111.1039,0.91733974,410.93347,112.28458,0.98898494,466.3792,114.33835,0.9983102,441.3204,116.52658,0.9993537,480.0934,162.75134,0.9964645,441.87442,165.35426,0.99866545,493.42578,209.1726,0.98735166,444.01483,211.7389,0.99330443,1.07172383,1.06536427,-0.11225997,0.03144262
74,2466.666666666667,460.61935,29.121284,0.9818009,462.3282,25.00071,0.8491528,456.1908,25.24173,0.9758292,461.55234,26.617928,0.34672174,441.60526,26.721573,0.9399722,463.85864,51.51642,0.99056256,427.7568,51.829575,0.99846977,475.39008,85.33989,0.9444614,415.93872,84.607285,0.99484974,482.487,112.695206,0.9194394,417.1388,113.80789,0.98734015,467.7941,114.10011,0.99813384,442.23953,116.13209,0.9992254,480.81976,162.88866,0.99600405,442.2193,165.13167,0.9983651,494.5689,209.95639,0.9856538,444.50177,211.59637,0.99200624,1.07552884,1.06978589,-0.08769542,0.06804379
75,2500.0,459.30136,27.614044,0.98443824,461.9483,23.541214,0.89129543,454.72412,23.746307,0.9766177,463.2876,25.646133,0.45554382,441.7432,25.629272,0.92986596,466.06882,51.355972,0.99208164,429.0154,51.34144,0.9983412,476.1081,85.99638,0.95345026,417.5791,83.87625,0.9939287,481.87836,115.71882,0.9291553,419.29202,113.65744,0.98551154,468.44202,114.14023,0.99814296,442.14722,116.047,0.999126,482.0918,162.24957,0.99581677,441.98553,164.83598,0.99808085,495.69275,209.45874,0.9845307,444.4281,212.26001,0.99075294,1.05621852,1.05062555,-0.05011167,0.09629301
76,2533.333333333333,457.2948,26.802902,0.98370254,461.04294,22.700516,0.91965777,452.72452,22.915855,0.9720943,465.10486,25.008278,0.59594315,442.728,25.076218,0.8994294,469.50986,51.274155,0.9922323,431.51028,51.203926,0.9975541,478.22598,85.41223,0.9542531,419.51648,84.171906,0.9897626,481.9797,113.035446,0.92447126,422.52835,114.65015,0.9763095,469.43878,113.99409,0.9979297,442.60495,115.564926,0.9988127,482.81433,162.99675,0.9957001,441.9575,164.94847,0.9976367,496.5569,209.90945,0.98525465,445.0088,212.66669,0.9901805,1.03993767,1.03244778,-0.01154534,0.12405095
77,2566.666666666667,455.97723,26.278831,0.9827916,460.5651,22.063202,0.93597806,451.21265,22.409592,0.9659322,466.9811,24.686798,0.6973892,443.2082,25.165886,0.8589482,472.61932,51.711746,0.9927914,434.15097,51.644516,0.9966524,479.6557,85.10535,0.9590112,422.14594,83.49405,0.9847419,481.6633,109.525276,0.92750585,424.55106,111.64898,0.96636283,471.44824,114.99479,0.99797434,444.2439,116.23094,0.9985979,483.7068,164.08865,0.99602675,442.1212,165.53375,0.99739254,497.3551,210.61127,0.98679835,445.1618,213.2675,0.990209,1.08459107,1.080103,0.02603842,0.09506479
78,2600.0,454.84555,26.456924,0.9815121,459.92892,22.110588,0.9477372,450.28073,22.461365,0.95332456,468.39337,24.781158,0.789171,444.7097,25.391556,0.79083276,476.16833,53.204018,0.9945592,436.81384,52.03575,0.99551576,482.7934,88.18327,0.9719263,423.88678,83.755325,0.97808754,484.2565,111.281494,0.94505715,427.6697,112.15291,0.9553961,473.4475,117.42555,0.99821126,445.8215,117.81085,0.9983582,484.89825,166.6156,0.9961904,442.74457,166.41151,0.9967198,498.6105,212.23502,0.98629665,445.06635,212.72272,0.9879766,1.07487846,1.06610121,0.0567441,0.12478788
79,2633.3333333333335,453.33096,27.354393,0.9804361,458.6526,22.982666,0.9572493,449.34702,23.342453,0.9315257,469.1583,25.265106,0.8581101,446.14514,26.134926,0.6789798,479.14627,53.150177,0.9965301,439.94507,52.563713,0.99401325,486.2707,86.131584,0.98497,427.26724,82.97253,0.96944875,485.3739,107.09305,0.96713525,429.64706,109.898964,0.9451351,475.36163,119.07756,0.99869674,447.8623,119.03896,0.99827814,485.82898,168.06262,0.9969024,443.41705,166.8673,0.9961952,499.07965,213.51724,0.98707503,444.7519,212.406,0.985819,1.12541382,1.11572159,0.09432785,0.11324255
80,2666.6666666666665,453.06476,27.249832,0.9766812,458.5386,22.561554,0.9565137,449.78452,22.939056,0.9034244,470.42053,25.059021,0.87621194,448.7702,25.55909,0.5771374,482.55423,53.324844,0.996951,443.7325,52.387596,0.9899659,488.79346,87.90754,0.9875057,431.49268,83.67211,0.94952357,486.31934,113.80556,0.967288,433.22443,109.68492,0.9145034,478.3309,118.29353,0.9984401,450.3588,117.7339,0.9973687,487.79257,168.83398,0.996007,444.00845,166.02919,0.9937835,500.82428,215.43613,0.98197305,444.58786,211.16731,0.9770901,1.06898226,1.06413604,0.05060296,0.08818671
81,2700.0,453.69986,27.364876,0.97875834,459.15643,22.772644,0.9645941,450.6984,23.048492,0.88165575,472.0242,25.173698,0.91227084,450.5943,25.731659,0.48922145,485.2781,53.278595,0.9984016,447.14432,52.88362,0.9906365,493.72278,88.4996,0.9945089,435.91376,84.43898,0.9523012,494.4827,117.88238,0.98405343,435.87503,109.20225,0.92476237,481.26645,118.47901,0.9991364,453.95764,117.72173,0.9980434,489.53714,169.44432,0.9972807,445.929,165.73392,0.99431473,501.11844,215.95325,0.9844507,444.55084,209.41412,0.9761898,1.09304865,1.0909114,-0.00614114,0.06804379
82,2733.3333333333335,454.3146,27.30523,0.9773376,459.71198,22.865005,0.96300393,451.6728,23.009094,0.8803548,472.7007,25.09819,0.9042246,452.1835,25.31224,0.47051015,487.5162,52.64042,0.9976914,449.4554,52.444275,0.9889209,499.08112,88.0019,0.99267405,440.07413,83.5477,0.9510885,500.76422,120.214264,0.9818578,439.3436,107.27013,0.928692,483.88187,118.54294,0.99864274,456.94894,117.57644,0.9972562,491.34683,169.83354,0.99596316,447.75305,165.55444,0.99249345,500.6899,216.29752,0.97909784,444.39276,208.773,0.9705373,1.10305394,1.10049157,0.00835194,0.07467621
83,2766.6666666666665,455.16064,27.60205,0.975037,459.92368,22.998932,0.9668675,452.707,23.45086,0.82008094,473.99722,23.614304,0.9332529,454.24655,25.358215,0.3583503,490.0841,49.592636,0.998743,452.64505,51.58766,0.9884206,503.2363,83.50253,0.9964749,442.18723,84.26864,0.936894,506.5905,115.08071,0.9902683,439.70486,107.88486,0.9163305,485.68317,117.602684,0.99935585,459.75516,116.88739,0.9980342,491.67142,168.80225,0.9981027,450.70044,164.82266,0.99474055,499.91467,217.19595,0.9885129,446.3299,209.00014,0.97907627,1.07598776,1.07248799,0.00024565,0.08671284
84,2800.0,456.14465,26.01149,0.97209734,461.16095,21.273865,0.961819,453.6681,21.669083,0.8020993,475.6806,22.263077,0.92886496,455.74896,23.658936,0.3298396,492.57504,48.79358,0.9988519,455.55182,51.117584,0.9872798,507.4677,81.32834,0.996852,447.1734,84.70575,0.9380387,514.9009,110.74515,0.99012786,443.1174,108.431305,0.91162854,488.5668,117.41842,0.9994493,462.88364,116.65201,0.9982699,494.02264,169.4838,0.99819535,452.43073,164.10985,0.99483407,501.11636,217.86777,0.988219,447.2943,207.75662,0.9780005,1.10892372,1.1044219,-0.02014293,0.09776688
85,2833.3333333333335,457.1086,26.356323,0.96801233,461.88766,21.582855,0.95712435,455.0679,22.00753,0.7674919,476.80914,21.794037,0.9275195,458.23288,23.264465,0.29915562,494.61707,47.789505,0.99887604,458.17584,50.23272,0.9865827,511.76926,81.07733,0.99704367,450.11957,84.52156,0.936101,523.07513,113.93355,0.99066836,444.85684,108.79877,0.9100636,489.56134,117.244736,0.99949074,464.72052,116.386215,0.9983346,495.12027,169.59904,0.99835616,455.54916,163.61267,0.99515474,501.71536,217.85867,0.98924935,450.74088,206.51329,0.9796098,1.07877468,1.07322493,-0.06141136,0.09039752
86,2866.6666666666665,458.8106,26.875488,0.9656795,463.55194,22.012268,0.9548971,456.95703,22.449928,0.74364805,479.04623,21.59488,0.9279281,460.76462,23.068436,0.27871415,497.32748,47.451218,0.99892056,460.87408,49.514107,0.9859891,516.14624,81.15274,0.99721503,452.67087,85.8211,0.9325162,529.3073,111.033714,0.9913692,447.55084,112.72093,0.908488,491.2907,117.40959,0.99950707,466.9329,116.25419,0.998314,495.3558,168.8959,0.99850947,459.07712,162.18259,0.9954312,502.2708,217.96057,0.99043065,456.36237,205.70944,0.9814445,1.07877468,1.07322493,-0.06141136,0.09039752
87,2900.0,460.04782,27.23558,0.966367,464.6952,22.346848,0.95784664,458.23184,22.94925,0.7308715,480.56763,21.582748,0.9346695,462.29153,23.556473,0.25855383,499.45026,46.37751,0.99906915,462.73898,49.602753,0.98551303,519.3414,77.39181,0.9976985,454.6667,84.53168,0.9287761,534.9168,109.92905,0.99281293,450.5359,111.21109,0.90790576,493.04486,116.20866,0.9995548,468.78726,115.36954,0.9983223,496.34082,167.47781,0.9986411,461.43967,160.46399,0.9954235,502.97025,217.56233,0.9910035,459.32516,203.69742,0.9815028,1.10131094,1.09656124,-0.05920055,0.0832738
88,2933.333333333333,461.2432,27.443253,0.970014,465.87372,22.399536,0.9634417,459.2571,23.17109,0.75318253,481.95596,20.994766,0.94041634,463.3609,23.428757,0.2730538,500.61084,45.48333,0.99911815,464.2728,49.57338,0.98549795,520.67114,75.304306,0.9976611,456.8537,85.640305,0.92199284,539.8901,105.97369,0.99261767,453.0122,111.38437,0.90035254,493.7302,115.89552,0.9994961,470.10086,115.32664,0.9980379,496.27472,167.68301,0.998481,464.44296,159.9035,0.99472344,503.6567,217.02542,0.9901558,464.42126,201.19505,0.97941554,1.09754168,1.09435043,-0.04421618,0.07099153
89,2966.666666666667,461.4928,27.950104,0.9647482,465.96866,22.950417,0.96170914,460.03006,23.795357,0.6915012,482.6301,21.017624,0.9466163,465.4206,23.473831,0.22120503,502.49277,44.937927,0.99920136,466.7553,48.6211,0.9817452,524.8346,73.910416,0.9980406,459.92007,82.79313,0.9001225,544.0624,107.065704,0.9936469,455.46368,110.54652,0.8821985,494.92892,116.27668,0.99950135,472.24442,115.39885,0.9977093,495.47958,168.36752,0.99848396,467.35278,160.1717,0.9938293,504.62335,216.68494,0.9899385,470.60712,199.8616,0.97681844,1.09872361,1.09557866,-0.03881198,0.07344799
90,3000.0,462.45444,28.650879,0.9619032,466.8366,23.635933,0.960305,460.94885,24.602509,0.6679782,483.61163,21.231598,0.94667965,466.52576,23.962189,0.20509179,503.2442,44.4955,0.99916387,468.6928,48.265762,0.97916245,525.5791,72.72513,0.998018,462.0699,81.86947,0.88685745,544.1997,103.40666,0.99369216,457.5669,109.14749,0.87297916,496.31564,115.82108,0.9994512,474.68536,115.139336,0.9973615,495.72717,168.15303,0.9983889,471.37122,160.91307,0.9931471,504.8058,216.54402,0.9893355,475.7193,201.14162,0.97472376,1.0987383,1.09606995,-0.02063422,0.07369363
91,3033.333333333333,463.03143,29.691063,0.9623379,467.35837,24.717766,0.9637241,461.553,25.68338,0.65646,484.22723,21.938583,0.95336586,467.54666,24.686302,0.19517608,503.61606,44.623566,0.9992507,470.72064,48.66983,0.97737086,525.41425,71.4298,0.9982083,464.91714,82.30618,0.86847913,543.64197,99.25192,0.9940633,459.43332,109.066605,0.8569948,497.5835,116.31658,0.9994485,477.28497,115.69493,0.9970745,495.76425,168.39929,0.9984131,474.46368,160.91545,0.9925485,505.4727,215.56503,0.98960614,480.6221,199.5553,0.9738011,1.08065608,1.07617267,-0.01056275,0.09776688
92,3066.666666666667,463.541,29.960686,0.95555663,467.6743,24.980484,0.9610214,462.375,26.065277,0.6007865,484.66812,22.04332,0.9547351,469.1643,25.048508,0.1645548,504.1641,44.24019,0.9992065,472.7226,49.02291,0.9706623,525.67,70.7097,0.99820244,466.92722,83.86115,0.82987654,543.0196,97.87976,0.9939448,461.1586,110.85571,0.8246328,498.69434,116.11023,0.9993611,479.53845,115.79622,0.99622345,495.91583,168.1229,0.9982509,477.36682,160.81926,0.99081504,507.46558,216.13383,0.98879015,486.01407,199.65384,0.96972513,1.08065608,1.07617267,-0.01056275,0.09776688
93,3100.0,463.951,30.274292,0.94586724,468.10068,25.467255,0.9591159,462.97336,26.359749,0.5384152,484.9662,22.588844,0.9575676,470.10605,25.07251,0.13502148,504.13104,44.390457,0.99913687,474.32364,48.64337,0.95709366,526.24274,71.30257,0.9980915,470.06488,83.62129,0.75198287,541.0934,97.9769,0.9933141,464.5857,111.31973,0.75833875,499.2663,116.03894,0.9992673,481.37436,115.63412,0.9949458,495.82962,168.01248,0.9982382,480.10593,161.34425,0.9892513,507.6198,215.95276,0.9896259,490.56046,200.61526,0.96910155,1.09867828,1.09263092,0.00958017,0.11471642
94,3133.3333333333335,464.2592,31.178596,0.9345933,468.18945,25.833248,0.93510574,463.7397,27.085854,0.5520686,483.88687,23.392838,0.93036395,471.48004,26.449158,0.16203326,503.90836,45.119354,0.99857104,475.2375,50.38888,0.9615049,525.579,71.74696,0.99652123,472.16296,85.33159,0.8119488,536.9642,96.403656,0.9885576,467.5332,113.443985,0.78691703,500.23267,116.55545,0.998899,482.06894,116.67404,0.9947973,496.22647,166.80644,0.9969613,481.75476,161.0864,0.986896,507.58862,213.25809,0.9820889,493.87396,201.08423,0.9570447,1.07863553,1.07322493,-0.03316213,0.10267979
95,3166.6666666666665,465.14005,30.890366,0.9209852,468.6598,26.137794,0.9433946,464.56403,27.339622,0.43439758,484.65445,22.908615,0.9523077,472.91815,26.116058,0.111545414,504.8029,43.361916,0.99892825,477.3771,48.851135,0.94329584,527.0291,69.70081,0.9978248,474.12997,82.610985,0.7036667,533.1229,98.959274,0.99253523,468.3686,110.23796,0.7223629,499.75174,116.09468,0.9991673,483.81174,116.32358,0.9940415,497.0761,167.2514,0.9981653,486.2963,162.63628,0.98845506,508.64194,216.26328,0.9897445,498.29108,203.57344,0.96880126,1.08035607,1.07543573,-0.04298795,0.09359091
96,3200.0,466.1555,30.431831,0.87003773,468.9882,25.437847,0.9062913,466.06772,26.92744,0.3312411,484.53305,23.02443,0.9347367,475.90045,26.77993,0.099238984,504.39062,44.593536,0.9983152,480.1327,50.18872,0.92520344,524.4185,71.7507,0.99647397,476.64972,84.421715,0.64333016,528.3377,96.563934,0.9874893,471.87335,110.246376,0.64272916,499.45,116.5126,0.9989945,485.66528,117.15942,0.99329597,498.23196,165.7703,0.9977957,489.76016,162.77913,0.9871471,508.53934,214.94012,0.98888063,499.95953,205.22134,0.9675241,1.09075286,1.08599849,-0.04470747,0.0913801
97,3233.3333333333335,467.22095,30.49858,0.84489435,469.78027,25.750748,0.8698967,467.27032,26.997211,0.30368683,483.99918,23.495483,0.9160521,477.10315,26.498688,0.11289234,503.05453,44.924416,0.99791056,481.3608,49.64977,0.93839556,521.82983,74.53953,0.9959319,479.8085,84.1311,0.72704315,518.4701,101.88373,0.9868695,473.62836,109.96582,0.7217653,500.0472,115.96893,0.998774,488.20932,116.641884,0.9933942,498.44186,165.55133,0.99686855,494.56195,164.19318,0.9851834,506.505,214.32088,0.98254967,505.59808,208.15182,0.95566636,1.09463869,1.08968317,-0.04544441,0.09359091
98,3266.6666666666665,469.2266,31.39679,0.85727173,471.90738,26.567574,0.9032229,468.4535,27.760635,0.3435629,485.3796,23.764496,0.93122685,477.08575,26.827286,0.1149994,502.58044,45.136326,0.99747187,482.67926,49.346268,0.9010004,518.822,74.45824,0.99424523,481.87576,82.90804,0.5498902,513.98914,102.19747,0.9801026,476.3114,110.92105,0.5566968,499.9003,115.96941,0.99801683,489.27124,116.56757,0.98744756,498.56204,166.74603,0.9958735,496.7102,165.26721,0.9770421,506.4335,216.0574,0.9812555,506.86264,209.30554,0.9470068,1.05378177,1.04939732,-0.06067442,0.07443057
99,3300.0,470.6873,31.00832,0.89253813,473.35803,26.388252,0.91292226,469.91025,27.400528,0.45733976,486.09106,24.486328,0.92732245,477.4375,27.027332,0.17563932,501.49298,45.71112,0.99766576,482.41336,50.167633,0.946491,515.6081,73.793724,0.99426234,482.9955,82.916115,0.7169782,507.6286,101.46754,0.98079383,476.81357,110.08289,0.6917542,502.26025,112.98941,0.9982705,491.7841,114.03545,0.9917651,501.46268,164.68105,0.994808,498.16174,164.57544,0.9779975,507.75873,213.90845,0.9726979,507.38712,210.31268,0.9351393,1.0885565,1.08329639,-0.0621483,0.08695849
100,3333.3333333333335,470.96066,30.928444,0.8580332,473.73444,26.642094,0.9092938,470.57736,27.27678,0.35585135,486.45108,25.435379,0.9355479,478.5522,26.988533,0.11983209,500.70578,46.55902,0.997417,484.17807,49.30741,0.9008837,512.17944,76.114845,0.99413425,484.88724,81.57855,0.5382165,500.02808,104.02325,0.9783295,480.10446,109.49925,0.5347561,502.68668,111.72824,0.9980242,493.6081,112.26107,0.98758906,500.76996,163.08495,0.9952276,498.92212,163.5574,0.9733533,507.88568,213.10913,0.9779146,508.59662,210.65903,0.93704534,1.12083901,1.11719546,-0.04814651,0.07639573
101,3366.6666666666665,471.3751,33.661087,0.7688122,472.96896,29.217636,0.85548395,471.87192,30.089859,0.21104279,484.1324,27.144363,0.9279214,482.69006,29.102036,0.08603272,499.71515,47.157333,0.9971957,488.6684,49.726067,0.87486774,509.24966,78.31311,0.9948314,487.74658,82.71986,0.50142336,493.5476,107.36847,0.97963095,481.5743,109.24946,0.50629103,503.2817,113.60096,0.9981871,497.88806,113.97893,0.98756206,499.89288,163.88765,0.99557793,501.54196,163.99768,0.97298276,508.82983,214.43872,0.9790106,509.51685,210.39957,0.93685603,1.09694178,1.09263092,-0.07467621,0.0621483
102,3400.0,473.51053,35.53311,0.7517729,474.88342,31.090729,0.8528213,474.02783,31.961021,0.19819032,485.0434,28.712261,0.92949307,485.02988,30.615276,0.0835835,499.54517,47.93012,0.99692106,491.40912,50.339493,0.85366905,507.34155,79.12504,0.9943541,489.471,82.65845,0.44518885,490.4168,107.36693,0.9771845,481.61398,106.596954,0.45643505,503.85184,113.861206,0.99794894,500.2409,114.30258,0.9852706,500.02216,163.26128,0.99536693,502.6798,164.00017,0.97028536,509.58966,214.02063,0.9793109,509.3463,210.66794,0.9356491,1.10093608,1.09754382,-0.0778696,0.03733811
103,3433.333333333333,474.79144,35.464573,0.7693912,476.2413,31.066956,0.8606855,475.39877,31.825836,0.21751378,486.31976,29.522415,0.93325156,486.6161,31.079124,0.0971016,499.56378,50.10756,0.9971366,492.9781,51.76484,0.8752724,504.74918,82.345924,0.9941842,489.62912,84.92445,0.46936217,486.9002,109.30518,0.9758504,480.18152,107.95842,0.46759814,503.5121,114.148094,0.9978561,501.23508,114.187515,0.9853814,498.5911,162.96422,0.99515045,504.5123,162.4218,0.9703279,508.11423,213.75607,0.9782761,512.6584,208.5115,0.93477505,1.13106868,1.12702128,-0.07221976,0.06263959
104,3466.666666666667,475.7906,35.439087,0.72596234,477.04495,31.310204,0.81736714,476.87146,31.739414,0.18623477,486.69037,30.83693,0.92420954,489.42145,31.315723,0.10955907,498.31036,51.72038,0.9967854,496.8768,51.724594,0.89667654,501.1116,83.333015,0.9933982,493.79388,84.646576,0.53841126,483.6281,109.372345,0.97280574,481.14383,108.61462,0.5156581,503.5045,113.49898,0.9978156,504.58212,112.72789,0.9873312,496.99445,163.03893,0.99486285,505.95184,160.60829,0.97312623,506.39462,214.25385,0.976262,514.791,206.73126,0.93608314,1.13106868,1.12702128,-0.07221976,0.06263959
105,3500.0,477.4044,37.567448,0.7592178,478.66742,33.285095,0.841915,478.2122,33.67706,0.220423,488.4037,31.992954,0.93172145,490.94736,32.351677,0.13421552,498.30667,52.701115,0.9969361,500.05142,51.96575,0.9102955,499.05112,85.041084,0.9928884,497.44727,85.28604,0.5531488,482.32764,110.288124,0.97035235,481.82697,108.13844,0.522958,503.38943,114.038055,0.9977229,506.5091,112.921646,0.98748636,497.4455,163.53015,0.99484164,507.85913,160.3887,0.97450805,505.6563,215.08894,0.9768678,515.417,206.74829,0.9400538,1.1028105,1.10000028,-0.07737831,0.01424744
106,3533.333333333333,478.2301,38.736664,0.73956907,479.2718,34.45786,0.82299477,479.1678,34.771572,0.20537452,488.5506,32.854416,0.928117,492.41595,33.01303,0.13903199,498.1465,53.18853,0.996761,502.0713,51.895973,0.9160106,497.18756,85.91055,0.9924124,498.53552,85.38786,0.5758191,480.29407,111.39707,0.9684285,481.7456,108.40027,0.5383038,504.43857,113.67325,0.9976962,509.19287,112.24224,0.98812884,496.87375,163.10065,0.9949077,509.977,159.08415,0.97628766,504.09256,215.25934,0.9773597,517.3502,205.62863,0.94368494,1.12043412,1.11547594,-0.08351945,0.06411346
107,3566.666666666667,479.632,40.54757,0.7313226,480.75662,36.309387,0.8180402,480.64868,36.57148,0.20222346,490.08072,34.519665,0.9261265,493.78625,34.563595,0.13743074,498.54483,54.413673,0.9964819,503.4071,52.881107,0.9113554,495.51828,87.032585,0.99178445,498.96393,85.934006,0.5623255,478.99802,113.50903,0.9659226,481.48587,109.84852,0.5236931,504.53674,113.66692,0.9975343,509.73834,112.192276,0.9874226,497.11896,162.49855,0.9947968,510.01535,158.70967,0.97596514,504.01538,214.11392,0.9777916,516.7787,205.04648,0.94493556,1.1121808,1.10270238,-0.13903532,0.04077714
108,3600.0,481.05106,42.744453,0.6926534,481.80035,38.45718,0.7913899,482.28595,38.663002,0.17293233,490.30338,35.857906,0.9238572,496.41446,35.67922,0.13510421,498.5485,54.67642,0.9961796,506.77505,52.57526,0.9055866,495.34222,87.32762,0.99135953,502.52875,85.35805,0.55160755,478.85126,113.66304,0.96383137,483.19135,109.19214,0.51258564,505.04373,114.08017,0.9973459,512.46313,112.3385,0.98657113,497.39066,161.97467,0.99441177,511.2302,157.89664,0.9744392,504.31122,212.69173,0.9765232,516.73553,203.23714,0.9423114,1.29149239,1.28472565,-0.12699869,-0.03610988
109,3633.3333333333335,481.72574,42.176632,0.6772573,482.3938,37.88952,0.779551,483.03064,38.04362,0.16846116,490.41684,35.59109,0.92283833,497.5488,35.204643,0.14361437,498.12854,54.589417,0.995862,508.50552,52.438244,0.9046249,495.4115,86.76161,0.9901832,505.078,85.04165,0.54233617,480.13034,112.95552,0.9587854,485.23856,107.89076,0.49733064,504.90997,114.01576,0.9971033,513.7754,112.26334,0.98583764,497.29025,161.4761,0.9940572,511.84137,157.39337,0.973801,503.82278,211.51343,0.97595084,516.8229,202.02805,0.9422868,1.0766546,1.05897749,-0.19283167,-0.02382761
110,3666.6666666666665,482.90204,42.153637,0.625957,483.77176,38.107056,0.7538825,483.83084,38.020123,0.121710375,491.80786,36.241142,0.92442715,498.21832,35.326138,0.11299317,498.58194,54.57248,0.99620014,510.22757,51.893715,0.87910515,495.9686,87.4079,0.9921634,507.45105,85.16648,0.4781551,480.79272,114.34059,0.96673757,489.51666,106.60144,0.4628896,504.95374,114.11153,0.99752325,514.29944,112.223045,0.9853286,497.07156,160.77324,0.9959592,512.06274,156.7917,0.978375,502.66492,211.17761,0.98420376,516.9623,200.94943,0.95697474,1.0766546,1.05897749,-0.19283167,-0.02382761
111,3700.0,483.5128,41.954613,0.6024484,484.48807,37.997337,0.73357105,484.49426,37.86345,0.119713575,492.5497,36.5083,0.91847533,498.8685,35.414856,0.118141025,498.4019,54.804993,0.99545234,511.3977,52.0858,0.8732573,495.9713,86.666824,0.99000895,510.2078,84.66301,0.4617703,483.07715,112.92178,0.9585184,493.97882,105.1142,0.4385517,504.91882,113.53373,0.9972452,515.2031,111.73384,0.9846629,496.9261,160.10385,0.9959099,513.40466,156.46596,0.97948945,501.51382,209.67453,0.98529285,518.8124,200.21808,0.9614536,1.20572444,1.19825845,-0.09727559,-0.09211704
112,3733.3333333333335,484.422,41.891617,0.58393407,485.53296,38.22612,0.71286786,485.52386,37.6631,0.11302432,493.10974,36.87236,0.9114457,499.80573,34.800293,0.11633043,497.97717,54.676033,0.9944246,513.07764,51.209763,0.86637586,496.10773,86.22162,0.9887383,514.25354,83.156784,0.47285604,484.19443,111.92336,0.959001,499.06335,103.147675,0.46653318,505.5572,112.07561,0.99667054,516.8127,109.99719,0.9827375,497.82043,160.11075,0.99580175,513.7018,156.03099,0.9802002,502.16,208.74872,0.9858714,518.49854,199.01505,0.96453065,1.17872052,1.17271133,-0.08130864,-0.08671284
113,3766.6666666666665,484.5849,41.940765,0.608792,485.81396,38.270134,0.73956937,485.6547,37.710083,0.121815205,493.51096,36.90059,0.92035216,499.93695,34.770744,0.12059867,497.76816,54.78636,0.99485236,513.8805,51.14718,0.867831,495.61926,86.075775,0.9892341,515.84314,82.539536,0.46100518,484.59442,110.90576,0.9601642,501.23892,102.41128,0.4557798,506.07108,111.75877,0.9965978,517.9146,109.72074,0.98176104,497.54886,159.47148,0.99566406,513.7873,155.75868,0.97879285,502.93097,207.2594,0.9853532,519.3263,198.07103,0.9623526,1.11347317,1.10687835,-0.07197411,-0.09727559
114,3800.0,485.2559,42.616318,0.6365766,486.47662,38.80574,0.76167774,486.20108,38.34761,0.13633433,494.25888,37.014656,0.9266164,500.7181,35.07866,0.13534576,497.80487,54.7899,0.99510056,515.57886,51.095177,0.8783432,495.0596,85.78258,0.9891266,518.18744,82.062805,0.47235143,484.67535,110.28772,0.95969176,502.72415,101.7307,0.46363667,505.89978,111.73221,0.9965148,518.66754,109.68385,0.98172987,497.80368,159.39032,0.9955088,513.66034,155.72284,0.9785275,503.87396,206.83533,0.9848446,518.7717,197.69077,0.96164864,1.08519141,1.08403332,0.05011167,0.00098258
115,3833.3333333333335,485.27588,42.531853,0.6331188,486.4265,38.59375,0.7588656,486.2878,38.29512,0.13802075,493.9557,36.802322,0.92796236,501.2254,35.124016,0.14418285,496.9751,54.78823,0.99506676,516.6328,51.044914,0.88255394,494.26883,85.99007,0.9885194,519.44867,81.521866,0.4750194,484.35486,109.25986,0.95714265,504.05505,99.83503,0.4599289,505.10202,111.29307,0.9966708,518.94586,109.36969,0.9829533,497.38678,158.41815,0.9959686,513.2316,155.34465,0.9811928,505.40033,205.38127,0.9870416,518.83887,197.06866,0.96765065,1.08519141,1.08403332,0.05011167,0.00098258
116,3866.6666666666665,485.5375,42.392334,0.6508777,486.78992,38.358757,0.7675637,486.62357,38.269516,0.14899278,494.56747,36.553757,0.9309281,501.82202,35.24437,0.15780467,496.6202,54.722504,0.9954892,517.6431,51.353317,0.898533,493.1532,85.92633,0.9889398,520.2506,81.40991,0.5089232,483.53192,109.50801,0.9585699,504.35583,100.09183,0.48674154,504.42993,110.88337,0.9972209,519.0948,109.39934,0.9862666,497.32266,156.5209,0.9967744,513.52106,155.29614,0.9855398,506.35962,201.89435,0.9899328,519.54865,196.6616,0.975382,1.05556978,1.04890603,0.06927201,0.09604737
117,3900.0,484.9569,42.36142,0.65521055,486.34277,38.273964,0.7715866,486.3575,38.294144,0.15283269,494.39615,36.55957,0.9324837,501.9794,35.40097,0.15897143,495.67697,54.938866,0.9952815,517.9375,51.81054,0.895132,491.57443,86.36981,0.9882509,520.24054,81.43988,0.4978677,482.95776,110.28085,0.956907,504.9447,100.16586,0.4781015,503.67538,110.66323,0.99688345,518.97,109.57813,0.9847231,497.53616,155.46796,0.996349,513.30316,155.95775,0.98376936,508.16315,199.67769,0.9886741,519.5427,197.25645,0.97236687,1.03093674,1.00935711,0.12601611,0.16777584
118,3933.333333333333,484.93237,42.571854,0.6556527,486.31216,38.44803,0.7702482,486.39203,38.506332,0.15435846,494.38187,36.72657,0.93324965,502.2562,35.57425,0.16658734,495.31772,55.205284,0.9953003,518.4056,52.092476,0.8991091,491.12216,86.84844,0.98809075,521.4863,82.078804,0.50645196,482.25583,111.80885,0.9562944,505.7655,102.169716,0.48412678,503.08957,110.66011,0.99677604,518.87744,109.644226,0.984511,497.78406,154.93593,0.9960901,513.3715,155.69841,0.9829994,509.22797,198.04553,0.98783946,520.0917,196.1461,0.9707474,1.05330774,1.0098484,0.22550251,0.19700764
119,3966.666666666667,484.05472,42.5943,0.6311846,485.4208,38.513855,0.74877465,485.7101,38.518333,0.14052516,493.54373,36.998764,0.9292931,501.85483,35.66664,0.15955074,494.5531,55.44333,0.9950047,517.7419,52.28264,0.8957493,490.1848,86.86203,0.987899,520.83246,82.32358,0.5094059,480.85855,111.8114,0.9559641,503.96832,102.583885,0.4883446,502.55078,110.58446,0.99660194,518.2823,109.55635,0.9839155,498.48065,154.70499,0.9956921,512.9162,155.30902,0.9815716,510.70682,196.89403,0.98639655,520.0456,194.95016,0.96767443,1.07001958,1.00862017,0.30214389,0.19062086
120,4000.0,483.71945,42.687515,0.36578605,484.7885,38.947662,0.53312606,485.6715,38.626404,0.04181315,490.99472,38.47233,0.945944,503.20264,36.950203,0.08442191,494.49,56.834724,0.99191016,514.9017,53.604584,0.9327965,490.45206,88.60917,0.9787335,519.6169,83.168106,0.41130042,480.71628,111.38603,0.9147972,504.04196,104.707405,0.31538796,504.0369,110.15309,0.99595475,517.5852,108.357544,0.98690665,500.49915,151.90399,0.9954587,511.12006,150.65393,0.98100054,512.7485,194.75339,0.98700714,519.63025,191.33102,0.9629779,1.10228948,0.98110789,0.43749453,0.24711931
121,4033.333333333333,482.95496,42.79418,0.34480524,484.0533,39.047035,0.513869,484.93335,38.714294,0.03991244,490.21063,39.025085,0.95018363,502.5934,37.415695,0.09464787,493.3483,58.059143,0.9923644,514.56976,54.610023,0.93769705,489.5112,89.80994,0.9785483,520.47205,83.34732,0.42335063,479.45435,112.442825,0.90962577,505.41245,103.589355,0.31097838,503.25323,111.043434,0.9957385,517.09357,109.21934,0.9863984,500.2939,151.9453,0.99470925,510.68134,150.72733,0.978276,513.151,193.33939,0.9846907,519.28656,189.94614,0.95694405,1.10228948,0.98110789,0.43749453,0.24711931
122,4066.6666666666665,482.65726,43.127136,0.3757421,483.8847,39.37065,0.5511259,484.55228,39.038864,0.04650673,490.14893,39.659042,0.9572275,502.11655,38.0401,0.11036359,492.77475,59.082718,0.9931896,514.29065,55.59651,0.944659,488.38437,90.68649,0.9782608,520.7082,83.81208,0.42530373,477.96408,112.74539,0.9055768,505.95084,102.80979,0.30398867,502.74808,111.12991,0.99561286,516.59674,109.3228,0.98609734,500.22604,151.77643,0.99447095,510.26447,150.61407,0.97746366,513.15393,193.11824,0.98437715,518.5372,189.79677,0.9562225,1.07388719,0.97128207,0.3849264,0.24834754
123,4100.0,481.37094,43.73163,0.31437904,482.4662,39.933907,0.48912036,483.37503,39.602448,0.03646735,488.53882,40.318466,0.9548354,501.26407,38.60737,0.104110315,490.9612,60.01416,0.9927825,513.7937,56.246567,0.942244,486.75644,92.16479,0.9789249,521.00476,84.40566,0.43779483,475.9004,116.30737,0.9058812,506.45755,104.68096,0.30782327,501.54892,112.42726,0.9955707,515.96954,110.51326,0.9860793,499.1637,152.71443,0.9940211,508.36478,151.46948,0.9757981,513.88293,193.51508,0.9827025,517.3853,190.1427,0.95176095,1.0911608,0.95556076,0.42594919,0.31000454
124,4133.333333333334,479.45914,46.02742,0.29500318,480.51077,42.151062,0.47291815,481.53177,41.81227,0.032931715,486.76758,41.993683,0.9563521,499.6966,40.2576,0.09957162,489.0016,61.020027,0.9933698,512.56793,57.02858,0.94719166,484.84064,93.0558,0.98238915,520.1521,84.71707,0.48255974,474.87308,117.865105,0.9189326,506.20172,105.45602,0.34227958,499.46704,113.46454,0.9960962,514.2957,111.419495,0.98780835,497.87494,153.23306,0.9942199,506.1608,151.82948,0.9766707,513.73474,192.88574,0.98213446,515.55133,189.32924,0.95028406,1.04225418,0.83912482,0.55000014,0.28224661
125,4166.666666666667,478.11343,47.131493,0.7081826,480.18466,43.546112,0.78497297,480.0629,43.268867,0.20102023,488.77008,43.02185,0.9242718,495.00873,40.734093,0.18133886,489.85806,62.818764,0.99476814,509.87134,58.26335,0.9190763,483.55148,96.7887,0.98786724,517.83746,88.391174,0.61897874,474.02133,121.17001,0.9610299,504.80682,113.093994,0.5936464,499.95514,116.51474,0.99598217,512.8994,115.14962,0.98423356,494.90353,156.0614,0.9941561,505.31732,156.10648,0.9790192,512.8414,191.99402,0.982808,517.08344,190.94257,0.9635269,0.92233464,0.79146961,0.43921405,0.17711036
126,4200.0,476.35068,51.073616,0.7608455,478.519,47.487595,0.8348235,478.01968,47.225876,0.24448258,487.04398,46.23887,0.9382804,492.50806,44.011215,0.1982443,488.5196,65.57478,0.99592125,507.68323,61.160828,0.9251402,482.4092,99.763145,0.98955053,516.2693,91.35036,0.606043,471.96448,123.42815,0.96399903,503.62198,114.79231,0.57810014,499.1238,119.324165,0.99646556,511.67694,118.00137,0.9849889,492.97067,157.83228,0.99491066,503.87708,157.84021,0.9802634,511.34503,192.31915,0.9853757,516.7859,190.99304,0.9673431,0.9714219,0.76739635,0.57456468,0.15696744
127,4233.333333333333,474.45026,54.470306,0.72849584,476.42474,51.016922,0.81203943,476.43738,50.607605,0.20364428,483.8068,50.452316,0.93992805,491.1834,47.78804,0.18212512,485.9465,70.26265,0.9964735,505.80197,65.49667,0.9244001,479.6364,105.07938,0.9915856,514.59717,95.15056,0.6076896,467.3122,128.99086,0.96888083,502.10748,116.34192,0.5774566,498.43213,123.564285,0.99695206,511.38565,122.04779,0.9860261,491.06723,160.38342,0.99519473,501.65552,159.57294,0.9797988,511.48557,193.52924,0.9854113,516.3789,190.6088,0.96576583,1.0472942,0.66790995,0.77501136,0.223783
128,4266.666666666667,472.4914,59.261475,0.72058135,474.29654,55.62169,0.8086603,474.5447,55.30179,0.19564934,481.2907,54.08902,0.94137335,489.70023,51.525932,0.17932473,484.07083,73.8001,0.9964251,504.76025,68.29373,0.92162526,476.82953,111.151474,0.9914732,512.7125,98.08758,0.5966426,464.98685,136.34125,0.96767575,498.69595,118.87952,0.5633747,498.75317,127.261185,0.9966761,512.14905,125.46579,0.9846919,490.05692,162.94623,0.99457526,499.10013,161.51712,0.9769306,513.44147,194.92749,0.98367137,514.846,191.00107,0.9615559,0.89542595,0.55884338,0.68854417,0.12405095
129,4300.0,470.19815,63.308815,0.7165395,471.38788,58.84932,0.8063936,471.904,58.959457,0.17785005,479.16046,57.502472,0.94238365,487.44705,55.73655,0.1833792,482.04514,77.64883,0.9964302,503.47507,72.42057,0.9311474,475.53333,114.50111,0.9908077,510.60437,102.4212,0.6010475,463.23227,141.22226,0.95981604,495.9783,121.95039,0.5346251,499.04947,128.74681,0.9958144,512.4906,126.93651,0.98096484,486.71875,163.64734,0.9910438,493.4135,161.79263,0.96181995,511.76636,197.2163,0.9656709,508.739,190.59721,0.9214245,0.87189457,0.55343918,0.67184028,-0.05035732
130,4333.333333333333,466.648,68.473656,0.7092156,467.9311,64.18065,0.81363666,468.75818,64.3555,0.16061653,476.98526,63.07138,0.9463261,484.96356,61.436188,0.14998235,481.42004,82.9294,0.9966696,500.84445,77.96457,0.922138,474.7366,118.6535,0.9918162,506.9942,106.8936,0.5667231,461.16638,145.57793,0.96264046,493.47134,127.26367,0.5039842,499.41122,133.06445,0.995978,511.835,131.3206,0.97997105,485.44714,166.21785,0.9911985,493.28928,164.50952,0.95898014,510.95193,197.17271,0.96638495,510.85693,190.61229,0.9185919,0.96896696,0.55049143,0.79711945,-0.02137115
131,4366.666666666666,463.91852,76.22296,0.6538442,464.69196,71.93343,0.7837069,466.0594,72.061356,0.124192625,472.42465,69.41899,0.94158596,482.38562,67.55407,0.119751826,479.29214,88.18512,0.9960867,498.32074,81.07237,0.899873,473.04837,127.68219,0.9916692,501.31268,109.32628,0.5222263,455.46646,156.49088,0.9606566,482.96722,128.84547,0.47025684,501.5589,137.49643,0.99477285,513.9916,134.79858,0.9732207,483.4035,167.56592,0.9881231,490.91296,165.05838,0.94258076,512.4542,197.01962,0.9558052,510.56,189.53665,0.8913282,0.82375436,0.50013411,0.65145171,-0.06362217
132,4400.0,461.02307,82.74748,0.59849226,462.81107,78.35454,0.73302484,462.39813,78.1655,0.06346701,471.31757,77.54112,0.94428396,478.39496,75.22801,0.044731,477.4921,95.584015,0.99178445,493.3703,89.75563,0.95039594,470.01508,133.17232,0.9874443,490.25333,122.735,0.60574377,456.2788,162.94392,0.96216947,469.52173,155.03976,0.5682481,506.5441,141.26723,0.9918182,515.32983,138.16109,0.9785251,479.09494,166.81683,0.9851563,482.86374,163.35936,0.94106203,513.85016,195.31186,0.95567334,509.1593,188.31625,0.88132143,0.82375436,0.50013411,0.65145171,-0.06362217
133,4433.333333333334,456.4069,88.28664,0.5567827,458.06448,83.75878,0.7053033,458.04422,83.634926,0.05014047,467.06073,83.20822,0.93561345,474.84683,80.98428,0.03333566,475.84247,101.63702,0.9894629,490.17935,95.93055,0.93825054,470.5187,140.19286,0.98588157,484.3515,130.03357,0.58429533,451.70105,169.93037,0.9583515,459.84625,163.48326,0.5548793,507.37366,145.3969,0.98882455,515.2184,142.2339,0.97142744,477.62222,169.89113,0.97790754,481.67975,166.34625,0.9151315,512.9093,195.00656,0.93361986,510.34506,187.8506,0.8303544,0.73742998,0.44732035,0.58611002,-0.0135105
134,4466.666666666667,453.97156,97.15468,0.5705606,455.8087,92.456985,0.7183547,455.5807,92.31819,0.052981246,465.80994,91.32576,0.9335941,472.6601,89.04338,0.032873686,475.06308,108.50763,0.987733,488.32486,102.51114,0.93516827,467.33115,148.25687,0.98198223,478.42673,137.67615,0.57531476,449.70605,173.51413,0.94634306,454.44052,167.76346,0.53577656,507.9756,149.22223,0.9829652,515.4232,145.89935,0.95947814,478.25494,170.35954,0.9642946,483.44543,166.64407,0.8764422,508.5731,196.72665,0.8939572,509.04535,189.11736,0.7569218,0.71670201,0.48416716,0.52666382,-0.0432336
135,4500.0,451.86554,102.29492,0.7234251,453.76913,99.473816,0.84205675,454.88235,98.52377,0.13539371,461.75217,97.78543,0.9509591,467.93292,93.48898,0.067246884,472.02667,115.21097,0.99756384,482.44632,104.68253,0.88264364,463.3122,158.75262,0.9963075,473.45438,129.50012,0.5303617,446.94443,187.17392,0.98452073,453.9191,148.99866,0.5541761,507.84973,148.69756,0.9957333,515.001,144.91481,0.97226197,475.2492,166.79187,0.9909751,483.193,164.12772,0.94095296,507.1223,193.46071,0.96830976,510.38226,188.49292,0.90356725,0.70085937,0.54213949,0.44191615,-0.04470747
136,4533.333333333333,448.908,111.23816,0.7148259,450.629,108.86788,0.8374965,451.6058,107.545815,0.13601999,458.5317,106.586914,0.9464694,463.7623,101.51152,0.06629974,469.30048,121.62703,0.99721897,479.6835,108.7089,0.87695605,460.3631,163.34085,0.9958145,470.44287,129.09445,0.5317158,442.6897,192.45058,0.9826119,451.33615,150.2681,0.55513936,508.48624,150.76448,0.99536043,515.64966,145.97005,0.9714472,473.85245,168.18301,0.99064225,484.3012,164.62755,0.94195557,500.7803,194.15054,0.96844715,509.2055,188.97931,0.9068876,0.8753916,0.66520785,0.56228241,-0.08744978
137,4566.666666666666,446.7076,119.0644,0.79678166,448.70206,116.90043,0.8817233,448.51324,115.70497,0.21386781,457.8023,115.01418,0.946107,458.4635,110.56651,0.08163359,468.67203,128.78041,0.9972767,475.0214,116.02153,0.90512365,458.2105,169.5935,0.9953701,462.93503,134.15828,0.60405165,438.99136,200.14465,0.98129934,445.98856,150.58379,0.61312026,507.67206,153.33543,0.9951539,512.4551,148.43181,0.9741105,469.5251,166.10388,0.9906563,484.03555,163.25195,0.9493289,486.76736,195.4932,0.96925485,505.3116,191.38487,0.9158283,0.90383039,0.48932572,0.74209487,0.16359986
138,4600.0,441.16257,125.24187,0.818946,443.6322,123.02724,0.8808122,443.13892,121.8571,0.26418453,453.26486,121.93228,0.9374851,451.84912,117.41593,0.100753546,464.6646,136.20583,0.9969945,466.3311,125.20297,0.92608005,453.4145,178.73938,0.99481744,455.81415,151.7037,0.69053036,434.37146,211.61478,0.97955006,442.56412,187.66957,0.6690496,508.17838,157.12791,0.99426645,508.1313,153.63113,0.9748239,475.59024,169.97568,0.9868094,477.42172,169.07286,0.940702,503.1402,193.83595,0.9560841,503.58545,193.51639,0.89367205,1.03370047,0.55982596,0.85509178,0.15475663
139,4633.333333333334,437.47482,132.18806,0.6912431,438.88126,130.11813,0.7825064,440.00528,128.0897,0.14600785,447.3345,129.55276,0.8975755,451.70895,123.4032,0.078550145,456.75177,142.9425,0.99067396,467.6505,131.0576,0.87165606,446.19763,184.73152,0.984315,457.98123,158.41153,0.5493489,431.32883,217.05423,0.95053,442.0573,193.16519,0.535505,501.23474,164.64815,0.977571,509.58148,160.49835,0.9196102,466.82318,173.22333,0.9614454,483.95245,169.39258,0.8608494,480.39368,201.56851,0.8980768,503.52905,194.85098,0.798587,0.95861423,0.49104523,0.82266658,0.03217955
140,4666.666666666667,432.75534,143.80023,0.7433359,433.8971,141.57832,0.80381095,433.83838,140.00528,0.20261464,441.6019,139.62549,0.8909109,442.60217,135.03188,0.10545313,453.22296,150.70963,0.9917734,458.17966,141.21016,0.9046732,446.07565,190.76962,0.9859298,452.17007,168.54808,0.64944166,430.3492,216.91606,0.9556328,435.2533,198.05124,0.6183291,499.60208,168.86554,0.97937703,503.81714,165.81734,0.9330151,471.95117,180.43996,0.9552282,483.15692,176.27034,0.85577965,487.86542,202.20084,0.8696681,504.72034,194.33557,0.7632081,1.10228995,0.14124613,1.05332764,0.29256372
141,4700.0,421.74326,154.21335,0.69845796,422.58478,151.37177,0.7448511,422.3986,150.26802,0.24754749,431.64966,146.09784,0.8326695,430.734,142.8707,0.13658732,452.29037,153.75015,0.9792945,447.8045,144.69382,0.90386945,450.19513,197.3892,0.9633398,446.4275,176.44339,0.73279655,430.24243,221.5149,0.9030005,429.86792,212.82748,0.6559303,504.2786,171.17538,0.94683385,499.52438,167.707,0.90187633,480.45685,188.97943,0.8554226,467.553,184.95578,0.738718,502.9809,195.7728,0.6454552,485.6551,191.27759,0.543825,1.24535997,0.13166596,1.17615036,0.3876285
142,4733.333333333333,418.64963,157.86847,0.54504555,418.91327,155.81142,0.6028094,419.73712,154.84756,0.12915072,427.3152,151.20752,0.78151447,429.365,147.94656,0.08570212,445.76062,157.50636,0.9785429,445.57108,149.63527,0.8467645,448.24286,200.4433,0.9719821,449.60242,182.44487,0.6538967,431.59778,217.61221,0.92820346,433.79575,213.51428,0.6264715,496.71753,175.93753,0.9586608,495.9515,174.48383,0.90135324,487.08884,195.62398,0.86762214,485.64618,193.67462,0.7169832,509.24973,196.48074,0.68225247,509.1208,194.70903,0.55500585,1.24535997,0.13166596,1.17615036,0.3876285
143,4766.666666666667,415.5533,164.45584,0.6549604,415.82864,162.39803,0.69772375,415.8552,161.77737,0.20828958,423.67584,157.34177,0.8046428,423.21423,155.17418,0.117054135,442.09402,161.7112,0.98334175,439.18744,156.12085,0.8791527,449.07983,200.63924,0.9757019,444.8614,185.96945,0.70021266,434.70813,215.91223,0.93728983,432.20844,213.12422,0.6685083,492.96503,176.30637,0.96774375,490.1715,176.20058,0.9225626,487.67413,197.09937,0.8914198,483.22958,197.79272,0.763182,509.81274,194.49152,0.7261248,505.5288,196.06686,0.6059692,1.17645897,0.44805728,1.07396186,0.17293439
144,4800.0,412.33435,168.59935,0.79763645,412.48843,165.84862,0.85119486,411.1697,164.59383,0.3406201,419.54465,156.62796,0.89028573,417.59415,153.69456,0.17195064,438.24548,162.22891,0.9885797,440.69257,153.23456,0.8971682,445.66885,205.03723,0.9761198,449.9644,185.60315,0.6545925,435.24374,215.50107,0.93345916,433.23206,210.29308,0.61941963,493.65833,186.30072,0.94501424,495.20398,183.61789,0.86465055,475.3955,201.17378,0.826103,480.39844,197.28926,0.6279649,492.09488,196.95993,0.59061146,501.06372,191.86444,0.43624893,1.87618664,-0.05723539,1.77503395,0.60502472
145,4833.333333333333,409.57123,173.62592,0.62855476,408.29462,171.97922,0.71292937,409.85898,169.97742,0.20108052,412.34103,163.39465,0.8460332,418.1294,159.19536,0.14551575,431.71478,165.93126,0.982114,439.69885,157.35117,0.85020286,443.46643,207.79295,0.9632666,452.132,192.98405,0.5722972,440.00186,214.55644,0.90130925,441.3999,210.89996,0.5330506,486.03528,182.53716,0.9253438,492.9182,179.77466,0.8233413,472.0913,200.40416,0.802719,488.39755,194.36407,0.6008498,477.99164,197.04327,0.5698276,504.85416,188.85089,0.4213191,2.19253604,0.28544,1.95067044,0.95949109
146,4866.666666666666,402.01056,168.76376,0.30467737,399.5462,167.77405,0.38472018,404.7414,164.30017,0.057301596,402.0955,163.07957,0.7531915,418.7674,154.73413,0.093194306,425.23462,172.12897,0.9683087,441.98785,155.24834,0.78628373,444.50522,214.89406,0.94362825,459.58875,186.98059,0.5398172,437.26355,216.24255,0.8591107,446.81763,210.39108,0.50175744,481.80157,190.10304,0.90384734,495.2762,183.63202,0.8019376,471.2838,202.29971,0.76095486,494.00952,191.12956,0.5853943,478.24576,195.62596,0.52846193,511.48294,183.80728,0.41276166,2.19253604,0.28544,1.95067044,0.95949109
147,4900.0,396.99957,182.52396,0.4327642,394.23828,181.82098,0.44806966,398.16516,178.03198,0.12102818,394.9632,176.13919,0.6963553,405.88086,167.98979,0.15695767,417.2105,180.74167,0.97375715,426.81143,163.88551,0.8544041,437.77383,219.22668,0.95337856,450.80542,191.35771,0.6906349,434.60004,217.91364,0.88954043,445.9357,212.89647,0.65213567,479.02023,187.17001,0.93604064,485.60593,181.48602,0.878055,490.08572,207.36665,0.8247838,496.239,193.62122,0.70691144,503.74594,203.72473,0.5951393,512.0675,188.00049,0.5027756,2.20427761,0.63376523,2.05924572,0.46549811
148,4933.333333333334,82.55869,114.9434,0.80764157,82.571594,113.37588,0.53404427,81.496956,113.5912,0.76764613,81.410645,112.775925,0.25069305,77.61205,113.231,0.7317459,80.52194,116.694534,0.97469544,71.57715,119.064835,0.9857303,93.01514,117.93692,0.8929599,70.74175,125.63786,0.9517645,102.182846,119.39119,0.87486756,83.94827,127.48743,0.9248508,76.470276,135.45403,0.98490727,70.90563,137.37878,0.9886751,90.16637,132.59993,0.969612,85.00867,134.73907,0.9781762,88.206894,149.13043,0.9540796,85.597244,152.51447,0.96463436,1.04565583,0.36355525,0.97668627,-0.08548461
150,5000.0,388.6236,162.09497,0.06799429,385.02338,160.82489,0.049453482,394.85034,157.01051,0.02730816,381.87506,168.46503,0.36948445,418.09238,157.61792,0.2272826,400.20508,200.49454,0.62217706,445.2737,173.22572,0.7187628,413.4619,235.97833,0.32766333,492.71072,189.81763,0.57149,417.23358,217.38062,0.25862443,499.57632,204.76862,0.4627869,452.60596,225.0097,0.22291876,482.90457,213.61154,0.32552046,456.79266,197.20131,0.119966984,480.78027,172.27325,0.19538607,493.46585,211.71802,0.082646646,512.6651,185.92125,0.12324202,8.16993489,1.36750816,2.5721534,7.63294074
152,5066.666666666666,83.91789,123.21727,0.68594635,84.170685,121.31995,0.5434784,82.497505,121.52472,0.5385678,84.97556,119.715195,0.41837266,79.63612,120.19318,0.40883818,88.206,123.72197,0.9476252,76.49985,125.794235,0.92504126,100.5543,122.17828,0.8789735,76.32231,130.21057,0.7956876,106.167816,117.23504,0.8465401,83.72755,129.31505,0.7671786,86.1189,145.19812,0.93766344,78.524155,146.42178,0.92815447,91.987404,145.29187,0.8165487,82.44595,146.72487,0.78485656,93.96833,156.24252,0.66148317,82.44767,158.24875,0.6261419,1.38669009,-0.59298809,-0.84477467,0.92608331
153,5100.0,17.174685,164.59232,0.18171258,16.797745,162.7328,0.043930184,16.703064,162.55777,0.2118059,10.136948,163.38258,0.043310475,12.893533,162.75195,0.5018853,7.7541313,170.1603,0.6369988,7.884968,171.09238,0.80393475,19.032085,173.63934,0.34441122,19.225136,176.9575,0.7596308,30.905163,166.07343,0.35372093,30.105633,167.94044,0.6686627,4.457609,194.48787,0.82391894,4.2204456,195.65207,0.8867154,12.241338,211.64081,0.72730386,12.944288,212.75392,0.83686924,14.485733,224.38354,0.63721114,14.3176,226.42554,0.7396049,0.8163655,0.44461825,0.28298355,0.62344813
154,5133.333333333334,16.265913,120.62431,0.2656565,16.26101,118.955345,0.20999672,17.021538,118.81878,0.1260627,17.235569,117.48275,0.57936656,23.651066,116.52315,0.3290034,18.732147,123.27275,0.9522012,31.634203,120.8598,0.9460889,19.096825,133.26407,0.8411914,46.41472,128.3476,0.803896,24.106337,133.81165,0.7224435,48.109673,128.74725,0.6789762,28.723106,143.74203,0.9750342,37.108112,142.65088,0.9756149,28.54203,159.12494,0.9437464,37.898354,157.84485,0.940929,31.104954,174.5398,0.8949031,38.603607,171.9957,0.8915427,0.48951435,0.38025914,0.1075927,0.28887904
155,5166.666666666667,470.90088,212.59888,0.2810252,469.15207,213.64203,0.14405146,473.59125,212.59564,0.22413813,452.96872,219.96652,0.38342246,471.52576,219.4955,0.5152895,427.00308,222.4274,0.90151364,465.83722,219.48723,0.8115523,403.38498,210.12688,0.8245173,467.8181,197.9222,0.6575244,409.6662,195.77634,0.770278,490.21442,186.2744,0.6053327,405.4505,207.87646,0.80818874,429.6579,207.46939,0.72296023,427.4037,193.17804,0.5994452,451.37234,192.0025,0.4808839,428.70978,181.15526,0.44372103,445.18442,177.531,0.35843843,1.41680926,-0.63892379,-0.12429659,1.25844159
156,5200.0,417.88098,196.9882,0.1472162,414.4936,197.5689,0.09072593,418.87674,198.53972,0.082452096,406.08084,207.4808,0.29811728,422.18317,211.28098,0.21289141,405.93015,219.0416,0.7694326,431.25427,218.6301,0.709139,397.68317,213.6451,0.6840468,428.53488,206.66391,0.6004173,406.0924,194.696,0.6419904,423.89307,191.93533,0.59319645,428.58148,213.5191,0.78492105,445.26077,214.70403,0.77094084,439.16266,192.87451,0.71526366,455.2945,193.33168,0.6979844,452.2864,186.60278,0.6606098,460.4061,186.98108,0.64555454,2.22873365,-1.2525461,-0.35765976,1.80844173
157,5233.333333333333,16.027424,121.99896,0.5846432,16.682285,120.08829,0.6102983,15.240139,120.62161,0.32364115,20.772917,116.99946,0.6145078,16.047146,118.23864,0.1617262,29.945902,118.37488,0.95416486,16.866718,120.929016,0.89246076,39.94797,123.40106,0.92713255,15.552376,130.88467,0.68927187,41.91649,122.667404,0.89097714,17.807291,133.64468,0.67807186,34.397583,136.89583,0.9767692,26.380173,137.87596,0.96306056,35.23735,153.72107,0.9585197,26.981565,154.48813,0.9266304,35.3655,170.7456,0.91782415,28.170414,170.87337,0.8780409,1.06874755,-0.13535064,-0.65169735,0.83617708
158,5266.666666666667,464.69907,205.16025,0.117396824,463.10962,206.85933,0.0439614,467.68732,206.72882,0.094515815,450.66672,216.48506,0.19485177,468.52542,217.65628,0.3531335,431.34436,221.63069,0.7780811,461.97104,218.3027,0.8276855,397.36212,210.2564,0.7035793,453.74777,202.22025,0.7862629,403.3243,188.86739,0.68171537,470.12314,196.74104,0.7313154,418.61212,205.86142,0.88279074,437.18198,205.36972,0.89654124,434.1324,174.45786,0.8387879,450.36874,173.4854,0.85731333,442.13947,159.38696,0.83356667,453.6213,160.72574,0.8399526,1.32322486,0.21395718,-1.01942857,0.81603415
159,5300.0,423.96652,195.06041,0.09479303,422.0501,194.44672,0.061261144,425.13803,195.36179,0.05858733,415.61258,204.10481,0.26965123,429.46494,207.53842,0.17732213,407.84036,221.08643,0.6259056,442.64557,214.66246,0.60169137,387.7565,209.22722,0.5090028,450.45724,186.23434,0.5078632,406.08438,178.54742,0.5187102,462.2033,158.49101,0.5091236,421.9436,205.27472,0.694597,444.29962,203.62146,0.7021154,426.74786,177.0976,0.6782827,448.66492,172.95157,0.686044,444.4751,155.34962,0.71921337,456.8014,151.52347,0.7195353,1.11704273,-0.79638252,-0.15942389,0.76690506
160,5333.333333333333,444.71536,204.84007,0.03457765,442.99164,204.93262,0.024581145,448.5682,204.72285,0.015914066,434.40594,214.43259,0.26299164,454.96436,216.23232,0.08687489,421.57617,227.68747,0.66741496,459.2615,223.42601,0.46000364,385.02722,224.9613,0.65102386,444.5,209.7785,0.3855716,401.94992,194.5829,0.6210529,449.78287,174.68169,0.40787235,425.52408,209.47868,0.7027497,449.8285,207.30031,0.61788,428.0696,189.2545,0.60586137,448.06293,184.22952,0.5027892,432.87805,162.1528,0.5608697,443.77036,155.65106,0.48431125,1.11704273,-0.79638252,-0.15942389,0.76690506
161,5366.666666666666,441.81024,210.37857,0.04832013,438.61603,208.8003,0.028834604,443.95572,209.70477,0.026142599,427.5129,214.09549,0.17362493,445.7765,218.35883,0.11326806,415.3387,226.47566,0.5744782,451.19922,227.96996,0.44245785,391.14618,224.63803,0.5588673,440.6299,222.19579,0.36044365,410.556,189.74197,0.603636,444.6812,179.32816,0.4530164,426.39908,211.47841,0.57763433,450.56873,212.71103,0.506969,428.6183,186.08078,0.5365391,451.12387,186.20721,0.45080236,440.42755,161.42105,0.4765988,448.8057,158.35275,0.41045532,1.38919387,-0.46820021,-0.76420296,1.06143394
162,5400.0,466.98886,214.03378,0.21921016,464.9195,213.93329,0.09778748,469.16113,214.61076,0.14123167,451.92343,218.67738,0.3153201,468.80557,222.92456,0.3434315,432.9268,219.72751,0.9060287,459.72235,221.65349,0.83549815,408.18945,204.22313,0.88543355,440.55267,204.18828,0.7767308,424.00543,177.34567,0.8637805,453.7015,170.4423,0.76375324,406.89993,201.23347,0.9068962,423.8935,201.69441,0.8721434,426.71198,178.27611,0.79920167,442.3366,177.38652,0.73601866,421.35815,160.48764,0.6948928,428.47366,156.52478,0.6280015,1.47658324,-0.55663257,-0.67552496,1.18916957
163,5433.333333333334,459.66296,218.42105,0.47085017,458.48386,217.57916,0.3506403,459.7979,218.12816,0.39055562,450.7416,219.20946,0.5385029,458.91412,222.69617,0.5114693,432.40555,221.66592,0.91444397,461.26132,214.08632,0.8570139,402.8084,217.93166,0.8000134,445.81958,190.40031,0.68757117,411.7883,198.25835,0.734443,453.72275,164.26897,0.64268583,416.95386,182.8714,0.8846059,435.39975,180.33875,0.85631114,437.6045,175.65765,0.8259437,457.6591,174.22624,0.7939008,432.18002,150.63281,0.79917556,439.8696,150.02351,0.76808894,1.24274099,-0.41342127,-0.82364916,0.83372062
164,5466.666666666667,472.19302,222.65678,0.5692628,471.53864,222.7642,0.4359995,472.52805,222.2933,0.44646606,473.23364,219.38853,0.34430328,472.38123,219.57506,0.3306815,469.91013,203.47046,0.8463789,470.64102,204.32356,0.8332967,471.24545,169.31308,0.80850357,458.66293,177.53397,0.80725104,465.6434,151.32812,0.8033575,468.03564,156.48373,0.79472226,441.58655,178.75502,0.9364576,441.9608,176.08356,0.9317644,433.48178,202.26509,0.89108413,434.48596,204.40298,0.89005023,389.2865,216.00992,0.7782006,388.25604,220.76051,0.76925814,1.03906424,-0.16826713,-0.40310417,0.9427872
165,5500.0,89.15285,115.08126,0.21388717,87.50622,113.07005,0.0450931,88.8929,113.39585,0.19777906,77.34879,111.99037,0.083622925,88.402725,112.5106,0.6258016,73.36931,117.86417,0.9051913,88.01776,118.26262,0.96381056,80.17544,122.679535,0.72898775,99.50258,121.75398,0.94821954,98.427185,123.09708,0.6817368,106.60625,118.84894,0.894789,73.78556,147.00275,0.9725538,83.59286,147.64902,0.9850049,87.52034,159.3706,0.9305056,94.50993,159.41896,0.9650496,88.9311,176.68604,0.8523848,95.69505,177.451,0.9079491,1.03906424,-0.16826713,-0.40310417,0.9427872
166,5533.333333333333,18.85964,117.54158,0.07143752,18.168867,115.92759,0.058603153,19.494225,115.81649,0.034933947,16.572966,114.79445,0.46005616,24.753998,114.05967,0.25145176,15.351816,119.06282,0.9332615,30.711014,117.295006,0.92139804,9.8186655,126.80818,0.8658207,39.682365,122.933334,0.80147934,11.13414,127.73917,0.7425543,40.361015,122.83273,0.6646075,24.171482,137.77962,0.98544276,33.927048,137.2229,0.98446065,26.057976,155.59346,0.9728617,35.47885,155.01006,0.96745324,29.77028,172.62277,0.94965917,36.437416,171.06369,0.9422515,1.02050192,-0.13952661,-0.50332751,0.87670857
167,5566.666666666666,15.837952,121.54016,0.5676532,15.972557,119.83007,0.43228224,16.157993,120.238556,0.3658045,20.489208,118.94252,0.47262937,20.531872,119.10867,0.355435,26.500298,125.57471,0.946663,24.082031,125.10843,0.9406077,32.771347,133.68475,0.82114744,31.492054,133.14545,0.7961528,34.568855,131.37607,0.745983,36.749985,130.89828,0.72259533,34.140877,146.44652,0.95850474,31.453897,146.46213,0.95857173,42.97508,155.70737,0.91846097,34.09471,155.61969,0.91697717,48.696568,168.57199,0.8606815,34.377712,167.79515,0.85808384,1.22747871,-0.09359091,-0.54705239,1.09484172
168,5600.0,82.1336,123.836426,0.67363584,81.341736,121.72412,0.48603442,80.319214,122.25072,0.4508073,79.69963,120.02255,0.48520017,77.92874,121.27002,0.40733665,82.50549,124.25276,0.97643924,79.00476,127.39546,0.9482554,99.05576,116.47757,0.94273704,86.90951,127.90648,0.8093122,109.30865,112.013306,0.91474295,86.66838,134.12215,0.7784455,80.439545,150.64978,0.9809332,79.7378,152.22006,0.97064126,88.53612,158.98135,0.9561025,94.09393,160.4446,0.932358,88.98783,173.7579,0.90371215,101.97541,175.9223,0.8685304,1.24750736,-0.07443057,-0.60674424,1.08747236
169,5633.333333333334,79.60678,121.73723,0.8300015,79.86663,119.45576,0.72017694,77.72707,120.18942,0.68397194,81.71365,117.8906,0.5138982,74.470406,119.87723,0.43285835,87.65053,122.2522,0.9785018,72.31918,127.6647,0.9688978,102.86859,117.64627,0.94673586,68.0943,132.92189,0.88902456,105.45331,114.58609,0.92692834,72.25553,138.84084,0.8677167,91.85899,149.3375,0.9848616,82.65091,152.30412,0.9814565,97.1191,162.65356,0.964397,90.811844,165.43279,0.95304316,100.739944,177.23752,0.9157149,98.65127,180.68768,0.8965366,1.17169066,-0.03733811,-0.64506492,0.9774232
170,5666.666666666667,16.082302,121.74614,0.21760799,15.8569565,119.85208,0.18781574,16.803051,119.87538,0.0849951,16.495108,117.42008,0.6013853,23.871809,116.75296,0.24269949,17.714811,122.44217,0.95014006,32.25824,120.12775,0.924408,14.744156,129.9919,0.8662702,45.48477,125.400085,0.74321353,19.428268,128.59012,0.7603309,43.76539,124.26918,0.6317008,27.524355,145.09712,0.97602797,37.002193,143.86842,0.97225237,24.719976,161.05847,0.9457509,34.817677,159.71219,0.9310838,26.632975,175.28677,0.89146197,34.388603,172.66322,0.87236387,1.02109541,0.08720413,-0.34513184,0.95703463
172,5733.333333333333,478.28152,188.13535,0.1781923,478.8239,187.40497,0.0914904,479.68768,186.82695,0.10826477,478.14438,186.99438,0.13814643,480.8167,185.53725,0.1618891,475.51956,186.50897,0.8023495,475.4195,183.85736,0.85463583,471.97394,200.18518,0.78654563,468.51584,195.99622,0.8577491,470.76782,216.57336,0.7686845,473.2332,215.5456,0.8190499,463.03534,183.35364,0.9360799,461.2979,181.54395,0.9467651,454.28647,190.93274,0.8940756,450.83896,189.15158,0.90486395,460.18005,208.42523,0.8042831,455.1339,206.89563,0.8166309,0.9682191,0.16286293,-0.35962492,0.88407794
173,5766.666666666667,16.48771,118.31572,0.20748605,16.146881,116.77977,0.12672192,17.191149,116.8032,0.11664261,15.3054695,115.38019,0.40651536,22.0761,114.96535,0.36859944,15.269388,120.71475,0.9380688,27.76901,119.421234,0.9492133,11.653374,126.83798,0.81610626,41.0868,124.73628,0.86297613,17.676311,122.92302,0.71790445,44.364872,122.01878,0.7659471,23.79783,142.77908,0.9795415,31.813335,142.17834,0.98337674,24.336765,159.37863,0.95262545,33.060738,158.44614,0.95933163,27.501274,173.28009,0.906907,34.25066,171.51068,0.9168571,0.94572697,0.24048689,-0.33039312,0.85288097
174,5800.0,90.64015,122.57106,0.06942713,89.89816,120.798065,0.013652732,91.28291,121.12219,0.087600425,79.84144,117.670815,0.026779681,89.80612,119.17104,0.40529528,76.053185,116.47625,0.65517175,86.085846,119.23114,0.88899523,85.19875,118.11283,0.5189135,94.5043,120.38992,0.94199216,101.77425,117.36028,0.5558374,101.58188,117.5371,0.8989957,69.933075,132.84334,0.92068565,76.445076,134.30505,0.9635145,82.886086,130.40561,0.82847273,86.34861,131.07208,0.92613226,85.20322,139.2416,0.73708224,87.231514,140.80731,0.84982336,1.10961417,0.41563208,-0.223783,1.00419856
175,5833.333333333333,16.090853,124.239746,0.6785363,17.243279,121.6702,0.72539616,15.290457,122.13652,0.36183858,23.85746,119.0746,0.7262074,17.322475,120.078705,0.14231843,36.150146,125.819626,0.9569824,19.08043,126.42273,0.8754019,47.510483,140.46632,0.9048693,16.637781,141.91092,0.5638405,48.359077,149.45872,0.81924087,18.50671,151.0331,0.5062502,41.533245,151.45403,0.93982476,30.504461,151.34436,0.8990185,44.660065,160.56046,0.83642894,27.431374,160.18988,0.7211049,48.93905,175.83221,0.70258284,30.605389,174.19998,0.586325,1.12026613,0.65636461,-0.33309522,0.84452902
177,5900.0,78.32034,113.27362,0.4965783,77.60834,111.45691,0.26793665,77.09163,112.13025,0.40449062,76.92707,110.79061,0.17204045,73.6162,112.24335,0.43335384,79.50484,114.38364,0.91998506,70.67578,118.048195,0.91616106,96.98637,113.69846,0.8582025,75.94325,122.47891,0.8580818,105.66742,115.56069,0.8373819,90.67788,119.00218,0.8311772,81.83552,136.83865,0.9384826,76.25719,139.4614,0.93951833,89.23117,137.01193,0.82048684,85.94288,140.06398,0.8325048,92.184425,144.97182,0.67171043,91.14632,149.53813,0.68931186,1.21353835,0.67822706,-0.42201887,0.91355539
178,5933.333333333334,19.194532,119.12221,0.07962172,18.543112,117.506035,0.06357058,19.96967,117.517715,0.041173913,17.091969,116.50433,0.42216268,25.341085,116.04518,0.24806298,16.101355,121.88196,0.89788383,30.759638,120.14815,0.8849636,11.213448,129.91974,0.7965642,40.05996,124.77359,0.7423466,13.502661,129.70973,0.65681064,40.930695,121.39314,0.59687686,23.398119,143.53458,0.9609025,32.77949,142.99678,0.9595485,24.139248,159.88385,0.90494055,33.962032,159.43375,0.89374936,25.856705,174.4559,0.8231064,32.59654,173.13733,0.8095556,1.40766473,0.95949109,-0.52518995,0.8860431
179,5966.666666666667,78.44919,113.8563,0.84610313,77.96332,112.090576,0.6612363,76.741905,112.67967,0.7688974,77.37314,111.53741,0.39401746,72.23018,112.77637,0.66828734,78.06949,116.06684,0.97961456,70.3164,119.20736,0.9750676,95.124214,113.826614,0.9216605,73.90071,122.44342,0.8915761,106.56907,115.126366,0.89771664,85.70041,120.5797,0.8622307,77.53101,137.87166,0.9743999,72.90669,140.0741,0.97210723,86.654236,132.00278,0.9381908,84.00084,134.67319,0.934597,88.82881,146.7486,0.89182854,88.46135,150.94496,0.8877941,1.24252109,1.13267112,0.3232694,0.39548916
180,6000.0,453.40836,194.83066,0.1188067,454.51517,192.4827,0.046707354,456.87906,192.98148,0.08455944,450.49524,192.59271,0.21321411,465.32022,195.90953,0.3785508,439.14288,201.93185,0.6897173,463.64267,206.91011,0.78783536,426.75073,204.9188,0.35007906,457.32635,210.59448,0.6184862,429.0755,200.9024,0.28593573,442.6608,208.43707,0.4544097,405.7051,224.91888,0.52699524,421.44485,225.097,0.58907133,401.80228,227.3306,0.21596766,414.61545,228.3656,0.27184036,377.68713,226.68224,0.12870796,387.08096,230.03969,0.15991175,1.17301415,0.65145171,-0.24859318,0.94327849
181,6033.333333333333,456.83685,195.92818,0.20623152,458.31552,193.62193,0.066238455,459.66653,193.7799,0.19144057,454.63892,193.80888,0.16016592,466.02365,196.11304,0.5434988,442.30536,203.29474,0.64019823,462.94113,206.64867,0.8177208,431.85098,205.25752,0.24238238,457.13116,208.63852,0.67237085,436.47482,200.55016,0.22588679,448.6645,206.02446,0.5154006,406.0057,224.91196,0.39257637,418.73087,224.70444,0.5097163,411.26016,226.00461,0.13661163,421.97952,226.631,0.22560623,383.38177,227.06578,0.08435122,390.89258,229.79326,0.1301242,1.02663208,0.3984369,-0.05993749,0.94426107
182,6066.666666666666,454.70334,196.16847,0.26398382,455.98907,194.14973,0.07842433,456.0352,193.93245,0.27696764,453.445,194.78714,0.11708187,459.02167,195.38998,0.6099856,443.16568,203.95006,0.66021746,454.2486,204.03296,0.82541007,439.61624,206.39032,0.2628994,451.0218,204.82932,0.69850785,445.09372,202.35736,0.25385913,449.75937,201.93228,0.5594511,406.87033,223.8727,0.4401007,413.4202,222.7611,0.55140704,420.14224,224.34566,0.17224242,426.80127,224.18744,0.2852353,392.64505,229.51686,0.11039983,399.0369,231.03372,0.17156321,1.00884118,0.44953115,0.027021,0.90274699
183,6100.0,78.99902,118.37184,0.092847034,78.26445,116.74968,0.02859771,79.41825,116.8253,0.09059102,71.938644,115.11975,0.09837719,81.418,115.25853,0.4752204,69.99115,118.44319,0.8068927,82.6251,118.13568,0.9288175,75.74012,125.56677,0.6209281,94.73933,122.55951,0.93182963,91.37877,123.12215,0.5582564,102.013336,117.62178,0.85662663,73.17843,138.17764,0.91794205,81.89913,138.48802,0.9575535,81.587456,137.07877,0.75364023,90.32471,136.84842,0.8690877,82.42079,144.97977,0.5762545,90.65399,144.61032,0.7076961,1.10091764,0.57333646,-0.10513625,0.93394396
184,6133.333333333334,454.39108,194.74216,0.19997208,456.16995,192.72836,0.09737423,458.01672,192.99695,0.117487036,452.55435,193.80472,0.28305557,465.97366,196.23164,0.30223495,439.19986,203.39146,0.7391886,460.68326,207.34337,0.72741127,423.64835,208.30086,0.45394,448.13187,211.61284,0.46559632,427.1975,202.43976,0.37459412,433.94876,204.84543,0.35560536,406.31464,225.44128,0.45931628,420.37766,225.59357,0.43815714,401.26657,224.84245,0.17508669,412.3357,225.9043,0.16498497,385.3724,227.05449,0.094203755,393.83347,230.34747,0.09152439,1.09970777,0.58832083,-0.14493081,0.91773136
