frame_id,timestamp_ms,nose_x,nose_y,nose_conf,left_eye_x,left_eye_y,left_eye_conf,right_eye_x,right_eye_y,right_eye_conf,left_ear_x,left_ear_y,left_ear_conf,right_ear_x,right_ear_y,right_ear_conf,left_shoulder_x,left_shoulder_y,left_shoulder_conf,right_shoulder_x,right_shoulder_y,right_shoulder_conf,left_elbow_x,left_elbow_y,left_elbow_conf,right_elbow_x,right_elbow_y,right_elbow_conf,left_wrist_x,left_wrist_y,left_wrist_conf,right_wrist_x,right_wrist_y,right_wrist_conf,left_hip_x,left_hip_y,left_hip_conf,right_hip_x,right_hip_y,right_hip_conf,left_knee_x,left_knee_y,left_knee_conf,right_knee_x,right_knee_y,right_knee_conf,left_ankle_x,left_ankle_y,left_ankle_conf,right_ankle_x,right_ankle_y,right_ankle_conf,acc_x,acc_y,acc_z,acc_mag
0,0.0,532.4887,79.06646,0.95533395,536.67303,74.47659,0.9611509,530.8768,76.003235,0.6493869,549.5176,70.15404,0.95838326,534.8978,73.37096,0.21321708,570.43896,87.72597,0.9989052,540.1594,92.130646,0.9762782,583.7772,121.77429,0.9972761,543.26263,122.899414,0.85206777,559.6251,147.7735,0.99184895,534.3646,138.91638,0.8345454,570.47845,149.83914,0.99873644,551.7915,148.108,0.99435186,538.61237,179.09131,0.9968149,522.23145,172.45062,0.985817,559.32117,219.93927,0.9857094,551.4011,205.92708,0.9651187,1.00425747,-0.18841005,0.71974114,0.67454238
1,33.333333333333336,530.9616,79.06505,0.95395285,535.0622,74.5092,0.959535,529.4077,76.00514,0.64230764,547.9566,70.26984,0.9574928,533.6196,73.41729,0.21109651,569.6425,87.88553,0.99890256,539.1555,91.92211,0.97663945,584.0407,121.68477,0.99727976,542.38403,121.56784,0.85767037,559.7292,147.68167,0.99191636,534.28375,137.15582,0.8407257,570.63184,149.57726,0.9987931,551.8259,147.73709,0.99468863,539.5717,179.44022,0.99694294,523.0915,172.74922,0.9866752,559.53564,219.97418,0.98614824,551.5505,206.05984,0.96670014,0.99246503,-0.0832738,0.70942403,0.68903546
2,66.66666666666667,529.9701,80.25137,0.95206183,533.80676,75.62504,0.9569731,528.2822,77.26731,0.6378286,546.4849,70.58407,0.95477605,532.5388,74.17183,0.21212125,569.11633,87.41522,0.99885035,538.2511,91.727615,0.97669095,584.21735,121.42879,0.99717075,541.75183,121.36896,0.8627868,559.97675,147.4895,0.9916856,534.3768,136.5862,0.84566116,570.56793,149.19821,0.9988055,551.5534,147.49994,0.994892,540.4587,179.83435,0.99698406,523.8264,173.28722,0.987288,559.7203,219.87985,0.98641104,551.2034,206.08627,0.96802706,1.04492852,-0.04642699,0.7811525,0.69247449
3,100.0,529.0307,79.7693,0.95337677,532.93054,75.056465,0.9589433,527.3214,76.78651,0.63946736,545.76575,70.45236,0.95687115,531.505,74.26642,0.20704961,568.6537,87.81749,0.9989078,537.3667,92.77873,0.976158,584.43945,121.40329,0.9973086,540.5317,122.61685,0.85751563,560.07227,147.31932,0.9920365,533.4153,137.87595,0.8419935,570.58234,149.37906,0.99881375,551.32794,148.01137,0.9947462,540.6171,179.4577,0.9969869,523.93945,173.62129,0.9868514,559.94476,219.62686,0.98624414,551.38696,206.65263,0.96687627,0.97387664,-0.17760165,0.64555622,0.70721322
4,133.33333333333334,528.0652,79.779724,0.94764996,531.88055,75.09013,0.9539215,526.423,76.76605,0.60822177,544.5761,70.67839,0.95406926,530.53784,74.471016,0.19224758,568.1238,87.902405,0.9988741,535.85736,93.66837,0.97432953,584.9287,120.70419,0.99735767,538.81604,124.69153,0.8527657,560.87836,146.7026,0.9921462,531.8206,141.44873,0.8382576,570.6281,149.24698,0.9988299,550.8174,148.23175,0.994701,541.9334,179.95746,0.99698764,524.55695,174.31364,0.986586,560.6059,219.62494,0.9860553,551.6507,206.80579,0.96597666,1.02186368,-0.00884324,0.69615918,0.74799036
5,166.66666666666666,527.0904,80.145706,0.94351393,530.92053,75.52089,0.9503785,525.55145,77.08017,0.58889395,543.84644,71.010345,0.9517871,529.764,74.577324,0.18339221,567.58514,87.98276,0.99882597,534.70856,93.73059,0.9727686,584.8123,120.83273,0.99730814,537.8225,125.62424,0.8484452,561.53156,147.00616,0.991981,531.1497,144.06818,0.8340355,570.0058,148.84242,0.9988146,549.83563,147.89664,0.9945905,543.126,180.84518,0.9968918,525.21564,175.29019,0.9861407,560.96686,218.9884,0.98551625,551.7334,206.62071,0.96463567,0.99051177,-0.02775793,0.65685591,0.74086665
6,200.0,526.59094,81.08181,0.9481174,530.462,76.453964,0.95438826,524.80725,77.93908,0.61713976,543.3639,71.49556,0.9529703,528.5013,75.06023,0.19478099,567.22876,87.962494,0.998855,533.3482,94.23807,0.97346944,584.8991,120.73479,0.99724966,536.5637,127.903534,0.8470249,562.7454,146.92075,0.9916898,529.688,148.93848,0.83006936,569.91565,148.473,0.9987903,549.1537,147.7399,0.99448484,544.4439,181.95782,0.99679476,525.68243,176.23975,0.98574907,561.2534,219.065,0.9851483,551.4042,206.50577,0.96380115,1.01078373,-0.12847256,0.64285412,0.76936152
7,233.33333333333334,525.9225,81.64736,0.95315903,529.8575,76.94008,0.9594583,523.94904,78.50404,0.64371586,542.82916,71.81767,0.9556681,527.291,75.60719,0.20147492,566.7663,88.15358,0.99888474,532.5613,94.81772,0.97337025,584.809,120.99437,0.99724054,535.8913,128.47142,0.84212977,562.76794,147.7637,0.99167037,529.3645,149.52245,0.8262338,570.2954,148.20218,0.9987098,549.273,147.73352,0.99404126,545.0727,181.78088,0.9965436,525.87103,176.69333,0.9844226,562.032,218.88124,0.98391956,551.44446,207.07483,0.96046555,0.96255597,-0.02898616,0.6033052,0.74946424
8,266.6666666666667,524.9676,83.06088,0.9529435,528.914,78.19595,0.9586173,522.78925,79.948044,0.65111214,541.9984,72.532,0.9530235,525.6827,76.843056,0.20208104,566.7156,88.38555,0.998781,530.6771,95.946724,0.9725432,584.9249,121.595505,0.99697375,534.3686,130.36043,0.8411977,562.2147,148.78928,0.9911316,529.2627,150.88042,0.8259801,570.654,148.3802,0.99856573,548.44196,148.32567,0.99358,545.79346,181.28395,0.9961932,525.5742,176.68927,0.98335934,562.7247,218.15778,0.9827145,551.9424,206.88086,0.9583118,1.0511303,0.10169721,0.70868709,0.76960716
9,300.0,524.3554,83.70929,0.9510761,528.3903,78.807365,0.95658135,522.05786,80.5961,0.65223825,541.51306,72.81773,0.95016503,524.6536,77.16382,0.20574203,566.36896,88.455444,0.99864894,529.2549,96.15437,0.9712488,584.9861,121.70201,0.99658895,533.54974,131.37502,0.834792,562.75854,149.2684,0.99005777,528.35956,155.47276,0.8164071,570.20325,148.88878,0.99835664,547.43463,148.9754,0.9928536,545.3594,182.03442,0.9955432,525.02014,177.58456,0.9810656,563.2419,216.50507,0.98034805,553.11694,205.71701,0.95346653,1.05728862,0.03439036,0.71409129,0.77894169
10,333.3333333333333,523.0967,84.960266,0.94527197,526.98016,80.173584,0.9499053,521.04675,81.87383,0.6250276,540.33203,73.574524,0.9448991,524.1115,77.78003,0.19507447,566.02655,88.16117,0.99858046,528.1709,95.495224,0.97157425,585.08044,121.41708,0.99656785,532.0217,130.78242,0.84684163,563.37616,148.79811,0.99014837,527.45886,154.99525,0.82819784,569.60095,148.21002,0.998519,546.34076,148.0614,0.99376947,546.14514,182.70253,0.9960588,525.0524,177.44565,0.983878,563.23737,217.34933,0.98257715,552.6577,205.6631,0.9597756,0.99279892,-0.05723539,0.62516764,0.76911587
11,366.66666666666663,520.9449,83.79138,0.94983095,525.04877,78.769394,0.9526104,519.1372,80.54566,0.6498652,539.29974,72.80866,0.9450581,522.5176,77.306465,0.21632019,565.1074,88.729706,0.99808455,526.1656,97.09483,0.97417396,584.9261,122.24301,0.9947674,530.26276,133.75136,0.84574366,561.9099,148.70357,0.98694617,526.8364,157.9836,0.8265271,569.3627,148.86784,0.99764794,545.5376,149.12476,0.9915115,545.96423,182.45099,0.9942253,524.6165,179.06902,0.9799091,562.3562,215.30688,0.9761657,552.99945,207.00055,0.95107144,0.99281503,0.03193391,0.65120606,0.7487273
12,400.0,520.44855,84.529564,0.9534391,524.5502,79.53835,0.9553246,518.39044,81.264,0.6714351,538.5483,73.37871,0.9463646,521.3528,77.828896,0.23100606,564.3672,88.8683,0.9981845,525.4486,97.19671,0.97624534,584.75635,121.57631,0.9948861,529.93097,133.17514,0.8550843,562.70807,148.00446,0.98714066,526.1739,157.53871,0.83465123,569.6092,148.81075,0.9978307,545.75433,149.07574,0.992308,546.7356,182.75264,0.9947278,524.9613,179.17188,0.9820047,562.6231,215.66998,0.9783514,552.7225,207.10272,0.9560834,1.02709543,0.13485935,0.68412255,0.7541315
13,433.33333333333337,519.7172,85.171165,0.9543671,523.6595,80.16222,0.955985,517.4566,81.993515,0.6784717,537.2255,73.7368,0.9471267,520.2548,78.460724,0.23948862,563.1861,89.074036,0.9982785,524.5856,97.3493,0.97718936,584.16815,121.42459,0.9950966,529.1364,132.40591,0.859329,562.4956,147.68445,0.987445,525.3186,156.8589,0.83792585,568.68854,149.06934,0.99800736,545.10126,149.41138,0.9929041,546.3048,183.27808,0.99512297,524.87024,179.92136,0.9833196,562.5622,215.47522,0.9799555,552.22394,207.12163,0.9592033,1.02709543,0.13485935,0.68412255,0.7541315
14,466.6666666666667,519.28064,86.05409,0.9458185,523.07806,81.08873,0.9403753,517.4323,83.048904,0.6875464,536.4915,75.1613,0.91683644,521.1969,79.57707,0.25820157,562.4506,90.35713,0.99587613,525.27716,96.92396,0.9735677,583.57184,122.863434,0.9893889,527.4598,129.95543,0.87640125,563.26373,148.97394,0.9789231,522.6244,155.27411,0.8605602,568.96436,148.01138,0.9945538,546.32117,148.01004,0.9867682,543.91187,184.5904,0.9857859,523.7481,182.15993,0.96635544,562.5393,216.1742,0.9466908,550.3393,210.0232,0.9148402,0.99380558,0.07590444,0.66078623,0.73841019
15,500.0,518.723,86.104546,0.94585377,522.4007,81.29938,0.9362406,516.8144,83.21692,0.6981034,535.2151,75.6917,0.9096657,520.1359,80.05301,0.27749598,561.0953,90.607285,0.99591947,523.4213,97.48341,0.9768897,582.52185,121.6582,0.9894909,525.0789,129.89932,0.89476126,564.0265,147.6188,0.97904277,520.61755,154.59354,0.87670296,568.0488,148.22664,0.9951931,545.03375,148.4654,0.98900336,544.6089,185.77112,0.98706543,523.7317,183.19542,0.9711972,562.94354,216.73734,0.95060205,549.8356,210.19687,0.9238887,0.98958441,0.0994864,0.63327394,0.75388585
16,533.3333333333334,516.62054,85.772675,0.9411813,520.2816,81.1541,0.92918366,514.8905,82.89482,0.6826645,533.0824,76.23471,0.9039871,518.3825,80.15673,0.27520588,559.3867,91.26306,0.99576783,521.6034,97.88536,0.9773891,581.8835,121.35445,0.98921716,523.7247,129.63449,0.90097314,564.44653,147.64114,0.9785472,519.60187,153.93088,0.8821471,567.22125,148.33405,0.99549896,544.03687,148.43694,0.9900446,544.9535,186.77562,0.9879632,523.1615,183.49614,0.97419703,562.75476,218.2119,0.95387155,549.00415,210.72008,0.9307332,1.02560183,0.12748998,0.67061205,0.76543119
17,566.6666666666666,514.4188,86.12242,0.9460888,518.25977,81.53043,0.9349209,512.63245,83.20856,0.7051855,531.26746,76.79822,0.90887123,515.94135,80.57384,0.28798282,557.98615,91.89532,0.99595886,519.4812,98.833244,0.9785244,581.4882,121.353836,0.9891912,522.77234,130.55661,0.90303624,564.48395,147.15167,0.978309,519.3816,154.27563,0.8830364,566.9591,149.04816,0.9954661,543.2861,149.29732,0.99006313,545.066,187.45203,0.9876073,522.4209,184.21973,0.97374254,562.88745,218.11462,0.95244306,549.01776,210.77655,0.92917585,0.96587212,0.06386781,0.63425652,0.72563663
18,600.0,513.35596,87.029335,0.952258,517.3053,82.37175,0.94102484,511.27264,84.08376,0.7416223,530.234,77.37959,0.9103297,513.9918,81.274994,0.31585804,556.9044,92.35404,0.99589914,517.87036,99.49775,0.98001045,580.4472,122.17987,0.98829436,521.6493,131.54527,0.90693015,562.66907,147.77158,0.97685355,518.2355,155.44286,0.8860379,566.68384,149.173,0.99512106,542.65204,149.5809,0.9898067,545.0686,187.2799,0.9867465,522.0584,184.37582,0.97317684,562.8408,217.82668,0.9502806,548.98303,211.1268,0.9280249,0.9357734,0.05232248,0.60453343,0.71237177
19,633.3333333333333,511.92172,87.96309,0.95053273,515.1447,82.73417,0.9567752,509.4418,84.88077,0.6786064,528.3664,77.45798,0.95162815,512.32886,82.766716,0.24434355,554.89734,92.45342,0.99871683,517.2255,100.55403,0.9776848,577.86115,119.88301,0.9963654,520.05884,130.54172,0.86087227,562.8837,148.26448,0.9875674,518.137,154.57501,0.815405,565.5658,148.77036,0.99871576,542.05176,149.6904,0.9949816,546.8188,183.87138,0.99591595,524.7925,179.41208,0.9843407,564.0756,217.18802,0.9802847,551.7295,205.39746,0.95584166,0.91422204,0.03954892,0.57407339,0.71040661
20,666.6666666666666,509.39166,88.35667,0.95294935,512.8297,83.08712,0.9588311,506.90503,85.259735,0.6949346,526.4547,78.42555,0.9519597,509.8065,83.67064,0.25157896,552.96783,93.94704,0.99861753,515.29895,102.31875,0.9775099,576.247,120.500015,0.9959644,519.0189,131.70314,0.859014,562.28143,148.71686,0.9865674,517.65454,153.93155,0.81410867,565.03564,150.19254,0.998456,541.41705,151.28766,0.9941936,545.5519,184.18681,0.9949668,523.3004,179.9544,0.98136866,563.5243,217.18117,0.97580624,551.5733,205.6434,0.94716257,0.94303339,0.07467621,0.61878086,0.70770451
21,700.0,508.32184,88.088806,0.9599435,511.97702,82.620674,0.96336925,505.2845,85.202225,0.7447587,525.6829,78.8649,0.9519237,507.2707,84.91269,0.2899576,551.5258,95.332596,0.9985239,513.5306,104.85505,0.97975165,574.8275,121.57332,0.99536574,517.50757,133.7472,0.8680974,559.6726,150.48926,0.98504895,516.3112,155.1765,0.8228443,564.85364,150.38303,0.9981018,540.8654,152.32323,0.9934535,544.6204,183.9456,0.9934695,522.5026,182.09106,0.9777231,563.60834,215.91342,0.96832776,551.88806,207.53224,0.9343402,1.1551816,0.2773337,0.70745887,0.87007615
22,733.3333333333333,505.46652,90.59732,0.9525999,508.80392,85.0683,0.9566768,503.02115,87.75128,0.7066757,522.5479,80.340324,0.94644266,506.19855,86.551895,0.26297447,549.1211,95.34289,0.9983005,511.74796,106.2776,0.9769602,573.1163,121.36975,0.9950826,516.49066,137.3187,0.86103415,558.319,149.7177,0.98457277,516.5521,156.72546,0.81748676,562.58057,152.35179,0.9978193,538.9177,154.9403,0.99250174,543.4233,185.01877,0.9923017,521.40076,183.80307,0.97392046,562.5041,216.73734,0.9624937,551.0471,208.79053,0.92286974,1.04163286,0.30067002,0.62369377,0.77820475
23,766.6666666666667,503.72943,92.33449,0.9559311,507.1341,86.588,0.957467,500.9927,89.68352,0.7392148,520.88116,82.00963,0.942202,503.76587,89.015,0.29165718,546.90924,97.089554,0.99804497,509.6958,109.10101,0.97800034,571.81525,122.81479,0.9941247,515.4372,140.07858,0.8685189,556.48663,150.02231,0.9825649,515.6012,159.08139,0.8251176,560.3938,153.67303,0.9973193,536.5862,157.06966,0.9916169,541.8238,183.98288,0.9905628,519.50995,185.14102,0.9709112,562.62573,214.88895,0.9555037,550.19135,210.47833,0.91359496,1.01415475,0.2719295,0.59298809,0.77648523
24,800.0,501.50873,93.835655,0.9544938,505.4317,89.19255,0.9488677,499.3174,91.1962,0.7225435,518.82935,84.39574,0.9331379,501.40353,89.36342,0.28529996,545.2647,98.82669,0.9980106,505.8008,109.02089,0.98129064,569.1706,125.94643,0.9940766,512.1974,139.85582,0.89741576,551.6958,152.00769,0.9852234,512.1158,160.45909,0.8713276,556.8022,154.14203,0.997938,532.26105,156.39154,0.99399287,542.6071,186.80357,0.99411607,518.1116,186.2647,0.98369527,561.2017,214.28809,0.9756648,547.5338,209.79807,0.9564463,1.00284506,0.24564544,0.56645838,0.79024138
25,833.3333333333334,498.27194,94.29944,0.9430238,501.96152,89.93374,0.93576014,496.44885,91.83422,0.67307025,514.5197,85.93902,0.92302996,498.63852,90.493,0.2586626,540.86804,99.731155,0.9977812,502.3077,110.17392,0.9789225,565.6357,125.439835,0.9940989,507.23712,140.00635,0.89519835,549.4201,153.76825,0.9851952,507.1461,162.39244,0.8697717,555.1185,153.24168,0.9979594,531.0926,156.08733,0.994021,541.2196,185.45142,0.994105,516.58795,186.39685,0.98346657,561.427,212.66061,0.9754768,546.62335,210.06184,0.9556374,0.87925507,0.25596255,0.5330506,0.65071477
26,866.6666666666667,496.25104,96.79802,0.94204074,499.75122,92.35212,0.9371137,494.13788,94.362686,0.6651936,511.59216,87.52064,0.92566884,495.96338,92.30382,0.25369483,537.6246,100.50685,0.99790156,500.2082,111.09674,0.9772545,562.34033,125.6371,0.99458814,505.652,140.271,0.8851515,546.0212,153.47394,0.9859503,504.43637,162.60672,0.8602929,553.21106,153.6485,0.9979778,530.1199,156.7071,0.9936621,537.7285,186.3733,0.9941507,515.05066,187.5344,0.9822985,560.0273,213.28421,0.9754267,546.90204,210.54626,0.9532734,0.87029219,0.12159449,0.49939718,0.70230031
27,900.0,492.45242,100.46828,0.927875,495.54944,95.63304,0.917435,490.44238,97.92079,0.613908,507.176,90.18593,0.9075551,492.98904,95.5621,0.24720074,533.6382,102.01487,0.99630827,497.39667,112.75873,0.9742143,556.54706,126.3109,0.9909418,503.78162,141.185,0.87835974,538.2897,152.34149,0.9784726,503.10345,163.1924,0.8446112,551.4071,154.4596,0.9956381,528.5996,157.30414,0.9885141,533.47534,188.00812,0.98636824,510.3698,188.37903,0.9652283,557.88666,215.12741,0.94245607,542.6727,210.60364,0.9048139,0.75152495,0.23188929,0.49743202,0.51339897
28,933.3333333333334,489.69244,103.61543,0.9333019,492.82825,98.75549,0.9247205,487.43304,101.02786,0.63243,504.56946,92.360275,0.91241026,489.55582,97.77723,0.24840496,531.02625,103.71665,0.99661934,494.31763,113.55153,0.9749737,551.9543,129.97562,0.9916453,500.48483,142.40036,0.87964666,531.31384,154.70918,0.9799398,500.17007,166.02756,0.84721816,550.2808,154.6026,0.9961118,527.0744,157.16739,0.98953176,532.4398,187.14128,0.98844564,508.47473,186.97408,0.9695749,558.4337,214.03574,0.9527914,541.9447,209.12071,0.92007345,0.59556067,0.29723098,0.39991078,0.32621714
29,966.6666666666666,485.1927,106.15375,0.87998194,487.13614,101.29828,0.8479958,483.66333,104.18236,0.51041335,496.972,95.67309,0.84252435,487.8605,101.83295,0.21945092,523.85156,107.56447,0.99237627,492.13547,116.84513,0.96655864,543.5272,135.19868,0.9852857,496.64502,145.31856,0.88602984,523.2515,158.54773,0.9694508,495.40393,168.87808,0.85605294,546.13745,159.23659,0.99186313,526.4303,162.32097,0.98335904,526.14343,190.37013,0.97256505,506.94696,191.96922,0.94397867,559.4101,212.99103,0.8991587,542.2734,210.13077,0.8547922,0.568561,0.26603401,0.42840565,0.26259497
30,1000.0,481.41357,111.65541,0.8993856,483.3849,106.89559,0.87553173,479.66803,109.55537,0.55396605,493.19617,99.47533,0.8605912,483.3604,105.23432,0.23014903,519.7685,110.03766,0.99376535,487.90915,118.2903,0.9684955,537.2877,140.98486,0.9874549,491.87946,148.91142,0.8844163,514.81525,161.69398,0.97280425,490.35965,172.16641,0.8556774,543.9612,159.61919,0.99270016,524.28906,162.5027,0.98410046,523.9269,192.54742,0.9749086,505.33264,194.14874,0.94513714,557.2101,212.33319,0.90584654,541.0579,210.04729,0.8585196,0.6453087,0.24859318,0.54435029,0.24146947
31,1033.3333333333335,477.37238,113.086624,0.91452974,480.03452,108.46024,0.902076,475.6281,110.91835,0.5872281,490.53888,102.97479,0.8904727,478.86658,108.1142,0.23509814,515.7656,115.01817,0.99513596,484.5195,123.44197,0.9690568,534.39856,143.5763,0.9893939,490.1733,152.3495,0.87115145,510.43402,162.37675,0.97587764,488.4003,174.37735,0.8428718,540.34937,161.39526,0.99337476,521.14514,164.42441,0.983922,519.2512,192.55316,0.97742736,501.79062,195.23605,0.94510037,553.0366,211.57372,0.91439533,540.2152,211.31485,0.8621412,0.75298518,0.0675525,0.70942403,0.24318899
32,1066.6666666666667,473.97986,117.99692,0.90030926,476.1243,113.17258,0.9003965,471.95444,115.84397,0.5240904,485.64496,106.74102,0.90515137,474.29977,112.02775,0.21819194,508.89807,117.0415,0.9975272,482.17908,127.153305,0.9677784,524.14325,146.0364,0.99494344,491.97055,159.05493,0.85459554,501.7273,168.3539,0.9843588,484.01483,178.94626,0.8222104,537.0701,162.19633,0.9976109,519.10126,166.39006,0.9919382,518.623,190.96463,0.9931433,498.3353,193.77776,0.9766717,557.285,210.72575,0.97273076,540.08435,209.2118,0.9440013,1.13669371,0.14615904,0.88776262,0.6946853
33,1100.0,469.07626,120.78563,0.8805279,471.45853,116.20178,0.898489,467.27896,118.95445,0.40672198,481.8932,109.911514,0.9274573,471.31488,115.59735,0.15224805,502.42557,120.41533,0.99799395,478.63928,129.52914,0.9605279,512.4576,150.4756,0.99652004,486.67087,159.84845,0.810157,488.2349,170.28351,0.9880167,477.42038,180.15103,0.77518004,526.97375,168.92586,0.9981407,511.50504,172.86159,0.9917714,509.53647,192.34033,0.99452,492.15933,195.56311,0.9755248,551.61633,211.97203,0.9777427,536.3068,210.77213,0.9457817,1.10194899,0.41784289,0.75830747,0.68166609
34,1133.3333333333333,465.7285,127.34769,0.8526161,467.6259,122.44327,0.8905937,463.87534,125.78107,0.32384655,477.38766,114.03224,0.9286417,467.84027,120.89339,0.10934322,497.38257,122.99191,0.99797624,475.02988,132.59415,0.9378279,504.87448,155.86873,0.99719644,480.93362,163.20154,0.73023623,475.73743,177.72548,0.98975533,469.35715,185.73994,0.7137037,523.6476,170.13293,0.9979253,508.97357,175.0968,0.98840463,505.08997,191.6145,0.99384004,488.41403,199.17123,0.9649572,553.52637,208.98236,0.9745175,534.8283,213.71072,0.9270047,1.08569074,0.65587332,0.61337666,0.61018327
35,1166.6666666666667,459.84128,128.24742,0.9047588,462.44012,122.70091,0.9378563,458.4661,126.466354,0.4694745,473.25906,117.33227,0.94454736,462.57986,124.096985,0.13992755,490.6435,129.77834,0.99797446,472.09848,139.70776,0.9267133,493.12283,160.92332,0.99628395,476.3504,169.57951,0.6416127,467.25,185.93396,0.98496336,467.89444,189.38995,0.627951,521.82544,172.13564,0.99641895,507.09558,178.08478,0.97988874,502.75067,191.3168,0.9909752,484.72446,201.72821,0.9490124,556.9979,208.69447,0.9669011,531.85034,217.12442,0.9050408,1.43300757,0.19160344,0.98209047,1.02581536
36,1200.0,453.2404,134.07628,0.8694945,456.1179,129.25967,0.88783556,452.4123,131.92703,0.43335524,468.46436,124.2982,0.89691323,459.05945,128.95705,0.15968384,483.2852,135.78697,0.99283737,469.56805,142.34967,0.93815494,482.14005,173.2505,0.9862359,473.86533,176.43747,0.73208016,458.01413,192.48178,0.96022606,460.69907,201.25035,0.6726319,516.4045,176.08427,0.9884946,506.11978,180.70216,0.96595484,502.35825,194.7023,0.9660708,485.14377,203.14545,0.89917994,550.55835,205.62054,0.9010086,527.0594,213.76776,0.81988794,1.67341493,0.2368022,1.17737859,1.16534197
37,1233.3333333333335,448.15836,140.7626,0.7601872,450.09915,136.4609,0.850344,448.708,138.20395,0.22513859,461.10645,131.7333,0.92949224,457.91815,134.12193,0.100602016,475.838,144.01733,0.99651504,469.38974,147.61581,0.9053096,474.88754,179.33142,0.9942246,473.98392,180.82076,0.6024282,453.06982,199.22818,0.9747346,456.72864,205.90579,0.55134916,511.27182,176.88113,0.9962303,505.0274,180.41933,0.9808795,505.1619,201.42209,0.99097615,486.44305,208.0852,0.9552021,553.5513,208.18246,0.97062194,523.96234,215.22699,0.922941,1.55856154,0.03635553,0.9828274,1.20906685
38,1266.6666666666665,444.05643,148.09007,0.80725,446.02997,144.07765,0.88028425,444.46924,145.52621,0.27246985,456.2035,138.91982,0.9423111,452.66617,140.70207,0.11952102,470.56497,150.32578,0.9975956,464.12445,152.09015,0.9286835,468.6688,185.71123,0.99568826,467.86203,182.41396,0.65225303,447.87143,208.91733,0.97894365,451.8132,207.55237,0.5866982,509.31223,180.61038,0.9968406,503.54294,183.52063,0.98353034,501.42813,205.61288,0.9914341,487.6823,210.11212,0.9557428,551.96594,210.69899,0.9693721,530.8007,214.1424,0.91790557,1.46842063,1.21913832,0.70942403,0.40826272
39,1300.0,440.05505,153.6871,0.7759816,442.23062,149.83864,0.8511758,440.6154,150.85973,0.2776416,451.52524,145.14966,0.92405164,447.63388,145.98409,0.13056193,464.87308,155.91577,0.9961139,458.55594,157.57782,0.91914034,461.55887,193.14024,0.9925426,463.60648,190.49738,0.63778543,443.80087,218.55695,0.9655903,449.60455,215.86946,0.5553266,506.81067,182.03247,0.9952526,500.2166,185.1603,0.97948074,501.87836,206.08621,0.9890239,482.62927,211.08057,0.9528751,551.7998,208.97023,0.96714693,523.7549,214.22403,0.92097574,1.22795013,0.09531043,0.51413591,1.11105432
40,1333.3333333333333,432.9623,168.7413,0.6991128,433.37778,165.17531,0.784284,432.7466,166.84825,0.20697059,441.0608,156.29669,0.87951416,440.65274,158.95912,0.10531353,455.16122,158.86151,0.9915421,455.1693,161.76695,0.8684011,458.3956,196.82089,0.9880967,465.82742,195.15099,0.5857501,446.7778,217.24017,0.95706046,451.83417,219.16525,0.53526586,501.0835,183.23566,0.9896994,498.93698,187.58205,0.9593795,498.63705,207.74629,0.97246796,481.36682,215.5889,0.89414126,548.61273,208.90521,0.92451376,516.61633,216.40659,0.83613175,1.73298777,0.60674424,0.68559642,1.47141618
41,1366.6666666666667,429.67578,173.86263,0.80880916,429.82596,169.63556,0.8687055,427.89325,172.51118,0.35196128,436.91312,160.01888,0.9009669,432.83838,165.862,0.1492035,451.47647,161.91673,0.9931803,448.5437,168.53337,0.88629955,457.1752,194.74155,0.9883348,459.94852,197.2246,0.5820778,447.37967,215.77734,0.95850545,451.1369,217.42065,0.53596056,497.20242,183.43933,0.98916316,493.6044,189.41891,0.95618725,493.58044,207.1623,0.97159785,479.64722,216.75606,0.8874367,544.0619,208.54236,0.9242257,515.74493,215.88147,0.8306397,8.88852042,6.3963616,0.75806183,6.12516904
42,1400.0,426.4673,180.02048,0.8421049,426.70578,176.61288,0.89094204,424.5515,178.6282,0.3876341,433.12567,167.185,0.9141254,427.1661,171.33748,0.15929122,446.96417,165.87039,0.99621516,441.99365,171.06165,0.9119475,457.29636,194.74953,0.99395424,456.31805,195.19102,0.651391,447.09988,213.81552,0.9769986,450.46967,211.4885,0.61889005,493.46457,177.69426,0.99470747,488.90982,183.30031,0.97467244,494.50134,206.90442,0.9844997,482.452,215.99649,0.9271764,541.1309,206.13486,0.94942224,518.72217,213.50418,0.872932,1.37261829,-1.21250589,-0.63425652,0.10783835
43,1433.3333333333333,427.69894,185.71216,0.89887106,427.43195,181.58713,0.9240809,424.19858,184.92674,0.5506821,433.07803,170.03844,0.9098068,423.02017,177.74261,0.21320745,447.75482,166.12103,0.99630666,436.90298,176.1039,0.92279935,458.74786,190.97272,0.9934163,450.4238,197.25705,0.6625339,448.17236,214.03836,0.9757295,447.40656,212.23407,0.62646824,494.451,178.11078,0.99219465,487.0423,185.8836,0.96434313,494.181,203.80148,0.9732377,486.78534,214.09154,0.8802595,542.50336,201.28674,0.91370475,528.7702,206.55316,0.7939188,2.31546238,2.31226052,-0.12134885,0.00958017
44,1466.6666666666665,428.9735,187.98354,0.88867515,428.5522,183.34952,0.89432,425.08698,187.18149,0.6579142,432.66043,174.844,0.86968595,421.77295,183.6895,0.38076136,446.69028,173.69162,0.99455863,431.42197,186.69095,0.9531631,456.27402,190.00482,0.98575056,439.66934,205.10123,0.7616181,449.57422,214.87357,0.9514107,444.02264,215.37671,0.69633716,491.16953,180.45013,0.9927287,480.77426,189.84183,0.97918826,500.99527,200.51578,0.9843276,490.63568,211.23961,0.9553869,541.12506,195.94778,0.95950854,529.7354,202.1592,0.922499,0.49326399,0.22304606,-0.06558733,0.43503807
45,1500.0,424.49496,187.83463,0.91354364,424.03842,184.03522,0.9182576,420.6403,187.57143,0.660067,430.19998,176.8787,0.8857818,419.41724,185.77383,0.30883992,443.4623,174.26558,0.99533045,433.113,186.28021,0.952703,453.56686,190.48781,0.9905185,442.05847,202.23701,0.80282885,447.07178,212.51848,0.97106344,445.65402,214.14957,0.7644472,486.53772,179.12679,0.9916637,478.94858,188.21901,0.973957,503.82846,191.88745,0.97148955,497.06235,204.10172,0.915117,534.769,190.0731,0.9185169,523.38806,198.3448,0.84510744,0.29133601,-0.01940599,-0.28642258,0.04962038
46,1533.3333333333335,423.2219,191.38309,0.9004448,422.70093,188.10237,0.89853513,419.81274,190.96434,0.64506924,427.97867,181.33794,0.86016434,417.86185,188.51149,0.32090253,440.69992,178.14957,0.99478287,430.04602,187.9469,0.9567263,451.64438,197.41719,0.9898329,438.52643,205.62712,0.83485943,443.32928,214.68,0.9704129,438.45148,215.0881,0.79950273,483.00043,177.8799,0.99317193,474.64386,186.01672,0.9808688,501.07996,191.06606,0.9789696,489.24115,203.69196,0.9433115,529.7308,185.4957,0.9429405,511.5167,197.01147,0.8961043,2.99870235,1.6266641,-2.4591565,-0.5465611
47,1566.6666666666667,422.98218,194.22589,0.8241963,421.96265,191.26418,0.7981279,420.39233,194.29224,0.52475566,426.14044,183.95029,0.77226084,418.9267,191.26872,0.29143888,438.1268,177.618,0.9908471,428.80472,187.99461,0.9518716,449.88812,192.88396,0.9856675,436.45465,201.99597,0.86575264,441.30197,212.7762,0.9630373,434.8131,213.81271,0.8294369,477.17752,174.49849,0.99302703,469.46564,183.04704,0.98432493,496.0376,187.28058,0.9785744,482.64062,201.95328,0.9533588,526.6709,176.38223,0.9464304,505.29767,191.74649,0.9135508,3.12741941,1.13488193,-2.90795071,-0.1913578
48,1600.0,422.30762,189.3655,0.8105831,421.33105,185.70941,0.7414029,420.2847,189.55873,0.60250515,424.90924,180.16684,0.73561877,420.8806,188.9931,0.46120426,436.82742,177.7823,0.98488045,429.7088,192.79749,0.9710477,446.29248,188.25116,0.96184987,437.8649,209.65382,0.90134746,436.73068,210.54904,0.9105774,435.31955,211.69524,0.8497583,473.65506,178.61555,0.98893124,467.92374,188.5932,0.9853974,496.1854,182.55252,0.9790123,486.18103,196.29616,0.9736925,525.7552,174.94719,0.957978,515.6014,189.6388,0.9520472,1.21195597,0.08499332,-1.19236296,0.19970974
49,1633.3333333333333,424.26807,191.44524,0.8341703,421.8921,187.25217,0.746965,420.83777,192.77887,0.6739183,424.41797,179.68848,0.646706,420.27362,193.2695,0.45727354,440.26263,171.00458,0.9764455,430.48096,192.6873,0.95969546,477.57013,170.40787,0.94574916,433.6942,205.73105,0.89023983,506.74594,172.28455,0.89867085,433.2409,197.08028,0.83681405,472.9554,169.38239,0.9782281,467.8081,182.53835,0.9716081,494.4186,175.33493,0.9433691,489.37268,194.07614,0.92972165,520.33563,166.78226,0.8902196,508.4335,183.25818,0.8740993,0.97167618,-0.60576165,-0.12454224,0.74946424
50,1666.6666666666667,421.06155,189.28528,0.76429915,419.97903,186.18015,0.67274225,419.23505,190.14986,0.59994674,421.85938,183.01788,0.68171245,420.05457,191.79898,0.5271455,429.47995,180.53944,0.97596735,428.39066,197.17874,0.97083974,437.7963,180.38063,0.93437046,447.52667,206.4894,0.8979438,429.6541,189.23676,0.86663526,450.59564,197.83008,0.8285535,460.1751,179.9169,0.9847134,459.61197,189.85156,0.98285204,476.57336,170.80736,0.97442245,475.82153,180.90475,0.9722201,509.545,162.02255,0.9625128,513.8313,169.88812,0.9611758,1.30469628,-0.30312647,-1.17320262,0.48367587
51,1700.0,437.2146,182.89539,0.4664322,436.2864,182.41989,0.32475135,437.78018,184.28946,0.20417118,439.35138,184.0581,0.45784986,442.6838,188.29013,0.17629689,449.39624,180.14632,0.9448128,452.80365,186.80563,0.8986815,475.25778,161.79532,0.9428251,476.9925,173.30609,0.88988656,510.9852,155.781,0.93279266,514.5867,157.2448,0.87549824,458.97586,186.4937,0.97621584,461.03836,189.64197,0.9677141,439.53314,167.61865,0.9529006,447.15552,175.1464,0.938439,437.20325,183.51437,0.90772736,448.7902,190.6461,0.88914686,1.11822108,-0.11373384,-0.98724902,0.51266203
52,1733.3333333333335,447.85553,185.49374,0.3404718,446.92496,185.28741,0.17653729,449.35614,186.61386,0.19742644,446.98566,186.28683,0.30009896,452.88373,189.47517,0.25543138,452.87708,183.35867,0.88021183,456.35355,184.9707,0.90533715,466.79547,166.10187,0.862185,468.8853,168.42664,0.9101233,497.70267,155.93637,0.86658025,507.3359,150.70154,0.8904395,457.77505,181.51787,0.96864825,459.4997,182.12292,0.9733035,443.73465,173.88823,0.9456463,446.9658,176.12198,0.9533607,447.641,173.91687,0.9012536,452.48712,175.3833,0.90717125,1.47186158,-0.29231807,-1.33778506,0.53968303
53,1766.6666666666665,507.33347,153.33763,0.5920923,509.26437,152.67761,0.26287204,508.32343,150.37946,0.49649814,505.27075,156.92241,0.29144892,505.57495,152.20018,0.60003453,494.89676,170.18988,0.93893427,489.54688,159.9176,0.97345567,478.51288,175.28595,0.8646806,470.6018,160.55307,0.9587763,493.30743,156.57802,0.8374091,498.50345,151.39821,0.925304,465.05444,183.08324,0.9802024,461.26022,177.52142,0.9867163,458.84207,193.5093,0.9519043,452.80292,186.3857,0.9681902,438.57172,191.94904,0.8935836,433.27875,185.876,0.914488,1.47186158,-0.29231807,-1.33778506,0.53968303
54,1800.0,501.04953,151.25006,0.43293712,502.33133,150.5615,0.17213061,501.7237,148.50542,0.31526208,497.66037,156.39828,0.22651385,498.65683,152.32127,0.44371107,489.7951,172.76192,0.9113962,482.70413,161.70305,0.9437976,473.87885,178.22603,0.846344,465.3347,160.79984,0.9237161,489.7778,156.72983,0.82624096,497.11197,149.81975,0.8877258,463.6387,189.60661,0.97061306,458.82156,183.9371,0.97647774,454.55936,189.09317,0.9413713,448.24097,181.38002,0.952962,438.77554,190.02136,0.88904196,432.69452,182.03282,0.89905363,1.28752976,-0.2665253,-1.13070596,0.55515869
55,1833.3333333333333,488.1283,163.3281,0.531667,488.58704,164.92258,0.32879704,490.03333,162.67299,0.31423542,485.72867,172.41776,0.44310126,490.12714,168.58481,0.3863266,473.14124,182.4203,0.95086265,478.9323,174.37697,0.9469124,454.63382,177.8515,0.90777814,464.30243,160.55472,0.9061986,471.39294,162.76947,0.8889718,493.08014,149.44386,0.8753597,456.87906,190.04736,0.9803805,459.2155,187.37613,0.97827464,449.28067,190.65776,0.9596744,457.3945,188.75256,0.9573024,435.60516,188.38428,0.90858716,440.30566,186.66118,0.906992,1.19932972,-0.24613673,-1.07150541,0.47925425
56,1866.6666666666667,480.59955,168.91986,0.46791658,480.51926,170.35764,0.27916613,482.44687,168.4993,0.26213917,478.91653,176.53696,0.40720743,483.74463,173.57059,0.35270703,470.23093,183.10721,0.9452157,474.70355,176.2962,0.9408654,458.7119,174.21072,0.9066675,463.66193,159.80943,0.9065931,475.64313,161.2964,0.88730216,491.7904,149.6474,0.877036,456.12646,185.20407,0.9827601,457.98956,183.0359,0.98099595,454.8037,192.57541,0.96408856,461.59875,190.96912,0.96310556,440.43463,187.08548,0.91644603,443.98853,185.42212,0.9169425,1.17456322,-0.31639133,-0.93173315,0.64138024
57,1900.0,497.3305,152.6135,0.616917,499.67383,152.91667,0.34745088,497.2239,150.91968,0.45574528,501.4126,160.1035,0.3154283,495.2935,155.69316,0.4360532,494.51685,172.51884,0.93062145,483.1241,161.8134,0.9645777,477.21027,175.39507,0.8823893,463.68652,156.66364,0.9498218,480.6667,164.82117,0.8645836,489.20392,154.27187,0.9224205,467.39792,187.16733,0.981656,459.5869,181.77954,0.9859,454.12277,197.9577,0.9543382,450.66904,194.08438,0.96612406,420.24213,198.82056,0.90211767,424.0022,197.62202,0.9174208,1.60321299,-0.50062541,-1.29430582,0.8027693
58,1933.3333333333333,495.13074,154.95297,0.37980112,495.8915,155.4642,0.18673009,496.0009,153.62404,0.20527533,497.22177,161.61491,0.23828876,495.5996,158.55328,0.25033498,493.5149,171.26303,0.8833719,484.65732,164.58293,0.9306952,475.27554,170.44102,0.8508865,461.82635,157.40909,0.9279718,479.7478,168.02643,0.853676,486.92368,155.24068,0.9090789,474.04852,187.24591,0.9818095,466.3717,183.3291,0.9852893,455.99243,196.09795,0.9683565,453.64377,195.07109,0.9759412,416.69473,197.03763,0.9319319,416.64624,197.96883,0.94395626,1.33393705,-0.26849047,-1.12038885,0.67233157
59,1966.6666666666665,494.77786,161.89485,0.4407325,496.2764,161.99033,0.23337893,495.77863,160.67308,0.25126174,497.703,168.12518,0.27805635,496.33798,164.58295,0.26950088,491.6593,179.22224,0.9137752,486.26593,166.84618,0.9387501,471.24005,185.47351,0.89621574,463.52917,156.19962,0.9301087,463.53992,179.94286,0.8824031,480.9166,155.43958,0.90682137,467.12143,192.80959,0.9822881,463.27325,186.99924,0.9842063,444.99545,192.87233,0.96264225,447.9513,192.20525,0.96744853,417.32773,197.08096,0.9253311,424.48407,200.79416,0.9305806,1.16997854,-0.11717287,-1.01574389,0.56866919
60,2000.0,501.14734,164.79233,0.63343686,502.53934,166.31473,0.3142461,501.95212,163.79147,0.5036824,498.95343,174.77133,0.2634031,498.01117,168.3711,0.5354365,487.453,187.44875,0.9416091,484.37936,170.40863,0.97002304,479.10712,197.51418,0.89566684,468.86163,158.15387,0.9583686,482.58612,194.01526,0.88299537,486.43176,158.15126,0.9369966,455.9049,191.49785,0.9817966,454.5225,184.52211,0.9861334,443.13397,188.82767,0.9585794,449.9698,188.206,0.969892,417.3049,190.41565,0.91640174,429.5933,196.7493,0.9294782,1.18850004,-0.12699869,-1.06634685,0.509223
61,2033.3333333333333,501.92493,171.81998,0.4938683,501.95425,171.33066,0.20038362,501.85794,170.00655,0.3711949,496.80133,177.10458,0.1928168,497.8726,174.32193,0.452203,487.78967,190.41016,0.9032728,484.81845,176.61853,0.9344317,477.72873,193.62817,0.8541339,469.04996,165.56438,0.9216653,485.92392,184.57578,0.84095156,488.87195,163.31339,0.89658827,453.6032,197.18073,0.9609132,451.54355,189.96657,0.96788275,445.3159,189.77522,0.9181182,445.5533,183.29143,0.9336713,422.47116,195.21585,0.859015,419.32126,189.68265,0.8699598,1.21225997,0.06951766,-1.12456482,0.44732035
62,2066.666666666667,496.23462,188.15083,0.44038987,496.3635,187.99048,0.21745479,497.2916,186.25064,0.28162706,493.57172,191.1643,0.24871704,496.30505,187.66382,0.31428814,486.03452,197.42935,0.90238345,486.13022,184.32599,0.90365046,478.7989,194.88779,0.8800714,465.9944,169.81514,0.8954789,492.38788,189.1028,0.8681096,484.18097,168.9007,0.8762363,456.79962,199.44339,0.96377677,456.87827,192.50645,0.96403974,448.16107,188.81026,0.92802477,449.23367,183.58621,0.9302383,419.81665,195.7485,0.87503016,418.25833,192.08887,0.87174714,1.25250898,-0.09580172,-1.0719967,0.64064331
63,2100.0,495.49847,192.3429,0.38271433,494.4072,191.37108,0.20040457,495.30014,190.97354,0.19237462,493.2436,192.60237,0.25689304,494.35043,192.68542,0.21717504,491.0143,197.68204,0.92569464,489.99237,190.56573,0.89085674,488.94455,198.229,0.9258759,479.5378,185.26312,0.889454,501.5563,197.21713,0.91331106,493.2086,186.19003,0.8786479,465.48767,198.03032,0.97947973,465.22623,192.7113,0.97472996,451.60754,191.4113,0.95858234,453.81827,187.07458,0.95073515,420.7536,199.76791,0.91702247,419.83575,194.72,0.9037551,1.25250898,-0.09580172,-1.0719967,0.64064331
64,2133.3333333333335,464.3133,186.99973,0.41009066,463.52893,185.49458,0.26584902,463.7777,185.36441,0.15175883,469.62027,183.56503,0.36402506,466.76,184.2672,0.12558094,485.26685,188.32607,0.94278884,470.8413,181.95798,0.9245545,497.90503,199.72758,0.9465705,443.7638,179.9968,0.9277851,502.5166,212.47772,0.92699575,421.09784,183.1257,0.9108858,484.26474,196.60818,0.9876801,477.09854,191.17665,0.9867835,454.89523,207.75856,0.9650382,453.14368,205.69453,0.96208215,417.68134,207.24786,0.9023499,419.18518,206.78564,0.8962091,0.90644395,0.16482809,-0.77918733,0.43282726
65,2166.6666666666665,454.38403,179.83615,0.2333664,453.4244,177.82503,0.15414116,454.49796,178.36658,0.059357278,460.91956,175.48093,0.32508734,460.43423,177.45433,0.06264938,475.703,179.5474,0.93222135,470.3682,177.86945,0.844163,485.88443,188.953,0.95575804,475.00888,187.89359,0.8798797,502.73465,208.75467,0.9409227,495.70273,205.30582,0.87023044,479.3274,199.78813,0.9882947,475.2908,196.50586,0.9826942,450.91553,207.52324,0.9660442,449.19897,205.75026,0.9515853,418.60376,212.84398,0.90713966,419.05646,209.16292,0.8823013,0.85490634,0.34169281,-0.73693632,0.2665253
66,2200.0,487.48172,183.46709,0.30772322,486.80615,181.79767,0.11907669,488.61157,182.03197,0.16440055,485.891,183.37901,0.24679095,491.93588,184.31076,0.30279106,482.54218,190.24037,0.91945094,491.8852,190.55386,0.95192623,487.2137,203.5436,0.89778274,497.7694,209.10504,0.95291346,503.33664,213.57268,0.8735054,508.0309,214.99643,0.9209736,456.76508,192.96616,0.9836797,462.75635,190.4133,0.9876187,441.0849,197.68175,0.9607047,444.53094,199.48431,0.9714878,411.08347,201.15697,0.91053385,413.2527,207.02386,0.92309916,0.94045539,0.51757494,-0.6465388,0.44560083
67,2233.3333333333335,483.1689,172.99014,0.27867743,482.7487,171.83073,0.107495695,484.4209,171.97343,0.13707665,482.9972,176.26282,0.2409256,488.4041,176.6959,0.2674107,482.5977,187.27133,0.9169937,487.3829,185.83778,0.94686955,488.66718,204.01613,0.89539707,493.5468,206.17781,0.9470249,503.13672,214.82718,0.8683044,505.6069,216.59645,0.91186845,458.44626,190.64014,0.98210955,461.7217,187.48541,0.9860831,440.77203,203.39978,0.95105475,443.1511,204.0444,0.96331877,416.34573,201.95891,0.8801332,418.4816,206.52295,0.8950752,1.18337293,0.47999119,-0.84379208,0.67675319
68,2266.6666666666665,478.3123,180.14362,0.028842205,477.92007,178.2131,0.020832581,481.1731,178.2478,0.015815534,475.28082,177.70616,0.29468074,486.6461,178.80728,0.15019113,471.6253,183.06631,0.8548439,485.73013,185.9113,0.7993884,469.88727,195.91241,0.83750355,487.4557,202.39236,0.74711245,477.77258,213.55748,0.7124877,501.7986,219.88603,0.59833556,459.5153,198.47484,0.94724035,468.0447,199.00499,0.9343198,456.78882,212.49588,0.8503476,464.2141,213.34003,0.810403,453.31213,219.35689,0.7311662,458.2727,220.83057,0.6868407,1.2132338,0.72268888,0.26898176,0.93664606
69,2300.0,431.47168,177.63095,0.7546021,431.48575,175.00708,0.70792645,430.07498,176.41388,0.4627552,433.67236,174.3012,0.7962724,431.44244,177.74133,0.38870794,441.4195,183.1897,0.98693186,442.29688,184.51755,0.9561429,430.43076,208.06656,0.95805436,438.6299,203.48517,0.81579214,415.38055,214.56604,0.8893474,433.9602,200.83536,0.7377797,473.10217,187.0778,0.9793856,474.69852,188.91765,0.96615547,465.88297,209.79138,0.9554432,484.4073,210.26044,0.92853355,477.3459,216.56563,0.88569885,507.1526,215.01181,0.85226846,1.0900929,1.00911147,-0.37043332,0.18104069
70,2333.3333333333335,432.0722,176.93172,0.7896825,432.32138,173.89842,0.67328227,429.99503,177.27943,0.63108605,434.3904,174.14749,0.6638725,428.79526,181.79391,0.52805895,443.79523,178.3442,0.9696694,434.5242,193.75833,0.97015476,444.05283,187.4966,0.89528275,427.51068,212.15181,0.8848603,433.39047,191.75237,0.810069,418.3634,200.5051,0.8148774,473.34155,184.99583,0.970763,469.16434,193.33174,0.97252494,463.14117,200.25644,0.95185333,473.96857,210.94171,0.95352614,478.0659,209.02435,0.9031102,505.20914,219.60733,0.9067516,1.62877081,1.55518128,0.14345694,0.46230472
71,2366.6666666666665,436.081,174.90865,0.8814112,436.53677,171.64697,0.7591048,433.44177,174.9999,0.79150313,436.96594,171.8017,0.6573625,428.84204,179.06091,0.67781115,445.46716,176.59306,0.9794718,430.08606,192.06134,0.98327947,453.9057,185.09694,0.91701925,424.7375,212.19135,0.9278104,451.3907,185.37218,0.854639,425.07532,203.98422,0.8770951,474.3261,185.07549,0.9774711,466.0464,194.23808,0.9803571,466.5215,200.84865,0.95900404,470.38907,211.87314,0.96252286,492.1263,211.0564,0.91138893,510.46118,220.77594,0.9172173,1.23036515,1.05406458,0.12847256,0.62148296
72,2400.0,434.8376,174.27834,0.8079179,435.5796,171.28915,0.7397168,432.94067,173.80498,0.58328545,438.0525,171.63081,0.7484093,431.5488,176.6661,0.45661014,446.48895,180.35176,0.98498255,437.3107,186.79019,0.96420306,440.65958,203.95795,0.9488768,431.2845,207.22096,0.8368859,420.3574,212.96945,0.878834,422.55444,202.15674,0.76510304,475.46988,187.1859,0.9815356,470.4053,191.8605,0.9736028,462.16473,203.93394,0.9696054,473.93762,210.69034,0.9557308,484.63354,213.92918,0.93373305,510.03177,220.24063,0.91780525,1.18025977,1.00370727,0.07958912,0.61583312
73,2433.333333333333,432.4923,178.3689,0.44985238,432.83627,175.71826,0.4174651,431.86765,175.73964,0.12851405,434.31714,175.26129,0.7797249,437.57663,173.29752,0.2266447,440.1808,179.95822,0.97775763,448.49646,177.7025,0.96803844,434.6553,199.68483,0.9361725,439.45743,197.08046,0.8104776,421.8629,215.25284,0.8631373,416.4862,223.31787,0.7067229,485.26477,186.5172,0.98709005,492.14505,186.2488,0.9848327,454.9395,204.19513,0.9758009,480.54486,202.72557,0.9587406,475.5552,218.75786,0.9508916,512.00165,214.80318,0.9273256,1.11728709,0.98331869,0.02014293,0.53010286
74,2466.666666666667,428.65118,185.40906,0.56436306,428.5445,183.35832,0.63044864,428.79117,184.65556,0.16380538,433.09448,178.6461,0.8211327,433.7664,180.81238,0.123212315,441.68735,179.37064,0.9893218,445.40173,179.49728,0.8854957,438.41348,201.4494,0.98480123,446.8835,193.49826,0.6647963,420.87024,215.57915,0.95706874,443.7336,197.94041,0.6469986,473.7536,183.81,0.99148166,478.16208,185.555,0.9723074,450.18304,204.89648,0.9848142,473.95364,210.2195,0.95032597,471.18988,216.267,0.9591785,506.45047,220.58467,0.9164568,1.10328053,0.98405563,-0.10071463,0.48858878
75,2500.0,428.2864,184.90741,0.7673943,428.2913,182.16423,0.7980259,426.81726,184.13582,0.3501456,433.14996,177.57626,0.8656618,428.97174,181.89792,0.2060031,442.74292,179.96564,0.99349445,439.36618,182.84709,0.9361066,438.7006,203.71973,0.98782957,434.05838,201.47295,0.7441204,421.12405,216.05435,0.9633064,424.6155,210.80212,0.7057875,474.8051,182.42398,0.992392,474.19287,185.21661,0.976645,456.98032,206.19778,0.9845126,473.3531,209.51027,0.95117766,482.3498,217.91458,0.95562553,505.90964,217.0255,0.91232234,1.06794586,0.86884792,-0.20585088,0.58586437
76,2533.333333333333,422.8795,188.40685,0.84529775,423.29962,185.47678,0.8802148,421.13467,187.70232,0.45145053,430.504,180.86653,0.90379345,423.59302,185.76093,0.20922062,443.36615,183.37857,0.9948979,435.04517,185.98749,0.94106627,442.38995,206.30768,0.98997164,428.17416,201.9032,0.7462768,422.97626,215.77502,0.97018516,419.889,210.162,0.7190494,477.60797,182.7624,0.99207544,473.35992,185.47896,0.9742211,460.3225,206.44667,0.9822076,470.87982,210.22896,0.94066566,488.39975,216.2675,0.9456056,503.5487,216.23337,0.88972145,1.11247745,0.82905336,-0.34979911,0.65415381
77,2566.666666666667,437.91232,181.78973,0.88693976,436.9012,177.90848,0.72638285,434.62415,182.46353,0.8139324,437.01443,175.73647,0.56449944,430.16757,185.95328,0.72784597,445.4134,178.70027,0.9770972,432.00836,195.5002,0.9888228,448.53394,188.51398,0.9224654,425.04,213.94048,0.96105415,439.67328,194.93555,0.8753055,423.99078,213.769,0.9274865,473.83548,185.97041,0.981805,466.3021,195.86649,0.98704314,468.52893,200.74329,0.95981234,470.87506,213.7178,0.9695593,495.27777,212.10558,0.9090744,501.08438,222.10387,0.92451876,1.11038578,0.76788764,-0.51708365,0.61313102
78,2600.0,438.08237,183.28036,0.8714767,437.01343,179.39685,0.73990405,434.93082,183.63466,0.7499802,437.49683,176.61435,0.61659974,430.56427,185.92007,0.63544095,445.5248,180.52316,0.9826613,432.93134,193.29181,0.98406434,443.7539,197.99435,0.94872546,425.7052,212.64575,0.9419128,427.0691,208.30287,0.9037703,423.51965,214.28175,0.90335387,474.0559,186.22792,0.98493665,466.5102,194.43182,0.9854269,467.0819,201.69,0.9662479,470.00073,213.33978,0.9655297,496.00485,211.92426,0.920322,500.4134,220.41107,0.9205062,1.10754326,0.71826727,-0.62148296,0.56965177
79,2633.3333333333335,436.73096,184.74979,0.84543467,435.63635,180.91731,0.73370314,433.759,184.91176,0.67104846,436.6304,177.33292,0.6580982,430.32294,186.23183,0.54080707,445.29077,180.61493,0.9849473,433.28336,191.78334,0.97837317,442.18417,200.88571,0.960379,425.20593,212.02687,0.9208757,424.3736,211.20395,0.9180803,422.8224,213.64719,0.8775392,474.18118,185.05104,0.9863578,467.16925,192.48257,0.9835613,467.35614,202.32947,0.9691682,472.3576,212.47269,0.9610864,495.68228,211.98128,0.9241309,502.66983,218.2949,0.91399914,1.09742836,0.71777597,-0.53501577,0.63474782
80,2666.6666666666665,432.00247,186.91946,0.8136875,431.18222,183.38287,0.76147306,429.44675,186.8133,0.53586596,434.03543,179.02774,0.75683606,428.33173,186.82071,0.37031662,444.73358,181.57935,0.9890704,433.85464,189.85347,0.9647325,441.69305,204.43048,0.97590864,425.25067,209.96542,0.86814487,422.80914,213.70699,0.94211996,420.1541,212.48232,0.822288,475.12836,184.15424,0.98902285,469.0801,189.95932,0.9804786,465.9987,204.21628,0.9756039,473.65768,211.78395,0.95507663,493.19254,213.46484,0.9351697,503.72815,216.86382,0.9078488,1.11839943,0.70524806,-0.53108544,0.686579
81,2700.0,428.61615,186.5152,0.80306464,428.3989,183.47002,0.79941326,426.76404,186.06161,0.4488759,432.912,179.50737,0.8312055,427.63834,185.41125,0.26520053,444.2381,182.40517,0.99227154,434.11554,187.40565,0.95124143,441.557,205.35461,0.98475885,424.42126,205.39291,0.8115854,423.28876,214.40813,0.9583952,418.33203,210.87903,0.7694951,474.79132,183.98148,0.99117917,469.39285,188.24667,0.97827464,465.55997,205.06326,0.97995067,474.02475,210.48837,0.9495025,492.64078,213.95523,0.94299996,504.6491,215.48926,0.9020407,1.09680081,0.65832978,-0.52862899,0.7000895
82,2733.3333333333335,426.52167,187.51422,0.8249831,426.72488,184.79698,0.8576721,425.02295,186.80081,0.4219297,432.37735,179.84587,0.893265,427.08032,184.40079,0.212507,442.68173,181.34453,0.9949366,436.6629,184.35913,0.9400578,439.41147,203.0945,0.99045897,428.2468,199.90863,0.7460747,422.42664,214.80054,0.9704362,418.9085,208.10376,0.7152815,475.04077,182.03532,0.99304813,472.43527,185.19139,0.97666377,461.8818,205.29218,0.98447776,473.7728,209.43407,0.94675875,488.89282,214.73575,0.95322406,505.09677,214.95406,0.9026867,1.10539252,0.6703664,-0.50234492,0.72121501
83,2766.6666666666665,426.1619,186.0597,0.80937856,426.49246,183.51271,0.84975594,424.94357,185.17313,0.389748,432.39844,178.78804,0.89779687,427.84888,182.578,0.20186338,442.2915,180.83984,0.9949615,437.91418,182.62953,0.9375548,437.1402,203.45468,0.9901715,429.7546,198.73268,0.7302546,420.70483,214.51086,0.9685441,420.4554,205.85907,0.695282,474.26495,182.24197,0.99320495,472.95175,184.64317,0.97675073,460.39163,205.93698,0.98552006,475.0016,208.31102,0.9496156,485.11722,215.69357,0.9574092,506.1105,213.82245,0.9106789,1.12536289,0.70475677,-0.53010286,0.69910692
84,2800.0,426.9522,183.48717,0.7692357,427.33313,181.0983,0.81298256,426.00125,182.56032,0.3364901,433.21765,177.43637,0.8828049,429.45834,180.58678,0.18641494,443.17188,180.88326,0.99403137,439.42365,181.38937,0.9325325,437.90454,204.14174,0.98860556,431.41074,196.73592,0.72569364,420.4248,214.52313,0.96441376,422.0079,202.9789,0.6895289,474.39035,183.83755,0.9928778,473.6999,185.61444,0.976781,458.62323,206.10217,0.98560774,475.30643,208.18863,0.9524578,481.3869,216.65224,0.95913774,506.18945,215.16649,0.9169512,1.08146911,0.69050933,-0.40285852,0.72833873
85,2833.3333333333335,430.79688,179.41321,0.79034245,431.12256,176.54628,0.7639985,429.15033,178.97159,0.46297535,435.51086,174.93875,0.808286,430.30966,180.39874,0.30937704,444.94415,180.44414,0.9906502,435.6805,186.75146,0.9611932,438.57327,203.51192,0.97814137,424.96024,207.3261,0.84008473,421.57736,212.77353,0.942202,419.37274,208.33884,0.78377247,473.69656,185.91171,0.99075764,469.2922,190.63283,0.9814533,463.3114,204.23984,0.98138213,475.59033,209.8921,0.9618779,484.921,215.60504,0.9519785,506.26428,217.84784,0.9273002,1.07867735,0.72760179,-0.43135339,0.66938382
86,2866.6666666666665,430.6386,177.69247,0.7987548,431.16437,174.46666,0.7273018,429.20486,177.59358,0.56426394,434.90317,173.64447,0.76423633,430.40298,180.39436,0.4417042,445.14365,179.32613,0.984244,437.9524,189.48224,0.9707637,439.77463,198.3009,0.9483131,429.27,209.83351,0.87502277,424.6172,202.78453,0.8847715,419.13477,198.73105,0.8082938,476.10193,184.80048,0.983206,472.54083,190.6883,0.97873724,462.83035,201.46611,0.9716555,475.38528,207.97043,0.96309364,484.41306,213.38504,0.93449765,510.59802,218.1822,0.92497385,1.09384579,0.74381439,-0.40629756,0.69149191
87,2900.0,434.1809,175.95242,0.86917806,434.47452,172.84105,0.7806847,431.7975,176.68683,0.7368294,437.59488,172.43874,0.73258936,431.00266,181.49506,0.5777582,449.11768,174.25418,0.98170596,436.91913,194.40628,0.9806563,460.6497,174.27806,0.9267434,429.85138,212.32452,0.9120185,461.70627,171.82045,0.8640535,423.51294,194.62175,0.852703,475.96533,182.59607,0.9812336,471.86035,192.26663,0.98131883,460.6287,198.68037,0.9686928,477.022,209.16403,0.96771985,472.3059,212.86621,0.9295427,510.64127,220.5022,0.9296901,1.04426087,0.7027916,-0.40949095,0.65489074
88,2933.333333333333,435.78268,174.68094,0.8931506,436.15137,171.42096,0.7996346,433.13928,175.3596,0.7974238,438.78595,171.30588,0.7211429,431.54868,180.50954,0.6515271,449.60638,174.21506,0.9810167,436.86804,194.33289,0.9842972,461.41095,175.01305,0.91811746,430.91562,212.99857,0.9278902,463.01657,172.6701,0.85473937,423.394,199.16325,0.87313485,476.44965,183.8252,0.97885144,471.19324,193.74788,0.98140085,466.10156,199.53983,0.9627146,476.85358,210.13701,0.96597636,482.9223,212.7836,0.91813457,511.1621,220.9433,0.9243399,1.1231753,0.8027693,-0.43233597,0.65587332
89,2966.666666666667,436.22794,174.04985,0.8949709,436.59644,170.58846,0.7864309,433.46423,174.65926,0.8106844,438.29828,170.49323,0.68896186,430.59085,179.83928,0.67791146,448.48694,173.32652,0.97941774,433.8752,194.17377,0.98511434,461.4755,174.52647,0.9149949,428.28845,213.16014,0.93593127,464.87402,172.94333,0.8580476,425.76572,195.95795,0.88971156,476.21982,183.35957,0.9770445,469.2142,194.1679,0.9809372,468.6169,199.2131,0.9572485,474.15274,211.36826,0.9629015,489.61826,212.69714,0.90348727,510.7451,222.32507,0.91306573,1.10126908,0.70868709,-0.52150527,0.66226011
90,3000.0,437.50232,173.46158,0.8946648,437.9422,170.22188,0.77854043,434.68024,173.92752,0.7963789,439.96344,169.35153,0.6642615,431.5794,177.88239,0.6594859,448.67206,171.8326,0.9837907,432.39636,191.0538,0.9867176,459.81464,172.87152,0.94300705,426.6034,209.69614,0.94562167,462.46368,174.03232,0.8973729,423.92264,207.33144,0.9014642,473.12897,186.24712,0.98689425,465.04074,196.70537,0.987727,468.47733,200.48213,0.9725326,472.16162,212.62364,0.9733155,491.26007,213.60936,0.9367891,506.3135,222.95747,0.938992,1.11348555,0.78876751,-0.48613232,0.61755264
91,3033.333333333333,435.6043,173.5971,0.8043913,436.47864,170.79356,0.7266583,433.46844,173.43608,0.5782768,439.56195,170.96542,0.73504186,432.4451,176.67807,0.4513554,445.0507,178.10745,0.9847728,436.44327,186.19084,0.9707351,436.1792,198.23842,0.9559077,428.42584,205.37267,0.87807274,421.3124,209.39343,0.8977751,422.48227,206.9268,0.8090293,471.83652,187.52698,0.987412,467.28802,193.4249,0.9826303,464.3987,203.12386,0.97692525,473.25867,211.21945,0.9674231,487.81625,214.41823,0.9503448,505.98575,221.0859,0.93991333,1.09370304,0.70721322,-0.53968303,0.63622169
92,3066.666666666667,436.6775,174.78236,0.85314155,437.28873,171.82991,0.7368987,434.26276,174.83109,0.71367896,439.06976,171.42719,0.68681765,431.79016,178.21326,0.6021497,445.03055,176.42938,0.9830163,433.61188,189.1607,0.9829669,440.9528,189.27113,0.94219047,424.60083,208.54922,0.92852706,431.9118,197.801,0.8843362,421.6624,209.76657,0.8722294,471.54987,186.66534,0.9862351,465.88696,194.5388,0.98606074,464.66187,202.15503,0.97301316,473.12198,211.70734,0.9716101,485.33948,213.75299,0.9410692,505.7336,221.24506,0.9405175,1.12270073,0.71974114,-0.56621274,0.64948654
93,3100.0,435.73846,175.33762,0.8482593,436.0962,172.05832,0.7250799,433.36737,175.41916,0.7343505,436.66782,171.35385,0.6813872,430.33078,179.03772,0.63013995,444.48245,175.56992,0.9765629,434.60297,190.7115,0.98053694,446.5885,185.96097,0.90503234,426.68146,210.151,0.91562414,443.33884,191.03697,0.8268878,420.41995,201.28853,0.8512651,473.9078,183.97903,0.97577375,469.60535,192.276,0.9788719,462.5515,200.5721,0.95953894,473.1032,209.50021,0.9629351,482.7675,212.50606,0.91673446,509.4554,219.53354,0.9226646,1.114774,0.64088895,-0.61018327,0.67798141
94,3133.3333333333335,435.79535,175.42947,0.8666205,436.1195,172.06833,0.740298,433.12817,175.57465,0.7764654,436.57938,171.5867,0.6682373,429.52798,179.60501,0.67411935,444.68048,175.71724,0.9750182,432.78787,191.71783,0.98320997,448.36,185.25319,0.8945051,423.56885,210.88663,0.9279096,447.47226,187.18391,0.820194,421.61514,194.5389,0.87281495,474.72974,183.97568,0.97297996,469.22473,192.97522,0.9786765,464.86996,200.14886,0.9534361,473.46255,210.35255,0.96138215,483.55377,212.70595,0.9023909,508.69635,220.88391,0.91456175,1.12718071,0.63622169,-0.6465388,0.66913818
95,3166.6666666666665,435.80182,175.21585,0.8624203,436.1762,171.92674,0.7313538,433.09967,175.55898,0.77678365,437.20184,171.7356,0.64210355,429.68127,179.96518,0.6653304,446.30188,175.4071,0.9708114,432.35333,192.22957,0.98192066,454.25165,182.42023,0.88014656,423.77762,209.89346,0.9263287,456.037,184.40076,0.80531746,422.0139,192.34268,0.8710305,474.56686,184.58014,0.9712195,468.0294,193.95517,0.9781186,465.2478,199.01888,0.9528235,472.7806,210.10493,0.962502,483.10757,211.76852,0.9062753,508.18707,221.16379,0.9200261,1.11648103,0.62320248,-0.62271119,0.68584207
96,3200.0,436.64453,174.81332,0.8854061,436.88565,171.39375,0.7520964,433.72327,175.31062,0.81780225,437.7605,171.20288,0.6252569,429.71777,180.02376,0.7053702,447.58112,174.51118,0.97208166,430.90118,192.99391,0.9850831,460.23,179.29749,0.8842498,423.39572,210.62572,0.9408001,464.83966,181.9218,0.81897295,423.4189,193.10365,0.8945711,474.442,185.15074,0.9726897,465.99142,195.42957,0.9805274,468.4281,198.32819,0.9521624,471.3223,210.46219,0.96436334,488.82748,211.21658,0.90301454,507.44858,221.27264,0.92035025,1.10931365,0.63990637,-0.5546674,0.71654775
97,3233.3333333333335,436.62415,174.62442,0.8773107,437.00864,171.38417,0.7426551,433.805,175.05232,0.8063089,438.2331,171.67157,0.6157678,430.03162,179.88226,0.68742,448.31802,175.70781,0.9693318,431.17554,192.75732,0.98311424,462.13345,181.26588,0.8743503,423.9998,209.72173,0.9341381,467.7672,184.05682,0.8049053,423.01495,193.62056,0.8835915,474.1613,186.25836,0.9703648,465.5238,195.8457,0.9786453,468.23865,198.78253,0.95008284,471.08478,210.03174,0.9625583,488.14352,211.44156,0.9029996,507.02316,220.9657,0.9200715,1.12859992,0.61485054,-0.60551601,0.72735615
98,3266.6666666666665,436.8281,174.90778,0.8724695,437.15353,171.69994,0.7335062,434.13425,175.23282,0.79875416,437.895,172.01039,0.61412925,430.27036,179.88855,0.68691367,447.19836,176.40988,0.96960235,431.46985,192.30026,0.9829185,457.78223,183.62984,0.87753314,424.55902,209.58104,0.9340235,460.98514,186.59128,0.80554104,422.20987,195.98225,0.88206625,473.5971,186.80855,0.9712881,465.17303,195.86513,0.9791885,469.02985,199.45224,0.95161986,469.51602,209.63008,0.96341795,491.79095,211.87778,0.9067989,505.29117,220.32568,0.92297196,1.11141054,0.61116585,-0.58684696,0.71924985
99,3300.0,436.6503,175.72397,0.86645514,437.0756,172.38437,0.7320083,434.00797,175.89513,0.7848545,438.03033,172.15201,0.6320516,430.4208,179.92984,0.6764177,446.59943,176.67087,0.97048426,432.82465,191.74918,0.9825684,452.03818,186.83452,0.88126564,425.47293,210.21428,0.9310525,450.69012,191.37643,0.8051306,421.36066,198.17278,0.8763769,474.5903,186.45944,0.97131056,467.0886,195.12616,0.9788103,468.1514,199.9938,0.9518371,470.3355,209.98291,0.9627784,490.80566,212.31984,0.90647846,505.86047,220.94281,0.9217413,1.1071458,0.63474782,-0.54336771,0.72637356
