frame_id,timestamp_ms,nose_x,nose_y,nose_conf,left_eye_x,left_eye_y,left_eye_conf,right_eye_x,right_eye_y,right_eye_conf,left_ear_x,left_ear_y,left_ear_conf,right_ear_x,right_ear_y,right_ear_conf,left_shoulder_x,left_shoulder_y,left_shoulder_conf,right_shoulder_x,right_shoulder_y,right_shoulder_conf,left_elbow_x,left_elbow_y,left_elbow_conf,right_elbow_x,right_elbow_y,right_elbow_conf,left_wrist_x,left_wrist_y,left_wrist_conf,right_wrist_x,right_wrist_y,right_wrist_conf,left_hip_x,left_hip_y,left_hip_conf,right_hip_x,right_hip_y,right_hip_conf,left_knee_x,left_knee_y,left_knee_conf,right_knee_x,right_knee_y,right_knee_conf,left_ankle_x,left_ankle_y,left_ankle_conf,right_ankle_x,right_ankle_y,right_ankle_conf,acc_x,acc_y,acc_z,acc_mag
0,0.0,490.32648,97.369385,0.9353715,492.47818,95.27617,0.89538234,488.36816,95.20555,0.86614954,496.09735,96.171524,0.72500205,485.41898,96.03514,0.59826964,500.9733,108.076515,0.9901586,481.41913,108.14993,0.9912924,505.54526,123.20157,0.95286167,476.246,123.008835,0.94734734,504.73206,136.16837,0.9260553,475.4234,136.71823,0.9167039,497.5814,137.23697,0.99257636,485.68506,137.30606,0.99307466,496.50772,160.54785,0.98409176,487.20172,160.43983,0.9829655,495.9391,182.31647,0.96465,489.66086,181.87628,0.9622691,0.98568391,-0.43233597,0.84452902,0.26726224
1,33.333333333333336,490.31143,97.30438,0.9356369,492.44516,95.20523,0.8957782,488.34082,95.149666,0.8666716,496.0496,96.07985,0.72519785,485.38187,95.984085,0.5986516,500.94,107.977615,0.9901333,481.44162,108.108154,0.9912742,505.5525,123.07721,0.95272064,476.3211,122.97424,0.9471942,504.7068,136.0553,0.9259019,475.51254,136.66245,0.9165217,497.62482,137.22464,0.99253196,485.75778,137.3201,0.9930355,496.50357,160.6283,0.98401225,487.18033,160.54681,0.98288083,495.93732,182.46477,0.9644211,489.59366,182.06534,0.96203053,1.0384753,-0.45395277,0.88923649,0.28568565
2,66.66666666666667,490.17422,97.33748,0.93555623,492.316,95.22615,0.8966775,488.19904,95.18209,0.8657252,495.97595,96.07988,0.7282195,485.27808,96.020676,0.5940318,500.9271,107.97806,0.99001443,481.4121,108.15448,0.991055,505.5108,123.11139,0.95235914,476.28793,123.0849,0.94570804,504.5658,136.12039,0.9252843,475.52902,136.84738,0.91457486,497.6598,137.241,0.9923045,485.76562,137.347,0.9927752,496.55814,160.71933,0.9835043,487.09003,160.64282,0.98221254,495.9359,182.55254,0.96331835,489.39044,182.15108,0.9606636,1.03135495,-0.45640923,0.87891938,0.28789646
3,100.0,490.04044,97.351036,0.9347232,492.16876,95.24658,0.8962647,488.0838,95.20417,0.86265075,495.8156,96.10933,0.7305202,485.18716,96.048294,0.58704364,500.80765,108.01016,0.9901366,481.3085,108.18475,0.99091876,505.43082,123.18794,0.9537188,476.2981,123.12242,0.94478935,504.64993,136.30144,0.9270429,475.76532,136.76266,0.9137008,497.64706,137.33925,0.99246746,485.76224,137.45811,0.9928215,496.63583,160.91982,0.98395663,487.17245,160.8589,0.9824263,496.17056,182.92374,0.9641293,489.63354,182.53284,0.96108186,0.98566894,-0.46549811,0.8211927,0.28372048
4,133.33333333333334,489.88965,97.44355,0.93582124,492.02005,95.3284,0.8979909,487.93076,95.293564,0.8636971,495.69794,96.14288,0.7336414,485.06488,96.09958,0.5871411,500.75272,108.001724,0.9906122,481.2034,108.20566,0.99135065,505.4726,123.23297,0.9563065,476.32794,123.18045,0.9473379,504.96118,136.53342,0.9309318,475.91623,136.7758,0.91757154,497.7063,137.37996,0.99306893,485.80045,137.52722,0.99339443,496.8073,161.07918,0.9853329,487.35416,161.04608,0.98390204,496.35757,183.25803,0.9669065,489.85812,182.89523,0.9640399,1.01154818,-0.41882547,0.87916503,0.27364902
5,166.66666666666666,489.89175,97.388626,0.93496066,492.05112,95.27104,0.89877987,487.95407,95.219284,0.8592475,495.78394,96.08835,0.7396844,485.12888,96.0009,0.5739516,500.83084,108.028015,0.99064684,481.2669,108.13475,0.9909485,505.52814,123.44452,0.9574245,476.3903,123.126144,0.944424,505.16235,137.09595,0.9322142,475.87714,136.82042,0.9142291,497.684,137.58002,0.99303997,485.79987,137.68938,0.9931821,496.78708,161.3612,0.98532385,487.5831,161.29715,0.98342556,496.5168,183.56812,0.96675324,490.37677,183.14336,0.96309984,0.95965817,-0.40408675,0.84379208,0.21371153
6,200.0,489.92062,97.407455,0.9358179,492.11234,95.28701,0.9005508,487.9814,95.21726,0.85995007,495.88507,96.108925,0.74325764,485.14627,95.97565,0.5725817,500.8913,108.09076,0.9908715,481.23572,108.12984,0.99104637,505.58105,123.56134,0.95870745,476.33994,123.1163,0.9447353,505.33337,137.23505,0.93402475,475.77908,136.74432,0.914919,497.59845,137.76163,0.9931861,485.66696,137.84326,0.9932742,496.76093,161.54411,0.9855253,487.63187,161.45851,0.9835186,496.42694,183.71439,0.96696645,490.40338,183.25427,0.96311915,0.96669112,-0.48711491,0.79343477,0.26013852
7,233.33333333333334,489.95145,97.42121,0.9374651,492.18893,95.30597,0.9051313,488.02377,95.20579,0.85989475,496.02957,96.09744,0.7548551,485.21008,95.89558,0.5636113,501.06296,108.027504,0.99135256,481.2392,107.99127,0.99110985,505.7676,123.478424,0.9617765,476.26907,122.98483,0.9442629,505.52753,136.96179,0.93831086,475.72174,136.55382,0.9150538,497.5888,137.7712,0.9934871,485.56403,137.80692,0.9933947,496.7799,161.7037,0.98608136,487.65656,161.56882,0.98366076,496.40836,184.01932,0.96770287,490.4595,183.47475,0.9631304,1.05907378,-0.41710596,0.90987071,0.34611442
8,266.6666666666667,490.03357,97.41498,0.93968695,492.29764,95.3024,0.9101747,488.10797,95.18259,0.86105907,496.18323,96.03587,0.7666693,485.30157,95.79599,0.5567281,501.27634,107.887245,0.99193794,481.3209,107.80725,0.99136645,506.03693,123.30281,0.965217,476.38098,122.75217,0.9450731,505.67203,136.61664,0.94332147,475.77155,136.15518,0.91699994,497.67343,137.73235,0.99390656,485.57928,137.73819,0.9936719,496.83334,161.8163,0.9868476,487.75293,161.6506,0.9841235,496.40897,184.25838,0.9688107,490.5878,183.66307,0.9636665,1.00025707,-0.25006706,0.87277825,0.41980806
9,300.0,490.5077,97.478424,0.9407132,492.74493,95.35959,0.90951985,488.53052,95.23647,0.86596847,496.5137,96.06603,0.7595972,485.5603,95.80231,0.57050705,501.47302,107.881516,0.9918473,481.42,107.78461,0.9915734,506.1306,123.408264,0.96424526,476.4645,122.92136,0.9467784,505.86435,136.7024,0.9420727,475.93994,136.42282,0.91873014,497.76672,137.7001,0.9937564,485.61014,137.70914,0.99363697,496.86307,161.99918,0.9862975,487.7703,161.84444,0.9838088,496.2832,184.54471,0.96719146,490.50592,183.99619,0.96239793,0.94301211,-0.21322024,0.84305515,0.36478348
10,333.3333333333333,491.0844,97.47345,0.9422785,493.27762,95.34506,0.9069443,489.03076,95.22569,0.87505585,496.8645,96.07429,0.7429252,485.81577,95.796234,0.60038257,501.61163,107.92576,0.9916169,481.47168,107.841675,0.9921336,506.12158,123.6127,0.9615537,476.49954,123.237686,0.9512443,505.8526,136.83635,0.93867004,476.04477,136.85477,0.9235402,497.9308,137.74886,0.99353325,485.7268,137.79819,0.99374795,496.96454,162.30014,0.9854617,488.09598,162.19731,0.9837812,496.1757,185.0143,0.9648487,490.84604,184.58095,0.96138877,1.03822009,-0.3930327,0.88113019,0.38345253
11,366.66666666666663,491.71088,97.29706,0.9437878,493.8766,95.15025,0.9059017,489.59213,95.04152,0.88246554,497.3382,95.884995,0.73132473,486.18195,95.6212,0.6229335,501.9745,107.78525,0.9915971,481.68573,107.750046,0.99271375,506.40247,123.49678,0.96018994,476.66635,123.28749,0.9554788,506.33475,136.85483,0.9372486,476.21576,137.17036,0.9286166,498.32397,137.6892,0.99366814,486.0087,137.77002,0.9941367,497.24158,162.25989,0.98565686,488.11224,162.18849,0.98469454,496.15152,185.0273,0.96540135,490.50104,184.68076,0.96322984,0.93440561,-0.42226451,0.77157233,0.31540874
12,400.0,492.30444,97.10344,0.9462486,494.45163,94.94086,0.90646076,490.1168,94.84685,0.8915336,497.7849,95.77544,0.7219182,486.49533,95.53289,0.64890814,502.28293,107.82136,0.99166965,481.85983,107.856186,0.993324,506.61667,123.57378,0.95883185,476.88232,123.54762,0.9593945,506.74698,136.9138,0.93576527,476.56226,137.44751,0.9333137,498.76907,137.68805,0.9937325,486.33566,137.81558,0.9944441,497.54837,162.25804,0.9856037,488.11993,162.23203,0.9853151,496.30215,185.0744,0.9653598,490.32568,184.8367,0.9643987,0.97467795,-0.44584647,0.82807078,0.25596255
13,433.33333333333337,492.78525,96.6642,0.9468159,494.82028,94.44954,0.90854126,490.59998,94.46988,0.9004875,498.04675,95.05086,0.71893966,486.90527,94.96666,0.693822,502.12228,106.86611,0.9924608,482.5118,106.921,0.9944143,506.80316,122.85687,0.9481801,478.05374,123.349396,0.9507487,507.69965,137.47249,0.9087518,476.3497,137.85506,0.9058664,498.2962,137.70265,0.99306244,486.31198,137.7161,0.99398416,497.99823,162.73888,0.9787668,487.47662,162.59158,0.9789819,496.60248,186.83443,0.9505545,490.16528,186.6615,0.95109594,0.91422675,-0.4146495,0.79024138,0.19848152
14,466.6666666666667,493.1153,96.37738,0.9473015,495.1281,94.180664,0.9087581,490.94986,94.196945,0.90113306,498.31985,94.827545,0.7192116,487.26993,94.728096,0.6960552,502.41388,106.735535,0.99266475,482.76303,106.73746,0.99456894,507.1031,122.80203,0.9494459,478.20676,123.16046,0.95198864,508.07977,137.56264,0.91050696,476.59225,137.68874,0.9076855,498.4028,137.72972,0.9932555,486.40808,137.71527,0.9941478,498.1232,162.83336,0.97901356,487.6523,162.66666,0.97923607,496.5332,186.9845,0.9504623,490.24063,186.79941,0.9510476,0.93642996,-0.4416705,0.81456028,0.13535064
15,500.0,493.40128,95.969505,0.9492361,495.46396,93.76149,0.91283494,491.2326,93.74134,0.9029481,498.7184,94.38487,0.72793084,487.50958,94.19276,0.6938471,502.7921,106.366745,0.99310327,482.8666,106.21059,0.9947702,507.49374,122.68576,0.9533472,478.26544,122.68056,0.953501,508.3524,137.73816,0.9165066,476.6191,137.28734,0.91062844,498.49084,137.71362,0.9935371,486.30014,137.62573,0.9943104,498.3344,162.959,0.9791682,487.58493,162.728,0.9790507,496.7038,187.07251,0.9494534,490.1067,186.81041,0.9494806,0.98447258,-0.45051374,0.8644263,0.13780709
16,533.3333333333334,493.80908,96.37906,0.950023,495.98822,94.2417,0.91047347,491.6204,94.08905,0.900543,499.2234,95.21057,0.7231283,487.88995,94.80182,0.67139673,503.7367,107.61679,0.99229866,482.91254,107.26469,0.9942372,507.93024,123.80209,0.96072346,477.74243,122.784134,0.96506584,507.61172,136.87177,0.93854076,477.47827,135.89636,0.94087034,499.7105,137.97923,0.99423426,487.0013,137.90605,0.99507564,498.08813,162.81216,0.9860021,488.31265,162.58678,0.9862336,496.6182,185.68932,0.96497536,490.35013,185.23747,0.9649788,0.97442645,-0.46967408,0.83249239,0.18939263
17,566.6666666666666,493.47522,95.63278,0.95116365,495.88092,93.491646,0.9189552,491.35825,93.285385,0.89670336,499.4606,94.69238,0.7553758,487.8895,94.19231,0.64385223,504.12222,107.55917,0.9927785,482.9651,107.068695,0.9939249,508.2941,124.07097,0.96466964,477.88657,122.644745,0.9615848,507.48154,137.36058,0.9433727,477.43542,135.84796,0.9366901,499.6543,138.1219,0.9942484,486.69376,137.93808,0.9947633,497.99026,162.86624,0.9858596,487.89633,162.50552,0.98506874,496.87152,185.58517,0.9644141,490.39175,184.88959,0.96249765,0.95322779,-0.40187594,0.83568579,0.22083525
18,600.0,493.4021,94.9863,0.95227635,495.90228,92.84918,0.92382324,491.32672,92.62486,0.8958909,499.62372,94.229065,0.77188295,487.99496,93.698425,0.63133913,504.3881,107.39868,0.9931954,483.0463,106.84407,0.9938905,508.69717,124.03082,0.96744746,477.94162,122.37767,0.9604173,508.08774,137.54466,0.947007,477.37128,135.52911,0.9355726,499.5905,137.93489,0.99450123,486.47632,137.69235,0.9948131,498.0682,162.54991,0.9864894,487.51343,162.12943,0.9851644,496.91574,185.29657,0.9660622,489.8658,184.50952,0.96319234,0.95489624,-0.35520331,0.86295243,0.20241184
19,633.3333333333333,493.64783,94.51342,0.95157146,496.10965,92.370865,0.92108047,491.57138,92.159546,0.8967254,499.788,93.74899,0.76237154,488.21527,93.24156,0.6390053,504.57092,107.0323,0.9928953,483.2175,106.49058,0.9938778,508.83942,123.765335,0.96516997,477.9515,122.21243,0.96073633,508.27762,137.35826,0.9436974,477.09937,135.78362,0.9353564,499.66803,137.84506,0.99435496,486.56683,137.59372,0.99479127,498.0961,162.46906,0.98625654,487.50034,162.03658,0.9852787,496.92175,185.31218,0.9658581,489.84027,184.52664,0.9636283,1.17558621,-0.48858878,1.04644957,0.21960702
20,666.6666666666666,493.82443,94.05122,0.9513832,496.18036,91.79424,0.9187991,491.64508,91.68773,0.90540683,499.8401,92.82542,0.74129236,488.01517,92.43705,0.6869022,503.88315,105.6364,0.99340844,483.15887,105.21971,0.9950118,508.60452,122.41835,0.95546126,478.35745,122.028595,0.9548617,509.1973,137.65472,0.92008317,476.46033,137.29791,0.912991,498.93243,137.30728,0.99392337,486.04718,137.04308,0.99465007,498.82394,162.22255,0.98103344,486.15903,161.78107,0.9807772,497.56348,186.1644,0.95494145,488.2689,185.61867,0.9546613,1.20121238,-0.3638009,1.07494444,0.39376964
21,700.0,493.76984,93.99516,0.9516746,496.16992,91.71856,0.92080986,491.58777,91.6026,0.90435946,499.93173,92.67598,0.7477259,487.99323,92.27432,0.67798305,504.03156,105.40457,0.99363977,483.22488,104.9407,0.99506205,508.9905,122.213135,0.9577938,478.3874,121.66295,0.95499337,509.7156,137.33719,0.9241403,476.09192,136.68306,0.91416365,498.88535,137.0062,0.9944636,485.94855,136.70097,0.9950564,498.81946,162.18823,0.9834188,486.00992,161.70953,0.9828812,497.7363,186.69829,0.9609701,488.11102,186.1011,0.9601652,1.19160438,-0.55540434,0.97545804,0.39991078
22,733.3333333333333,493.71515,94.02338,0.952266,496.15482,91.72412,0.9217271,491.51108,91.60539,0.9059233,499.99194,92.62393,0.7463735,487.90244,92.218666,0.67886615,503.99127,105.289665,0.99363434,483.22235,104.80556,0.9951338,509.04056,122.1308,0.95781523,478.39847,121.46451,0.95593417,510.1734,137.28857,0.9246576,475.7513,136.22772,0.9159846,498.7281,136.92993,0.9946367,485.79144,136.61359,0.9952566,498.71027,162.37488,0.98423684,485.72766,161.89745,0.9838604,497.7823,187.29584,0.9632576,487.55795,186.70953,0.9627185,1.02644483,-0.50995993,0.8590221,0.23581962
23,766.6666666666667,493.674,93.83818,0.95423716,496.12823,91.53294,0.9253322,491.4626,91.42052,0.908689,500.03113,92.38463,0.7535111,487.88223,92.00983,0.6799538,504.11142,105.00787,0.9939645,483.21768,104.566505,0.9953695,509.28268,121.79338,0.9604142,478.21173,121.20131,0.9580503,510.51993,137.02899,0.92893285,475.2385,136.10803,0.9197796,498.735,136.84648,0.9948639,485.73312,136.53311,0.99544746,498.8046,162.4513,0.98444194,485.7898,161.97855,0.9840041,497.7096,187.49554,0.96292776,487.44846,186.91801,0.9622883,0.99953975,-0.30509164,0.91650314,0.25694513
24,800.0,494.1669,93.48862,0.95648885,496.562,91.1716,0.92439884,491.85034,91.08186,0.91700643,500.263,92.091736,0.73674375,487.99942,91.75289,0.70971024,504.12915,104.84256,0.9939911,483.16043,104.477905,0.99585634,509.3901,121.58858,0.9588139,478.00345,121.18741,0.9633509,511.09494,137.01941,0.92710036,475.08514,136.20505,0.92754966,498.80875,137.14883,0.99485886,485.8009,136.90237,0.9957027,498.56735,163.00226,0.9835067,486.03198,162.61938,0.98408014,496.85623,188.10527,0.9597886,487.3192,187.709,0.96099585,1.03961135,-0.22009831,0.83765095,0.57505597
25,833.3333333333334,494.15173,93.41348,0.9581421,496.55466,91.07816,0.9262556,491.7828,90.99341,0.92089355,500.2441,91.98476,0.73557633,487.84503,91.66417,0.7183747,504.0265,104.70493,0.99408865,483.0568,104.4002,0.99605894,509.35815,121.45033,0.95937544,477.8973,121.269,0.9656033,511.24338,136.99883,0.9283215,474.63663,136.68271,0.93121076,498.72748,136.96985,0.99483454,485.69537,136.74469,0.9957628,498.4914,162.86328,0.9829406,485.80035,162.49994,0.98383236,496.78867,187.8591,0.9578431,486.8716,187.51015,0.959661,0.89823284,-0.25719078,0.62443071,0.59225115
26,866.6666666666667,493.93033,93.43158,0.9600244,496.36807,91.07709,0.92924297,491.52744,90.99437,0.92481804,500.15936,91.95795,0.7374363,487.5897,91.65601,0.72419506,503.93176,104.675964,0.9941565,482.9204,104.40963,0.9962096,509.38855,121.49344,0.9597605,477.86227,121.48042,0.96732974,511.30087,137.01045,0.9290961,474.53168,137.06851,0.9339317,498.5134,137.39606,0.9947173,485.33755,137.14949,0.9957396,498.29266,163.68597,0.9816316,484.7467,163.29819,0.9828818,496.6882,188.89012,0.9538153,485.17712,188.53436,0.95638055,0.89585359,-0.3367799,0.61116585,0.56179112
27,900.0,493.8341,93.94728,0.9605545,496.0867,91.69704,0.92849684,491.5008,91.628784,0.92029506,499.667,92.4303,0.74537164,487.911,92.31123,0.69261545,504.6696,105.14609,0.99372417,483.15753,105.13306,0.99576664,509.62982,121.51216,0.9678707,477.44022,121.339005,0.9748557,510.8835,135.39066,0.9497337,475.12537,136.17044,0.95561814,499.3528,137.05078,0.9957035,485.99976,136.94019,0.9965403,498.53238,163.36694,0.98934096,485.36606,163.06972,0.99000555,496.0578,188.2171,0.9719396,484.0614,187.77107,0.9729689,0.94162885,-0.30238954,0.740621,0.49669508
28,933.3333333333334,493.46408,94.186676,0.9618556,495.76215,91.9133,0.93163985,491.11517,91.8475,0.92170423,499.4901,92.53285,0.75314826,487.608,92.43756,0.6898728,504.5751,105.12143,0.9939985,483.05328,105.116425,0.9959579,509.53375,121.441315,0.9696407,477.52768,121.2486,0.9760423,510.85992,135.38832,0.95246404,475.0618,136.0722,0.9577354,499.24512,136.99307,0.99594206,485.81583,136.85396,0.9967399,498.49948,163.16666,0.9898803,484.57285,162.82162,0.9905007,496.1456,187.85599,0.97328365,482.78485,187.33943,0.97425437,0.97013293,-0.24269769,0.83765095,0.42496661
29,966.6666666666666,492.91522,94.158844,0.96114993,495.23514,91.850006,0.93179476,490.55722,91.806694,0.91906613,499.1103,92.36669,0.7567306,487.16116,92.34691,0.67850435,504.5128,104.92985,0.99385947,482.7795,104.989685,0.9957384,509.77872,121.39078,0.9692085,477.46658,121.17442,0.97462434,510.78455,135.48523,0.9516247,475.0687,135.85486,0.9556703,499.21063,136.98834,0.99583757,485.6192,136.85956,0.99660647,498.59567,163.29082,0.9897629,484.28555,162.94693,0.99025893,496.30713,188.11696,0.9730926,482.4628,187.5769,0.9738119,0.88358204,-0.2210809,0.740621,0.42816
30,1000.0,492.3521,93.747635,0.96349484,494.91675,91.39589,0.9333371,489.9275,91.29518,0.92583597,498.89938,91.95889,0.7644139,486.42715,91.70984,0.7208124,503.97562,104.57881,0.994921,481.64536,104.62935,0.9967154,510.0125,121.20134,0.9669161,477.37143,121.36273,0.9752025,511.26837,136.7162,0.94406396,474.7184,137.11029,0.95179963,498.77307,137.13934,0.995598,484.70175,137.0847,0.9965906,498.31683,163.09523,0.9857076,483.94348,162.88644,0.9871523,496.21622,187.64532,0.96013695,482.9536,187.30058,0.96280056,0.90594804,-0.20953556,0.75929005,0.44756599
31,1033.3333333333335,492.13232,93.49843,0.96226263,494.66064,91.11627,0.9302254,489.65695,91.06063,0.9255135,498.54608,91.76022,0.75510365,486.01315,91.623566,0.72654,503.76367,104.55315,0.99457645,481.05762,104.90446,0.99652547,509.86722,121.1113,0.96365064,476.7886,122.06186,0.9736452,510.99792,136.31808,0.93846226,474.2151,137.9497,0.948311,498.8304,137.37665,0.99516135,484.4935,137.46758,0.99627113,498.3151,163.2878,0.9841458,483.47107,163.22253,0.98587835,496.19626,187.687,0.9563036,482.54645,187.53796,0.95948976,0.97421696,-0.16310857,0.82979029,0.48367587
32,1066.6666666666667,491.99017,93.440414,0.9608684,494.52924,91.038765,0.9277657,489.48047,90.99382,0.9238497,498.37946,91.76065,0.7493992,485.74387,91.651505,0.724779,503.5801,104.705086,0.994132,480.72913,105.15611,0.99617684,509.6718,121.30191,0.9601452,476.43256,122.5385,0.97084755,510.72144,136.14651,0.93249846,473.75626,138.25311,0.94304067,498.6343,137.65883,0.99448484,484.19046,137.7983,0.9957104,498.0987,163.50006,0.9817676,483.14728,163.491,0.9836817,496.0125,187.62943,0.950328,482.24072,187.54662,0.95377016,0.98918872,-0.21665928,0.84084434,0.47385005
33,1100.0,491.54672,93.38788,0.961027,494.12305,90.99053,0.9301922,489.08386,90.91721,0.9216727,498.06137,91.622055,0.7607832,485.44028,91.449715,0.7105082,503.37436,104.50097,0.99433786,480.3236,104.88057,0.99607444,509.5738,121.08461,0.9625974,475.8063,122.32616,0.9695423,510.37683,135.85783,0.935938,473.35657,138.37727,0.94137555,498.2467,137.77182,0.99471694,483.62766,137.85191,0.99574345,497.82822,163.8219,0.9826444,482.2193,163.7369,0.9838365,496.02524,188.26483,0.95246434,481.3608,188.0619,0.95444536,0.99250759,-0.22304606,0.84772241,0.46549811
34,1133.3333333333333,491.15762,93.430534,0.9611429,493.78387,91.046326,0.9314901,488.75067,90.91727,0.91996896,497.78424,91.56306,0.76774937,485.1787,91.25888,0.70096505,503.11984,104.35088,0.9944089,479.92267,104.58981,0.99595684,509.38876,120.95076,0.9638546,475.3234,122.156784,0.9684216,509.80157,135.45035,0.93777066,472.90515,138.58707,0.93991184,497.72516,138.01114,0.9946075,483.07324,138.02142,0.9955474,497.4349,164.1015,0.9818788,482.28143,163.92917,0.9826943,495.91086,188.50238,0.94951373,482.1505,188.14293,0.9506997,1.0866965,-0.29649405,0.92608331,0.48514974
35,1166.6666666666667,490.46606,93.20547,0.9589499,493.09943,90.80786,0.9292576,488.10098,90.68307,0.9141718,497.1738,91.24352,0.7693887,484.62253,90.958664,0.6843555,502.68332,104.02467,0.9941757,479.358,104.339645,0.99560165,508.86835,120.70198,0.96270126,474.70242,122.23773,0.9652231,508.72122,134.86772,0.9355718,472.70493,138.96703,0.93471485,497.45645,138.0764,0.99452186,482.69302,138.09991,0.9953662,496.9997,164.27968,0.9823116,481.43372,164.09047,0.9826476,496.02832,189.06738,0.9515685,481.7787,188.64572,0.95172197,1.16408453,-0.34169281,0.98945983,0.509223
36,1200.0,490.19815,92.78275,0.9587639,492.80695,90.40205,0.92600733,487.8393,90.239586,0.91626614,496.75974,90.89997,0.7548014,484.23492,90.49588,0.6972559,502.04712,103.813065,0.9939803,478.79636,104.04286,0.99569714,508.41077,120.47069,0.96051306,474.08707,122.10889,0.9665748,508.57623,134.4943,0.9326165,472.10635,139.16895,0.93639934,497.0078,138.26901,0.99447,482.30328,138.30392,0.9954594,496.662,164.59657,0.98205054,481.38943,164.42462,0.9829609,496.3085,189.39731,0.95101255,482.21674,188.9988,0.95226586,0.69345716,-0.19184909,0.47876296,0.46353294
37,1233.3333333333335,489.26596,91.43658,0.9597585,491.86893,89.07338,0.92859954,486.9432,88.9224,0.9158103,495.8512,89.737175,0.7627751,483.4004,89.35436,0.68894833,501.2567,102.911415,0.99441385,477.85974,103.092255,0.9958311,507.93542,119.76324,0.96461403,472.89258,120.99121,0.96757364,508.69366,134.17834,0.9390782,471.5018,137.59451,0.9390062,496.55844,137.64221,0.99506253,481.77762,137.70557,0.99585366,496.60107,164.36684,0.9840285,481.39862,164.2284,0.98443836,496.9063,189.72816,0.9556573,482.93884,189.34856,0.9559251,0.34651605,-0.06706121,0.26013852,0.21887009
38,1266.6666666666665,488.5835,91.12286,0.96159416,491.23102,88.75369,0.932819,486.30215,88.61942,0.9175614,495.3822,89.315956,0.7732403,482.96677,88.9905,0.6847952,500.7189,102.35321,0.9946807,477.57922,102.628586,0.99596775,507.33392,119.21277,0.96693724,472.58966,120.52182,0.96857053,508.79904,134.30072,0.9428488,471.28824,137.50664,0.9411321,496.2366,137.12277,0.9952449,481.6227,137.25838,0.995977,496.66037,164.18884,0.98444474,481.62988,164.11557,0.9846978,497.12717,189.76642,0.95612484,483.1525,189.43007,0.9560992,0.67904909,-0.17661907,0.57603856,0.31319794
39,1300.0,488.12375,91.17142,0.9639758,490.74234,88.72144,0.9367222,485.77463,88.64989,0.921644,494.9831,88.905304,0.7770898,482.40826,88.74063,0.687305,500.34445,101.63151,0.99496317,477.14355,102.07457,0.9962664,506.85773,118.74308,0.9693012,471.87054,120.07843,0.97128683,508.61148,134.38889,0.94708204,470.1599,137.08328,0.9461063,496.15363,136.7048,0.9955531,481.51242,136.95607,0.99628264,496.75253,164.12418,0.98518825,481.56934,164.18661,0.98551756,497.2268,189.87094,0.9570896,482.85052,189.71039,0.9572469,0.67524209,-0.22255477,0.51241639,0.37927656
40,1333.3333333333333,487.86823,90.5461,0.9663453,490.4798,88.08708,0.93825126,485.4676,88.04849,0.92899156,494.71237,88.492874,0.7704622,482.0403,88.39478,0.71166694,499.8916,101.6367,0.99505013,476.88174,102.07051,0.99667776,506.33118,118.965576,0.9685734,471.32495,119.97014,0.97494894,508.36896,134.772,0.9464381,469.38492,136.63562,0.9516132,495.9393,136.94586,0.99553114,481.40042,137.22324,0.99646986,496.60403,164.34457,0.984365,481.47363,164.44672,0.98557615,497.11874,189.84137,0.9541846,482.56018,189.76715,0.9562394,0.5391566,-0.25768207,0.44461825,0.16310857
41,1366.6666666666667,487.4529,90.72197,0.9676875,490.0138,88.25012,0.9402455,485.02902,88.21013,0.9312046,494.2363,88.434555,0.7717407,481.588,88.33229,0.7129219,499.55292,101.46614,0.9951316,476.4805,101.76308,0.9968148,506.10095,119.165405,0.96917254,470.43057,119.73474,0.97623,507.79343,135.63733,0.94747335,467.40424,137.16803,0.9537664,495.40442,137.098,0.9955675,480.9289,137.29503,0.9965448,495.90414,164.98741,0.98400855,481.30554,165.02238,0.9853896,496.39734,191.01073,0.9519824,482.6053,190.86761,0.95441246,0.6093893,-0.23778479,0.53255931,0.17661907
42,1400.0,486.84042,90.973206,0.9674238,489.3016,88.49491,0.94039667,484.40118,88.50238,0.92946124,493.4748,88.42877,0.77399164,480.97656,88.43875,0.70451856,499.0734,101.17271,0.9950813,476.00122,101.45891,0.9967069,505.8112,118.94657,0.9694875,469.85284,119.0888,0.97560424,507.3703,136.1614,0.9478333,466.95148,136.46017,0.95297736,495.1447,136.94527,0.99547845,480.74704,137.12823,0.9964373,495.11414,165.15543,0.9834209,480.8667,165.17941,0.98465204,495.73416,191.49263,0.9493321,482.62067,191.35535,0.9514271,0.71511113,-0.24073253,0.61460489,0.27512289
43,1433.3333333333333,486.18677,91.044334,0.9683496,488.68887,88.58508,0.94229394,483.75284,88.56369,0.9311056,492.95236,88.582825,0.7777759,480.38373,88.51663,0.7049948,498.57874,101.41803,0.99514633,475.53043,101.52577,0.99681395,505.48798,119.275055,0.9698288,469.24875,119.01622,0.9765143,507.11203,136.70801,0.9484491,465.87164,136.67534,0.95446634,494.68063,137.18787,0.9955236,480.3196,137.26541,0.9965168,494.35327,165.51166,0.98336476,480.1811,165.41124,0.9847355,495.51395,192.15762,0.94895536,482.36673,191.8613,0.95133334,1.00149691,-0.27020998,0.94082203,0.21174637
44,1466.6666666666665,485.31375,91.87038,0.96307504,488.11823,89.14624,0.93267035,482.7186,89.082855,0.9299098,492.53955,89.27683,0.71254575,478.68048,89.15343,0.7050222,498.00238,102.56691,0.99174213,473.46204,103.05898,0.9951239,505.79077,120.10756,0.95988005,468.70584,121.43234,0.9716787,506.5837,137.10428,0.94323725,465.63284,138.43045,0.9516167,493.53824,138.80757,0.9947607,478.40982,138.99913,0.99593395,492.67233,167.37894,0.9872765,479.15958,167.3263,0.98835117,493.7065,193.4849,0.96604276,483.0498,193.41867,0.9683975,0.99316353,-0.36429219,0.87818245,0.28715952
45,1500.0,485.59753,92.15173,0.96679926,488.24213,89.50899,0.9401285,482.97906,89.52319,0.92589676,492.62363,89.31423,0.7719099,479.0678,89.3347,0.67968225,498.3667,102.17122,0.9950689,473.85825,102.38351,0.99664897,504.85718,120.79294,0.9745086,467.57285,120.39426,0.9784413,506.79794,138.13197,0.9584917,464.11624,137.33961,0.9607381,494.3617,138.194,0.99638903,479.4662,138.32646,0.99712294,491.70724,166.82597,0.98927015,479.34448,166.72632,0.9897125,494.72125,194.4384,0.9659522,485.34653,194.1509,0.9663037,1.47494052,-0.1562305,1.38765109,0.47483263
46,1533.3333333333335,484.1821,93.21283,0.9657858,486.78397,90.37172,0.94010085,481.44507,90.61591,0.93282187,491.4522,89.73358,0.7598233,477.71326,90.366585,0.7238483,498.18677,102.31049,0.99489766,472.60202,103.68431,0.99703646,505.44556,120.843475,0.96805334,467.6271,123.44188,0.97782177,505.5598,137.75034,0.9467798,464.61395,140.83458,0.9557425,494.28134,139.27335,0.9960693,478.46246,139.84874,0.99706715,492.64655,168.18628,0.9871056,478.6328,168.54034,0.9886219,491.62967,196.43195,0.9626922,482.01584,196.8143,0.9658378,1.59205328,-0.31025019,1.51808882,0.36576606
47,1566.6666666666667,483.9776,94.893555,0.9659535,486.55917,91.972015,0.9367304,480.97766,92.26989,0.9347112,490.98642,91.37418,0.7441197,476.709,92.15399,0.7386512,497.8184,103.90984,0.9949921,471.6579,105.346405,0.997292,505.43338,122.08737,0.9717828,466.5493,124.22513,0.9826278,506.05637,138.23177,0.9559823,464.1351,139.78944,0.9665164,494.221,140.02869,0.9969836,478.34537,140.65358,0.99783343,490.60562,168.41415,0.9918538,478.4895,168.77441,0.9930266,489.8086,196.40076,0.97517085,483.49942,196.84882,0.9776977,1.55657039,-0.23729349,1.33188957,0.76985281
48,1600.0,483.63922,97.43746,0.96233433,486.19424,94.52054,0.9316278,480.68246,94.831635,0.9271692,490.71698,93.796234,0.74000716,476.6087,94.60577,0.7205335,497.7973,106.267715,0.9945163,471.76944,107.464035,0.9969265,505.56265,124.62201,0.9683348,466.37503,125.86958,0.97971797,505.3509,141.01196,0.950454,463.6134,141.16995,0.96142787,493.54312,141.96782,0.99680555,477.82043,142.41774,0.99766326,489.4872,169.92586,0.9920002,477.8012,170.13199,0.99304104,488.3403,197.93573,0.97688746,482.8347,198.19122,0.97895586,1.57097745,-0.42128193,1.3223094,0.73619938
49,1633.3333333333333,482.55014,99.75795,0.9625235,485.15765,96.800446,0.9346139,479.6133,97.08891,0.9241394,489.95398,95.49055,0.75478756,475.79214,96.256004,0.70053613,497.63547,107.36921,0.994779,470.95383,108.25939,0.99693006,505.8007,125.86957,0.9707402,465.1184,126.25705,0.979598,505.38306,142.98558,0.9535628,462.2991,142.11917,0.9615825,492.90866,143.01059,0.9969915,476.88834,143.27492,0.9977416,489.37854,170.75117,0.99241275,477.40646,170.71527,0.9932168,488.23343,198.55203,0.9777025,483.049,198.4208,0.97926164,1.42140906,-0.34881652,1.21250589,0.6546451
50,1666.6666666666667,481.25433,102.6658,0.96077555,483.9217,99.69294,0.939519,478.521,99.94759,0.91063803,489.2217,97.905556,0.79116815,475.37808,98.644875,0.63678795,497.61908,109.40048,0.9949275,471.16766,110.00578,0.996329,505.97083,127.984375,0.97388726,465.29202,127.65654,0.9741856,505.0212,145.50731,0.95712256,461.7447,144.14641,0.95406663,492.41742,145.1915,0.99687874,476.64636,145.19363,0.9973743,489.31442,172.52725,0.9921789,477.3992,172.16972,0.99211806,488.35345,199.86362,0.9770427,483.43906,199.1882,0.9766742,1.32281914,-0.29182678,1.11007174,0.65759284
51,1700.0,481.303,106.292786,0.954046,483.8708,103.38208,0.93552107,478.6054,103.613815,0.8972126,488.84146,101.8936,0.7925604,475.13095,102.43379,0.60717374,496.82367,112.91121,0.9939796,470.53445,113.53517,0.994419,506.1294,130.57533,0.9654291,464.1119,130.56776,0.95181227,504.92456,147.44034,0.9375299,461.61487,145.45595,0.91539705,492.6211,147.01285,0.99501014,476.7373,147.17773,0.9952107,490.2955,173.55276,0.9857451,477.95215,173.56308,0.9837863,487.17902,199.77927,0.9633487,482.3512,199.61897,0.95945424,1.24197086,-0.38050479,1.16190293,0.2183788
52,1733.3333333333335,481.41006,109.69997,0.9504824,483.80026,106.67253,0.93092096,478.4862,107.14561,0.89131033,488.45233,105.196846,0.7893493,474.6482,106.3241,0.6088718,496.84464,116.23391,0.99382716,470.43307,117.49531,0.9939877,506.00012,133.98575,0.9636429,464.30093,134.26935,0.9464106,504.21063,152.10313,0.9319142,461.55997,148.37247,0.9050698,493.57803,149.6274,0.9946696,477.6003,150.09006,0.9947567,490.60577,174.58844,0.9846178,477.94168,174.92072,0.98206425,487.26266,199.44818,0.9615149,482.87558,199.781,0.9566278,1.2355636,-0.3205673,1.14225129,0.34513184
53,1766.6666666666665,480.69034,114.97557,0.95902324,483.08774,112.083694,0.94108325,477.8692,112.43237,0.9050751,487.57303,110.39031,0.7926997,474.408,111.426735,0.5996027,495.60184,120.35896,0.99397165,470.57053,121.25,0.99498665,504.77765,138.62354,0.97664773,464.339,137.27313,0.9714068,504.5183,158.13205,0.963595,461.60907,152.51326,0.954872,492.562,148.99825,0.99599576,477.71753,149.33711,0.9963464,488.6126,173.72968,0.99079776,478.2606,173.77208,0.9898487,488.26965,198.93413,0.97585756,485.40915,198.88397,0.9737621,1.24904469,-0.23360881,1.16951794,0.37117026
54,1800.0,479.24167,118.294365,0.9552225,481.72433,115.383575,0.94596225,476.657,115.71217,0.87808925,486.84402,113.57286,0.8393965,473.86264,114.64554,0.50359976,495.90414,123.43713,0.99486744,470.48593,124.28523,0.9940749,505.36127,141.28198,0.98283654,463.54276,139.76207,0.96296614,502.66873,160.80197,0.9715827,460.16382,155.94205,0.9461081,492.7111,152.00423,0.9965565,477.6155,152.17053,0.9962205,488.92953,175.62476,0.9921876,477.93893,175.47292,0.98942435,488.10397,199.4177,0.97927517,485.30493,198.99658,0.97377294,1.24369238,-0.15819566,1.17541343,0.37436365
55,1833.3333333333333,478.81,123.700134,0.95951116,481.29657,120.73538,0.95329523,476.09592,121.05928,0.88438153,486.6078,118.20318,0.85806596,473.38785,119.311386,0.49662888,495.9125,126.442245,0.99543214,470.4464,127.55852,0.9946095,505.01178,143.26526,0.98512346,463.1883,143.36635,0.9649959,501.8084,161.27408,0.97539234,459.1921,161.33615,0.9496172,492.99374,152.52147,0.9967681,477.8833,152.67322,0.9963923,489.43765,175.76604,0.9927086,477.46603,175.4936,0.989819,487.487,199.37938,0.98053324,483.9058,198.77548,0.9748189,1.46804032,-0.00368468,1.40140723,0.43724888
56,1866.6666666666667,477.68567,127.41864,0.955251,480.07794,124.35361,0.9472951,474.83505,124.79097,0.87322176,485.44073,121.13379,0.8452696,472.01486,122.52637,0.48511,495.16537,128.12093,0.9951938,469.15576,129.74048,0.9943479,504.68243,144.39598,0.98454237,462.41425,145.51518,0.96410644,500.41663,161.76697,0.9747121,459.27084,162.83403,0.9488826,492.85983,153.23099,0.9969284,477.40802,153.64757,0.9965821,488.86298,176.31488,0.99347585,476.80902,176.3171,0.99092203,487.21655,199.71883,0.9826734,484.13928,199.46368,0.9776127,0.81342601,-0.14370258,0.58389921,0.54778933
57,1900.0,478.33353,130.92062,0.936637,480.83115,127.85388,0.9289126,475.41318,128.3367,0.8322499,486.23444,125.21089,0.8205788,472.40494,126.61195,0.4350001,494.9097,132.29135,0.992153,470.04922,133.53574,0.9893779,502.71335,149.4302,0.97331786,463.4161,148.64351,0.9301036,498.9962,165.562,0.95684636,462.10916,161.42395,0.907205,493.03488,153.67526,0.9944833,478.2192,154.03279,0.99339664,488.07883,175.7245,0.990564,477.3453,175.77441,0.98611635,486.9913,198.33427,0.97940046,485.20795,198.07582,0.9721648,0.9878901,-0.11889239,0.83101852,0.52076833
58,1933.3333333333333,477.2985,133.78793,0.93927747,479.76514,130.79877,0.9309418,474.45248,131.2002,0.8347268,485.18848,127.59979,0.82540935,471.6589,128.92061,0.43259192,494.3865,133.14304,0.9930902,469.38196,135.51083,0.9913209,502.27136,147.18143,0.9771599,461.8342,152.48245,0.9434909,497.23834,158.41467,0.9635557,457.08716,170.834,0.92291564,493.65594,154.69687,0.9957086,478.90997,155.33202,0.9949976,487.35925,176.12445,0.9927254,476.67813,176.20973,0.98929113,486.9155,198.8264,0.98350614,485.30658,198.45859,0.97765416,0.88946097,-0.02235374,0.75069246,0.47655215
59,1966.6666666666665,475.97577,136.45761,0.9337697,478.334,133.46492,0.93066597,473.27267,133.85855,0.8075274,484.02353,129.7294,0.83616525,470.87552,131.02977,0.37070096,493.82074,134.61179,0.9923781,469.00253,136.66722,0.98893774,501.46912,148.85927,0.97737783,460.90097,153.07642,0.92948824,495.46317,161.05798,0.9635925,455.3057,171.932,0.9092995,493.52353,155.67708,0.9947621,478.8507,156.15413,0.9933929,487.80814,176.25357,0.9908965,476.5351,176.19766,0.9854414,487.37195,198.1081,0.97929347,484.7145,197.46022,0.9701885,0.97972064,-0.08573026,0.87204131,0.43823146
60,2000.0,475.40643,139.9526,0.9401551,477.63635,137.01227,0.9400215,472.74606,137.52257,0.81527483,483.43164,133.29279,0.8542305,470.5812,134.73047,0.36441517,493.59662,137.88004,0.99262553,469.54684,138.97972,0.9884548,502.01205,150.56667,0.9778637,460.56094,149.97736,0.9233926,496.49463,158.61475,0.9642175,458.81076,157.0424,0.9054914,494.614,158.71727,0.9939027,480.19528,158.86125,0.99210393,488.94824,175.54993,0.9893355,476.69128,175.20427,0.98251903,488.7747,197.99927,0.9761762,484.5311,196.9495,0.9651046,0.97827355,-0.10513625,0.90299264,0.36134444
61,2033.3333333333333,474.6331,142.59534,0.95356935,476.90283,139.68266,0.9378169,471.8251,139.9945,0.89237237,482.57886,135.62985,0.7807148,469.3399,136.48727,0.56769997,492.51297,139.37596,0.99071306,466.64212,141.37679,0.9926871,503.42126,151.35753,0.9621792,456.783,158.10802,0.95523757,498.83725,161.6954,0.9426273,450.65643,180.13867,0.9291077,493.49783,159.43521,0.9885181,478.01022,159.9299,0.98949206,490.00812,177.42255,0.9675587,476.1979,177.22624,0.96410894,487.6717,197.07765,0.91581637,483.0485,196.446,0.9099187,0.87974909,0.01203663,0.80498011,0.35471201
62,2066.666666666667,474.02823,145.34892,0.9531199,476.42468,142.32549,0.9306,471.0735,142.66624,0.9008824,482.2397,138.02022,0.7400728,468.39584,138.86177,0.61326545,492.46582,140.92578,0.9898037,465.2365,143.12196,0.9937588,503.6471,153.89795,0.9559805,455.4523,161.77283,0.96554494,499.21832,164.05917,0.93528974,449.97488,185.71739,0.9412822,494.4427,158.82072,0.9882436,478.1217,159.39986,0.9906686,488.99042,175.47183,0.96785843,474.5483,175.22858,0.96900374,488.84814,196.65115,0.9184529,485.3693,195.99191,0.9205108,0.85597881,0.02824923,0.75732489,0.39794561
63,2100.0,472.79224,149.17252,0.9490751,475.29507,145.86961,0.92082846,469.37735,146.23541,0.9037985,481.15454,140.80017,0.6844231,466.186,141.57411,0.6313319,491.681,142.9631,0.98498327,463.07822,144.25916,0.9920704,502.50757,160.87143,0.9319925,454.39297,164.61127,0.9612179,500.50574,178.80457,0.8983442,447.52084,189.61136,0.9294017,493.3057,156.83469,0.9805793,476.1817,157.1688,0.98600256,487.61816,177.28886,0.94588333,472.99933,176.9323,0.9537576,487.64398,198.47102,0.86286306,483.6756,197.72559,0.876539,0.81625352,0.13264854,0.80252365,0.06804379
64,2133.3333333333335,473.399,152.55362,0.95459753,475.75455,149.08072,0.92949206,469.6863,149.6788,0.91506207,480.99335,143.73764,0.69880176,465.5248,145.06624,0.6562579,490.5397,145.21298,0.98665243,461.28265,147.85379,0.9915508,500.7747,163.75394,0.9400236,452.68228,169.99243,0.95472616,499.46866,183.14293,0.9032469,445.806,194.71887,0.9172898,492.26816,157.40564,0.9780733,474.51498,158.61835,0.982386,486.8273,179.17007,0.93207616,471.347,179.94666,0.93541914,487.03183,199.06549,0.8169669,481.79803,199.95303,0.8224432,0.74731056,0.0189147,0.62516764,-0.40899966
65,2166.6666666666665,472.2361,155.5081,0.96479714,474.80444,151.9963,0.94762313,468.42133,152.50253,0.9330462,480.08652,146.5604,0.7412673,464.16342,147.5506,0.6804412,489.67133,148.09898,0.9879033,459.64212,149.76921,0.9926952,499.21808,169.08105,0.9454468,450.1179,172.17361,0.9608757,500.4684,190.12573,0.9081851,442.61868,195.70459,0.9250983,492.0748,158.51161,0.9728674,474.0762,159.41016,0.9789185,486.90878,180.91646,0.90117365,472.0509,181.31468,0.90807056,487.7989,201.21196,0.7272621,484.4195,201.50096,0.73783743,0.98536718,-0.76322038,-0.00786065,-0.62320248
66,2200.0,470.7286,159.62175,0.9605711,473.54486,155.92043,0.9555191,466.85428,156.379,0.9097408,479.27158,149.9888,0.8097527,462.43665,150.80055,0.5560152,488.98117,151.79802,0.9883957,458.1793,152.47162,0.987151,498.70474,174.19603,0.95760286,448.60532,172.82944,0.9219818,500.63635,197.95871,0.9197689,443.02707,191.33502,0.87269664,491.3976,163.6556,0.9693931,472.4781,164.29579,0.9671505,488.67902,184.66064,0.889212,470.46918,184.96933,0.86070305,490.359,202.0012,0.70041096,480.79205,201.96008,0.6561793,1.12311655,-0.62541329,-0.92731153,0.10169721
67,2233.3333333333335,467.0302,162.28217,0.94442725,468.55188,159.1215,0.91278684,464.19934,159.82861,0.8442257,474.22375,154.08038,0.7555163,459.9607,156.53595,0.49515203,486.49542,156.66394,0.9817166,456.5779,160.69855,0.9629113,498.13257,178.53433,0.9568265,440.23825,184.19524,0.8848386,497.59818,207.51259,0.92962164,432.60593,207.86993,0.85538536,489.56866,163.5444,0.9575682,468.93497,164.39609,0.9385413,490.393,196.41464,0.8430168,453.5355,195.01334,0.7809217,495.18262,217.31036,0.5996558,445.2957,210.656,0.54162526,1.48960638,-0.68043787,-1.30707938,0.2178875
68,2266.6666666666665,466.16153,169.79411,0.91153353,467.46292,166.84967,0.80676055,463.59604,167.43442,0.83153284,472.21756,160.60742,0.5425778,458.22046,162.5055,0.5816282,483.9248,160.40143,0.95990336,451.55185,165.50615,0.9742535,496.20483,186.9259,0.90916806,436.90967,197.81554,0.9429486,493.68652,212.51105,0.87720364,427.11798,223.34521,0.91067725,487.21805,163.78894,0.9527688,464.63388,165.5722,0.96090585,491.47394,198.92703,0.8478175,450.45926,199.48856,0.86968213,496.29773,219.74841,0.63848686,445.4831,218.26465,0.67142075,1.18063365,-0.36699429,-1.10098286,0.21690492
69,2300.0,466.90695,152.8983,0.12641588,466.34525,150.83083,0.108869076,466.2915,151.0098,0.04863735,467.74164,148.31259,0.24746296,470.32022,148.36948,0.076320775,475.9065,149.62418,0.85186315,473.63052,149.84567,0.7415653,486.77606,160.1109,0.82929724,474.40985,162.67259,0.5998747,493.74658,171.73572,0.75230134,472.99594,175.26329,0.56810373,486.31003,165.22464,0.9754156,485.83783,165.56454,0.96600616,490.87653,185.00938,0.97566026,488.28836,185.05762,0.9648832,493.2995,203.96661,0.95926076,490.21283,203.05621,0.94697505,1.14059042,0.48809749,-0.80841914,0.63966072
70,2333.3333333333335,148.99312,147.62383,0.23927674,149.00241,145.89587,0.27336392,149.9,145.71622,0.060863182,151.8673,144.06651,0.75187296,158.96675,143.20036,0.13110633,155.14676,149.23065,0.96502674,168.51395,147.56444,0.8922725,150.08592,155.83241,0.9233695,179.20421,155.33737,0.57546467,148.62894,153.2024,0.8316297,175.14296,155.4959,0.49545756,166.80432,175.17537,0.981709,175.61806,174.10298,0.96830875,167.66826,201.26201,0.9649518,178.53787,199.93355,0.932977,170.80075,224.6776,0.9188967,181.2134,221.69096,0.8738857,1.97034052,1.48517233,-1.26188062,0.29010726
71,2366.6666666666665,49.06504,128.82365,0.18255529,46.74271,126.2298,0.034432046,49.195656,126.770325,0.18460926,32.657753,126.24135,0.10260049,46.04953,127.96326,0.6546236,22.325392,134.29295,0.7654693,45.161327,137.63673,0.96239805,7.542675,146.67017,0.60568875,59.26295,143.01115,0.95945716,6.5734596,161.1835,0.58369654,73.92436,141.17671,0.91126156,23.86196,174.22583,0.9494391,36.616104,175.74094,0.97985876,16.82429,201.78201,0.89817125,27.149166,203.84267,0.95719093,10.608923,225.1172,0.7765846,19.861423,226.85443,0.8639145,2.52137633,2.18305102,-1.20538217,-0.37239849
72,2400.0,487.64853,186.69196,0.06774169,484.45682,181.78322,0.023848934,490.60858,183.04843,0.078255564,463.42297,176.71542,0.12810916,490.68604,180.1796,0.43826026,445.71423,186.44221,0.47506884,484.38016,194.79291,0.5613906,435.02905,220.80768,0.253005,494.4665,230.60745,0.32723492,448.95532,216.8506,0.18186437,497.93964,211.80391,0.21436854,440.6232,224.97464,0.1485873,467.15015,228.99612,0.15552929,449.8496,214.10216,0.057357438,476.96484,212.68216,0.05604395,475.159,213.74454,0.04050429,499.31732,204.29294,0.038015,1.8354809,1.7212376,-0.57972324,-0.26505143
73,2433.333333333333,48.05399,134.60208,0.114164285,45.294563,131.5076,0.024554873,48.667366,132.1726,0.123338185,31.320448,128.90356,0.08987472,47.941334,130.70226,0.58747417,21.289574,135.04857,0.64075845,47.532753,138.0513,0.92491865,8.038868,148.71585,0.45705602,60.942566,146.6005,0.9161606,7.436987,162.06412,0.42498752,69.85104,147.10573,0.82972074,19.905296,178.2793,0.9030786,35.385925,179.41278,0.9578745,15.662981,207.29459,0.8306791,28.295616,208.02148,0.9225249,10.756105,229.70346,0.6966295,21.481972,229.50331,0.80326366,1.60412231,1.5163693,-0.27315773,0.44633776
74,2466.666666666667,492.19717,202.66985,0.21104181,492.32166,199.7231,0.0830652,493.71686,199.5481,0.17985037,481.3764,193.62328,0.23076543,494.2657,195.06534,0.48852777,468.34647,197.86017,0.62785405,490.72006,200.62123,0.6511956,461.0886,212.84326,0.28360763,486.0555,217.30708,0.36113703,470.124,220.79128,0.20279686,484.2703,226.298,0.22268978,441.7955,218.88387,0.16803795,457.20694,219.39001,0.1728732,453.01465,221.39809,0.04279615,472.8376,221.91025,0.04832495,437.094,233.18842,0.022638215,459.26556,235.34016,0.02520683,1.317098,1.00223339,-0.8509158,0.07885219
75,2500.0,34.034893,118.0981,0.048071444,32.16654,115.40091,0.020108832,35.890953,115.67088,0.032982193,25.20912,117.2362,0.10712769,42.015915,117.81693,0.20225634,20.09362,130.1777,0.4606571,44.34166,130.87344,0.6528362,7.126667,148.98586,0.3852612,52.213997,147.23743,0.6299875,5.06958,156.80301,0.3533304,54.63722,148.71173,0.5354377,18.808262,177.26353,0.7707672,32.902542,177.28772,0.82672614,15.530589,199.98474,0.6997816,24.451237,201.27979,0.7711245,8.373074,223.31718,0.5748709,13.346827,225.64174,0.63197887,2.04041124,1.48025942,-1.39944207,0.11692723
76,2533.333333333333,28.08004,137.85852,0.122857444,26.741959,135.35286,0.04163764,30.48523,135.81992,0.06581631,23.37561,133.51338,0.2090492,39.63967,133.88446,0.32299465,21.284246,139.24538,0.7946524,46.60687,139.01819,0.9322248,8.165501,148.4443,0.74579984,68.27951,142.13237,0.9403166,8.328266,156.77962,0.7158054,89.21259,141.39294,0.89103085,25.948359,181.22232,0.95642877,39.411636,180.98393,0.9756504,15.130793,205.04413,0.8937229,23.076073,205.1315,0.93983066,13.166809,225.75372,0.7405415,17.443127,226.18777,0.81449485,0.55504178,0.28494871,-0.10317108,0.46500682
77,2566.666666666667,39.168247,122.29259,0.067077525,37.229015,119.555984,0.02464193,40.523026,120.02583,0.04672207,27.805199,121.36517,0.12480048,43.997047,122.519745,0.27408665,21.249304,133.33258,0.61297864,44.683533,135.33057,0.7761606,8.052998,150.66135,0.52175885,52.382446,148.82916,0.74303395,5.5345345,158.88219,0.464118,56.240734,146.69646,0.63914955,20.84333,177.44484,0.8772125,34.17657,178.18706,0.9085538,16.36547,205.66812,0.8105045,23.177338,207.65427,0.8562486,13.867038,227.09682,0.6749005,14.857534,229.16621,0.71987927,2.31834254,1.1282495,0.4308621,1.97891966
79,2633.3333333333335,29.059486,131.66414,0.007979097,27.441227,128.91992,0.0039872946,30.8465,129.18578,0.0058338484,23.056738,127.07257,0.19241244,36.69216,127.67836,0.2824992,18.867376,135.79912,0.8684632,42.337578,135.72488,0.9409718,6.1053276,145.90819,0.8140593,56.27661,143.21414,0.94635457,6.9647923,154.4084,0.6566026,68.556335,147.24014,0.83566546,23.985018,175.61465,0.9866616,37.97991,175.16235,0.99217814,15.996742,201.19432,0.94716644,26.862877,200.61182,0.9650647,18.117025,222.48352,0.8453115,23.68835,222.04535,0.88298434,3.27641734,1.01132227,-1.80745914,2.53874562
80,2666.6666666666665,36.512608,134.52008,0.12645875,34.49526,132.11523,0.038182087,37.651382,132.53969,0.075221166,26.65815,130.99196,0.16953863,41.452625,131.8986,0.36789942,22.37098,137.1902,0.8118022,45.145046,138.21284,0.930844,10.560548,149.57442,0.7605799,58.8037,143.60492,0.9323674,10.009214,167.51677,0.7186747,68.924324,145.73302,0.8814102,27.157185,175.947,0.95928943,40.162075,176.34605,0.97533536,18.882763,201.52553,0.90476936,29.58592,201.8832,0.94135964,13.3141575,221.61949,0.7682977,23.303852,220.77632,0.82648784,0.49531216,0.3340778,-0.18251456,0.31688262
81,2700.0,460.42587,222.45609,0.068529315,458.98697,221.3209,0.025720283,461.80902,221.16412,0.05280558,445.11124,223.21428,0.13727729,465.36618,222.53766,0.3505385,437.56293,225.16046,0.7550311,467.22235,225.01498,0.7394571,448.32803,221.24844,0.628358,483.33362,217.90828,0.6537038,474.94785,217.84607,0.5693474,485.69165,210.32535,0.5723428,449.83948,219.96442,0.7878188,467.8063,221.4387,0.78312755,479.42502,215.76419,0.5812373,484.17868,216.25856,0.5985348,501.84262,210.13354,0.53114927,500.1953,210.54407,0.53611004,0.80726783,0.67061205,0.02333632,-0.44879422
82,2733.3333333333335,38.949554,124.97662,0.09186711,37.14274,122.621414,0.030247621,40.17189,122.983246,0.06677977,28.797112,124.77806,0.13818192,44.494877,125.70712,0.3534989,22.913948,136.24548,0.6688721,45.605095,137.53568,0.86264336,9.18203,146.09746,0.55363715,56.338177,145.51141,0.8437103,6.5970592,145.92195,0.50226676,65.88144,141.52968,0.7451957,19.935896,180.67726,0.9012432,33.062714,180.72081,0.93812555,13.758034,210.82204,0.81295455,24.677628,210.34415,0.8795465,7.509037,229.19397,0.6465662,15.803112,228.18686,0.72008747,0.99759193,0.67380544,0.71065226,-0.19012957
83,2766.6666666666665,481.00558,230.89302,0.12878637,482.0615,229.84267,0.034229085,483.4146,229.32767,0.13152002,468.37448,229.11794,0.06701396,483.08908,228.8677,0.391512,454.8184,225.4034,0.66246706,472.74298,228.45718,0.7092296,459.4741,219.93605,0.55612636,481.36108,222.92482,0.7036569,483.20746,216.34995,0.59802,487.3092,215.96733,0.670776,443.5995,215.38048,0.72053754,453.68048,218.2123,0.7368448,478.82727,216.38339,0.49657527,482.00403,218.54027,0.56004643,493.94644,208.38794,0.4322466,493.8545,211.58896,0.47239304,0.87749344,0.81185818,-0.0351273,-0.33113005
84,2800.0,488.00952,225.49823,0.051821657,487.1175,225.07126,0.03120097,492.2377,224.02089,0.05578013,476.6075,226.49771,0.11791411,492.22046,224.1426,0.20347627,460.15884,227.9752,0.3933791,479.0778,225.36533,0.35347667,447.3548,224.28542,0.3057976,477.38492,218.02362,0.26181844,454.062,221.99252,0.2759052,492.85364,217.40187,0.23726611,445.2703,213.8162,0.5447799,457.64444,214.32191,0.5015845,468.83334,218.90817,0.55167216,474.23776,220.03012,0.5155158,486.37198,211.55833,0.56823814,485.77884,215.45398,0.5367344,0.67914678,0.54041997,-0.39278706,-0.12208578
85,2833.3333333333335,490.89032,225.63394,0.07371261,490.0874,224.7429,0.050114643,494.88602,224.28943,0.07607451,479.8808,225.63553,0.15487228,495.0039,224.61188,0.21903083,462.94498,226.5194,0.4472994,480.87775,226.82936,0.34805262,445.04922,222.7215,0.34034914,474.84076,222.35797,0.22060093,441.95288,221.95624,0.29085115,488.6721,221.20944,0.20272411,443.07297,216.69232,0.5131765,454.38513,217.88826,0.43587717,462.87738,220.62468,0.5040674,468.2985,222.95093,0.43173823,477.36035,214.39253,0.51522595,476.34686,217.98262,0.45878157,1.00728592,0.4632873,-0.70647628,0.54852627
86,2866.6666666666665,498.3244,217.65599,0.114700936,497.63278,216.85332,0.064869575,501.98706,216.43213,0.112176694,486.89078,219.37427,0.17172992,501.85785,218.48906,0.29266122,469.37073,222.90372,0.5787628,486.73322,223.68059,0.5302173,451.81543,224.07567,0.44709337,478.9579,225.42111,0.37068614,447.17508,222.27048,0.3868936,488.87695,222.26155,0.32262945,440.7169,220.93019,0.6033585,451.5669,221.27962,0.55183476,453.7034,222.73132,0.515411,460.7231,224.34036,0.46723133,458.8966,216.31462,0.4669098,460.77554,218.61948,0.42552516,1.70581346,0.47753473,-1.38347512,0.87621728
87,2900.0,494.81076,222.69019,0.08320116,494.52347,222.26889,0.04794966,499.08255,221.24054,0.089696825,484.44046,224.7594,0.14475799,499.2912,222.36613,0.2583988,466.78226,227.59113,0.46596977,484.37476,225.021,0.44378307,453.18378,227.48703,0.34215978,479.6718,220.74686,0.3199144,457.28955,225.38242,0.30390775,495.78528,216.66016,0.2785584,443.4748,218.49042,0.5330882,454.65222,218.548,0.4973466,464.3551,220.91202,0.49216288,470.0893,222.65614,0.46464202,476.1765,214.9839,0.4785252,476.6871,219.52129,0.4509524,1.73287927,1.52496689,-0.53354189,0.62664152
88,2933.333333333333,492.55682,226.57677,0.08927125,492.5449,226.26431,0.04874989,496.79092,224.92798,0.0983892,483.5377,228.29355,0.14397974,497.41068,225.01674,0.28598124,465.22232,230.31488,0.46700057,485.43457,225.71362,0.49898347,456.38733,225.67511,0.34093276,485.97113,214.50523,0.39404863,466.33746,222.05945,0.31907436,499.5254,208.67252,0.34544566,443.53207,217.72092,0.5706241,456.431,217.16386,0.5652649,467.3398,219.1938,0.5304641,473.33563,220.59222,0.53777677,480.2894,211.42105,0.5173548,480.8986,217.16481,0.51374966,1.98925621,1.71730727,-0.20855298,0.98209047
89,2966.666666666667,492.39944,225.06058,0.07521543,491.72812,224.73062,0.038173947,496.6535,223.65482,0.077722594,481.4944,227.10104,0.13490443,497.67493,224.4253,0.2770174,463.2763,229.7888,0.49109018,486.6621,225.77188,0.52061105,455.50974,225.5221,0.38449013,488.93744,215.51857,0.43031025,465.77185,221.78941,0.35965243,499.43604,209.80597,0.3801345,442.13834,218.10318,0.59876627,457.20682,217.55783,0.5915754,464.31348,220.25198,0.52564573,472.27173,221.05579,0.528682,479.49167,212.00867,0.48158845,480.5771,216.24144,0.4751302,1.27700971,0.69075498,0.19062086,1.05701233
90,3000.0,16.201859,143.56435,0.2873042,16.461771,140.83336,0.17031196,17.815945,141.26349,0.14789371,21.402592,137.12756,0.38701773,28.976059,136.8169,0.31930706,22.578646,142.60553,0.8445382,40.671,139.95615,0.9215893,12.89131,152.8468,0.72938037,56.0422,145.60352,0.8795051,11.40443,156.83792,0.6593118,62.607258,146.87073,0.8021955,29.50621,180.09451,0.9497214,40.06435,178.81659,0.9651975,17.377909,209.28992,0.90622014,29.316467,208.47229,0.93755424,13.3237915,226.28816,0.8037566,29.075611,226.71318,0.8513239,1.09006887,0.65538203,0.56523016,0.6627514
91,3033.333333333333,35.712948,123.55005,0.07100268,34.112827,120.74434,0.031927213,37.720074,121.222626,0.044988547,27.398241,121.92226,0.1346182,43.33278,123.08693,0.19726366,23.676723,133.7162,0.58538043,42.26273,136.12398,0.69443685,9.805389,150.14664,0.5014637,41.81086,152.94394,0.63753664,6.5654488,147.7299,0.44472247,42.77926,148.74481,0.548055,22.577465,179.74103,0.8693931,33.31227,180.61282,0.889033,19.560158,202.04024,0.84635764,25.533607,204.14685,0.87104875,17.204096,226.58607,0.7669656,17.04164,229.62283,0.79047996,0.99617479,0.64334541,0.60674424,0.45862004
92,3066.666666666667,493.86005,225.82895,0.11778592,493.87894,225.1944,0.06421318,498.59912,224.16393,0.10506002,483.68793,226.00833,0.21339612,500.0196,223.64432,0.29491317,462.30856,227.0205,0.63669264,488.26703,224.27434,0.59707314,442.39914,224.79709,0.5365545,484.06488,217.06439,0.4786899,445.96854,222.89246,0.49074095,497.37302,211.24565,0.42819944,437.4832,220.09149,0.645763,453.20038,219.35875,0.60436916,451.43573,220.9864,0.5088168,460.11774,222.2371,0.4664012,462.35107,213.26883,0.4124274,463.6275,217.17786,0.3754651,0.93182783,0.69321143,0.40285852,0.47483263
93,3100.0,42.214394,130.0515,0.10330775,39.719116,127.51483,0.021780705,43.287262,127.95018,0.08972237,28.146355,127.25598,0.09763162,45.01293,128.52478,0.49805626,20.74398,135.12881,0.70950323,45.334404,136.49821,0.9412762,6.882801,147.33258,0.60548943,59.34578,142.47618,0.94986796,5.5885277,157.14786,0.5852828,74.56237,141.99388,0.8980964,20.397346,175.98709,0.94657475,33.855667,176.56262,0.97717535,17.815441,202.47757,0.8863004,25.806633,203.60214,0.95005906,10.501259,222.43182,0.75380385,13.610453,224.11523,0.84579045,0.97059114,0.70377418,0.2048683,0.63622169
94,3133.3333333333335,36.46673,130.26488,0.084133334,34.498188,127.903305,0.019050132,38.2243,128.37643,0.05770451,26.421537,127.97565,0.10375317,42.92882,128.89444,0.36643133,21.235598,135.56583,0.7003426,45.434986,136.3569,0.9326679,6.108053,145.46933,0.665819,64.60728,141.48189,0.9543839,5.0482025,148.1105,0.6693633,86.87582,140.78989,0.9143922,23.72607,177.60179,0.9418776,36.30386,177.97389,0.9739929,14.543537,198.84024,0.8580971,22.983517,200.06752,0.93282306,10.665798,219.1845,0.673537,15.082744,221.64822,0.78113616,1.09957498,0.70893274,-0.20437701,0.81529721
95,3166.6666666666665,495.49377,223.10669,0.10004558,495.6047,222.7237,0.050559517,500.09076,221.46533,0.10059849,484.49854,224.71957,0.15484981,499.25848,222.03229,0.26942956,465.77426,226.65585,0.5499076,482.5048,224.50333,0.52150935,456.7015,223.26431,0.4475888,474.61713,218.26257,0.4212414,476.4683,217.29013,0.43070474,496.72888,210.80876,0.38174644,440.42776,218.78807,0.6010333,451.33945,218.79796,0.5612718,454.10785,221.27318,0.5016508,458.9193,223.08159,0.4619303,465.09036,214.60355,0.4288188,464.2613,218.70773,0.39119422,1.21501794,0.91355539,0.09702995,0.79515429
96,3200.0,503.1329,216.01044,0.15892993,503.15607,215.02126,0.07130654,506.87585,213.99777,0.17406285,489.926,217.06729,0.16109334,503.51587,215.38013,0.37823248,470.23935,221.087,0.62133914,483.12073,221.53244,0.6010951,464.79648,220.54378,0.46658352,471.4677,221.65544,0.45375624,489.3621,212.89552,0.4431781,497.2779,210.63043,0.40107116,437.51666,219.67453,0.5730812,446.515,220.51949,0.52907836,452.106,224.08101,0.42996356,457.56726,226.14484,0.38878375,456.41196,219.27817,0.33132294,457.00024,221.38493,0.2940517,1.25166695,0.90004489,0.24466286,0.8347032
97,3233.3333333333335,504.02164,214.37436,0.15602036,504.141,213.20726,0.068969585,507.75034,212.29532,0.17186867,490.75873,215.44481,0.17006934,504.76355,214.18135,0.38915348,470.00586,220.66559,0.627874,485.18024,221.31702,0.626288,459.1321,222.38283,0.46267995,471.97986,222.84782,0.47436592,480.31998,215.54747,0.43449292,496.68753,211.21635,0.41108522,436.97232,220.47932,0.5779317,447.31146,221.15059,0.54467016,450.09326,224.762,0.43185237,457.2214,226.60413,0.39933246,451.96603,219.90067,0.331074,454.4406,221.86371,0.29873532,1.07454562,0.67503367,0.19356861,0.81333205
98,3266.6666666666665,503.8999,214.80962,0.16358854,503.9754,213.72055,0.074114114,507.6219,212.79877,0.17681682,490.98114,215.98672,0.17144349,504.80008,214.62485,0.3827412,470.88986,220.82509,0.63494074,485.04022,221.49237,0.6187713,462.8905,221.55981,0.47349912,472.19363,222.78288,0.4650191,485.05185,213.83931,0.44529995,496.4841,211.2402,0.40687987,436.79333,220.46558,0.5811979,446.62466,221.16122,0.53964555,450.46182,224.41388,0.43473497,457.61935,226.45416,0.39589843,451.96585,219.48004,0.33323574,454.56165,221.64648,0.29726857,1.03981836,0.61288537,0.10046898,0.83396627
