frame_id,timestamp_ms,nose_x,nose_y,nose_conf,left_eye_x,left_eye_y,left_eye_conf,right_eye_x,right_eye_y,right_eye_conf,left_ear_x,left_ear_y,left_ear_conf,right_ear_x,right_ear_y,right_ear_conf,left_shoulder_x,left_shoulder_y,left_shoulder_conf,right_shoulder_x,right_shoulder_y,right_shoulder_conf,left_elbow_x,left_elbow_y,left_elbow_conf,right_elbow_x,right_elbow_y,right_elbow_conf,left_wrist_x,left_wrist_y,left_wrist_conf,right_wrist_x,right_wrist_y,right_wrist_conf,left_hip_x,left_hip_y,left_hip_conf,right_hip_x,right_hip_y,right_hip_conf,left_knee_x,left_knee_y,left_knee_conf,right_knee_x,right_knee_y,right_knee_conf,left_ankle_x,left_ankle_y,left_ankle_conf,right_ankle_x,right_ankle_y,right_ankle_conf,acc_x,acc_y,acc_z,acc_mag
0,0.0,516.0603,96.7299,0.9408866,518.34326,94.6006,0.90662503,514.25385,94.47223,0.8788142,521.97656,94.95694,0.763129,511.31122,94.48495,0.65130645,527.05963,106.23716,0.9938245,505.74112,105.31979,0.9948548,532.0284,121.77223,0.95929646,499.09244,119.18205,0.9542532,526.48944,133.35042,0.9271958,502.2298,130.41339,0.91602653,521.7683,137.49872,0.995304,508.44797,136.9733,0.99574465,520.49097,161.6947,0.98653907,508.43353,161.04794,0.9856947,517.07056,185.92363,0.9683544,511.34943,185.05296,0.9666002,1.01661216,0.31147842,0.96243883,0.10096028
1,33.333333333333336,515.57184,96.427704,0.94133973,517.8756,94.29409,0.9106864,513.7835,94.20116,0.8751631,521.6217,94.81154,0.7785397,510.98544,94.452866,0.6353444,526.928,106.38875,0.99406105,505.60464,105.55591,0.9946892,531.9379,122.02905,0.96144307,498.912,119.31999,0.9512862,526.1325,133.60512,0.93003696,502.19223,130.09372,0.9121689,521.6681,137.78812,0.99534637,508.37354,137.27625,0.99562126,520.14984,162.01822,0.9866304,508.33804,161.3875,0.9851887,516.5295,186.29367,0.9684607,511.37454,185.42323,0.9656809,0.9989697,0.18939263,0.95457818,0.22550251
2,66.66666666666667,514.81134,96.254974,0.9414059,517.1731,94.08728,0.9167974,513.0355,94.03955,0.8671333,521.1263,94.66772,0.8026358,510.42987,94.46744,0.6034157,526.73395,106.40738,0.9943784,505.3932,105.77632,0.994224,531.80676,122.12636,0.96501875,498.86472,119.57374,0.9444382,525.7916,133.8568,0.93486613,502.06903,130.09097,0.9033727,521.53326,137.8818,0.9953793,508.2741,137.42369,0.9953127,519.8226,162.16881,0.9868379,508.37036,161.58957,0.98418564,515.99756,186.51654,0.96880853,511.63095,185.66476,0.9639829,1.04763244,0.10636448,0.9963379,0.30582857
3,100.0,514.14746,96.62907,0.9398236,516.4326,94.420105,0.9170766,512.3281,94.449265,0.8604079,520.3677,94.80397,0.8089445,509.73633,94.81595,0.58635074,526.32605,106.25633,0.99454004,504.9154,105.98982,0.9939984,531.8644,121.6734,0.9674787,498.67535,119.818535,0.94215184,526.0327,133.47159,0.9388992,501.7812,130.25197,0.90139073,521.44916,137.61258,0.99564904,508.216,137.31078,0.99542636,519.5335,161.92197,0.98790646,508.35477,161.50674,0.98488367,515.3723,186.39334,0.9712521,511.61932,185.75641,0.96584165,1.00629535,0.01940599,0.964404,0.28666823
4,133.33333333333334,513.4957,96.858795,0.9428127,515.7238,94.567665,0.92328924,511.54593,94.704414,0.8634023,519.6463,94.704346,0.82165855,508.8415,95.01696,0.5813428,525.9534,105.90757,0.9948644,504.32648,106.11543,0.9939866,531.9288,121.21886,0.97009283,498.61536,120.08325,0.9406277,525.68304,133.34152,0.9430202,501.78015,130.29971,0.9002022,521.50024,137.387,0.9956328,508.11765,137.29904,0.9952573,519.4308,161.87576,0.9874444,508.11624,161.68524,0.9837398,514.9553,186.26915,0.969348,511.3119,185.94412,0.96268564,0.94801733,0.02186244,0.91994217,0.22795897
5,166.66666666666666,512.4583,97.4633,0.94167507,514.7296,95.128456,0.9268995,510.5416,95.26618,0.85281724,518.9132,94.96037,0.8367934,508.03745,95.30284,0.5435731,525.5824,105.8409,0.99488395,503.85364,106.10938,0.99315965,531.8175,121.13147,0.9717865,498.3328,120.15346,0.9310248,525.55615,133.49197,0.94517154,501.1657,130.60771,0.88846356,521.13574,137.52966,0.9955058,507.7213,137.42618,0.9947594,519.04645,162.19946,0.9872093,507.70212,161.9909,0.9821561,514.4945,186.62708,0.9685961,510.78983,186.21198,0.959651,0.93266954,0.08401074,0.91355539,0.16802148
6,200.0,511.82074,97.573074,0.93867046,513.90015,95.12214,0.9145812,509.92105,95.40636,0.854082,518.3359,94.49562,0.7894678,507.66156,95.28874,0.55092174,525.82886,105.57478,0.9933236,503.70068,105.991516,0.9931288,531.8897,121.122925,0.971133,498.22443,119.61931,0.95046586,525.0735,134.04497,0.95367485,501.1265,129.49493,0.92470354,520.67523,137.52402,0.9957294,507.085,137.3737,0.9955297,520.03955,162.04016,0.99092394,507.6219,161.66124,0.98872817,516.16223,185.75401,0.9765157,510.50165,185.2252,0.9725701,1.01368376,0.10317108,0.99805742,0.14419387
7,233.33333333333334,511.05887,97.76165,0.9339327,513.08435,95.256966,0.9125692,509.1677,95.62012,0.8372258,517.6411,94.45376,0.7969875,507.04535,95.474976,0.5145756,525.60114,105.41004,0.99314237,503.34348,106.16692,0.9919878,531.93414,120.87248,0.9717852,498.26065,119.97501,0.9412879,524.7864,133.69489,0.95408434,501.56888,129.53033,0.9141017,520.6408,137.65848,0.9956104,506.96222,137.64516,0.99507636,520.2041,162.12726,0.99096125,507.6777,161.88904,0.9879865,516.1075,185.74667,0.97682136,510.49796,185.3522,0.9715632,1.08609905,0.10415367,1.0638904,0.19209473
8,266.6666666666667,510.41174,97.48753,0.92941636,512.3671,94.95271,0.9044048,508.47717,95.41918,0.83163977,516.859,94.19369,0.7808922,506.36163,95.48099,0.5183327,525.0286,105.19856,0.9925996,502.72757,106.427574,0.99171174,531.66736,120.549835,0.9693309,497.97415,120.56384,0.94165254,524.77997,133.20454,0.9505129,501.9295,129.78236,0.91368204,520.71094,137.8154,0.9954065,506.92224,138.0553,0.9949852,520.4424,162.35687,0.9904665,507.5359,162.36325,0.98776245,516.5088,185.9563,0.97565484,510.2088,185.8604,0.9709207,0.95781186,0.10955787,0.93836558,0.15770437
9,300.0,509.06442,98.06349,0.8668723,510.7287,95.509155,0.8257666,507.40054,96.04642,0.7063232,515.1594,94.29886,0.6963981,505.6985,95.77907,0.39602724,524.2792,104.61884,0.9887284,501.77002,106.077515,0.9869599,531.4548,120.07001,0.9667382,497.29916,120.40662,0.9350143,524.4862,133.2694,0.9489293,501.60117,129.94513,0.90954834,520.2914,138.18745,0.9954585,506.4384,138.54593,0.9949738,519.838,162.63335,0.99135053,507.24313,162.76906,0.9888193,515.9981,186.17429,0.9779479,510.25366,186.21967,0.9735517,0.93712792,0.06042878,0.91134458,0.20978121
10,333.3333333333333,507.7938,97.963295,0.80757034,509.37064,95.484436,0.7724513,506.488,95.98472,0.5843838,513.9944,94.373604,0.67555046,505.41895,95.80595,0.2877099,523.5421,104.60147,0.98593926,501.7297,106.09307,0.9796408,531.1268,119.80507,0.9680991,497.4142,120.4814,0.9122409,524.75494,133.04715,0.95094025,500.9923,130.4346,0.88814324,519.64233,138.38211,0.9953106,506.25177,138.71431,0.9941233,519.1724,162.68484,0.99181527,507.09796,162.8232,0.98799604,516.08734,186.25102,0.97953343,510.1701,186.21935,0.9730598,0.93156074,0.06779814,0.90446651,0.21248331
11,366.66666666666663,507.28506,97.26481,0.869528,508.99326,94.76892,0.8483519,505.75577,95.25475,0.68208843,513.5352,93.82667,0.7506369,504.33316,95.25231,0.3367318,522.7651,104.5206,0.9899407,501.12576,106.11169,0.98391694,530.92175,119.80079,0.97288597,497.66064,120.66588,0.9110203,524.441,133.19788,0.9559979,500.15936,130.43103,0.8853356,518.8502,138.10854,0.9955142,505.53253,138.49893,0.9940579,518.5769,162.59584,0.99178934,506.49396,162.80304,0.9871911,516.3681,186.24911,0.97920495,509.95645,186.30853,0.971306,0.90654806,0.05993749,0.89169295,0.15205453
12,400.0,506.5637,97.33116,0.8895873,508.3321,94.81053,0.877527,504.9208,95.295105,0.70982486,512.9247,93.78102,0.7894918,503.4151,95.221504,0.33831096,522.1096,104.41375,0.9913327,500.73294,106.081696,0.9841903,530.3751,119.71545,0.97552866,497.89432,120.72638,0.9003522,524.41473,133.32074,0.9588722,499.62683,130.25195,0.8743528,518.5242,137.62926,0.9955863,505.3702,138.06728,0.9937084,518.5397,162.299,0.99204844,506.50092,162.55347,0.9865935,516.78345,186.19043,0.9799469,509.85052,186.24643,0.97068036,0.97652408,0.10096028,0.97128207,0.00417597
13,433.33333333333337,505.10016,97.38437,0.90406775,507.00046,94.785,0.9026156,503.48267,95.24995,0.71785665,512.1028,93.49571,0.8323163,502.22696,94.90985,0.311465,521.578,104.10873,0.99256027,500.16257,105.698326,0.9834362,529.70557,119.736206,0.9792157,497.62842,120.70488,0.8823891,524.12994,133.57684,0.9636953,499.33704,130.58334,0.8582093,518.22424,137.71327,0.99567443,505.09555,138.0651,0.99311465,518.26953,162.58408,0.9922775,506.31595,162.7148,0.9853242,517.1166,186.61543,0.98032445,510.28766,186.37807,0.9685621,1.04582761,0.0675525,1.03097391,0.16212599
14,466.6666666666667,503.0888,96.714874,0.9117841,505.1481,94.22748,0.9082841,501.53833,94.63821,0.7339265,510.42578,93.36781,0.8508177,500.7792,94.68173,0.33860406,520.14606,104.125465,0.99321085,498.97937,105.759735,0.9853566,528.71094,119.289055,0.9751415,496.93628,120.333786,0.88135916,524.6345,133.47423,0.9523021,499.4686,130.8993,0.84299755,517.43616,137.45663,0.994361,504.45206,137.849,0.9916061,517.2534,162.20084,0.9868303,505.52414,162.34467,0.97716093,515.2511,186.09564,0.96527815,508.9305,185.70735,0.9478953,0.97170558,0.03660117,0.95212172,0.19062086
15,500.0,502.71075,96.72054,0.9123019,504.82452,94.251205,0.90718645,501.13177,94.60141,0.73947155,510.06613,93.381516,0.84654474,500.2951,94.52792,0.34684974,519.54254,104.12784,0.9928549,498.41678,105.65704,0.9849834,527.76117,119.25803,0.9724486,496.12128,120.60588,0.8764433,524.1094,133.21411,0.94723105,498.16605,132.12576,0.83498037,516.90607,137.64651,0.9939948,503.99243,138.00577,0.99117434,516.90015,162.59396,0.9861645,505.36044,162.67377,0.97639686,515.1427,186.59775,0.9640856,508.84485,186.06494,0.946688,0.97973142,0.04986602,0.9562977,0.20707911
16,533.3333333333334,502.5808,96.75484,0.9268814,504.72327,94.31352,0.9149926,500.89847,94.61405,0.78827626,509.7875,93.493805,0.8404351,499.7812,94.480896,0.41320848,518.73193,104.34495,0.99363637,497.6792,105.67495,0.989277,526.5969,119.48099,0.9728995,495.2671,120.6228,0.9109233,523.035,132.48703,0.94951874,497.2935,131.79715,0.87310696,516.28094,137.76715,0.99461716,503.43643,138.10092,0.9930056,516.20325,162.63094,0.9868216,505.00082,162.66205,0.9800419,514.8743,186.37915,0.9649011,508.86694,185.81557,0.9521379,0.98217998,0.04839215,0.94647188,0.25792771
17,566.6666666666666,502.0476,96.45157,0.92503583,504.19247,94.03634,0.9100534,500.3793,94.327644,0.7890949,509.23254,93.38694,0.83114654,499.30087,94.33748,0.42642203,518.0513,104.45912,0.99314463,497.2772,105.73305,0.98917204,525.6769,119.73213,0.9692555,494.78867,120.75572,0.91087204,521.88617,132.44083,0.94333243,496.98013,131.84073,0.87095505,515.9096,137.8403,0.9941089,503.2698,138.17632,0.99262625,515.6011,162.66685,0.98554313,505.04898,162.69571,0.97902334,514.3259,186.19914,0.9619289,509.14813,185.60649,0.9496583,0.99341652,0.02505583,0.95015656,0.28887904
18,600.0,501.80304,96.10194,0.9220549,503.9129,93.723465,0.89875084,500.046,94.02384,0.79837424,508.63907,93.220505,0.80319506,498.73636,94.177284,0.4650222,517.0248,104.25824,0.9921502,496.6931,105.75725,0.98939335,524.6794,119.15227,0.9615578,494.5631,120.98755,0.91571045,521.12683,130.97716,0.9314414,496.2905,132.0235,0.8733601,515.3419,137.23764,0.99355,502.9586,137.73714,0.9926012,514.9114,162.07025,0.9847462,504.62393,162.24693,0.97990674,514.47906,185.6275,0.9612496,509.07498,185.24838,0.9521537,1.09774904,0.00466726,1.06904895,0.24933012
19,633.3333333333333,500.56277,96.40112,0.9049684,502.61343,94.05175,0.88087314,499.084,94.312675,0.7511073,507.64798,93.39563,0.7924559,498.3598,94.27035,0.40780172,516.50885,104.26543,0.99080276,496.59363,105.55175,0.9866751,524.15625,119.24739,0.95932704,494.5189,120.7814,0.90279514,520.3121,130.5944,0.9282072,495.88602,131.86421,0.8596796,514.63324,137.47284,0.9928161,502.64813,137.80644,0.9914637,514.09607,162.0231,0.9833702,504.89682,162.03737,0.9773974,513.67554,185.17511,0.95783633,509.7708,184.50478,0.9467679,1.24165363,-0.00245645,1.2255251,0.1994641
20,666.6666666666666,499.8075,96.55375,0.8976191,501.8003,94.23176,0.87632465,498.47235,94.45474,0.7244097,506.95996,93.48362,0.7942359,498.0202,94.253395,0.36876976,516.06335,104.26803,0.99051255,496.30566,105.25974,0.9850552,523.72034,119.64688,0.9616174,494.15033,120.39365,0.8951883,520.00934,131.57774,0.93178594,495.38058,131.43208,0.85339165,514.02954,137.65514,0.99281824,502.12302,137.83466,0.9910813,513.69867,162.63126,0.9833597,504.2573,162.52884,0.97630715,513.2408,186.24101,0.9572417,508.64975,185.40533,0.9442002,1.24874494,-0.03168826,1.21226024,0.29796792
21,700.0,499.45276,96.176,0.8884993,501.40863,93.88486,0.8571335,498.08737,94.09935,0.7195558,506.42926,93.234146,0.7614839,497.59708,93.96647,0.38550702,515.3176,104.03103,0.9887404,495.69467,104.993996,0.98473674,522.55884,119.53168,0.9541669,492.74142,120.49861,0.90340686,519.3074,131.71825,0.92112327,493.93155,132.96387,0.86024785,513.4558,137.57626,0.991368,501.78955,137.76381,0.99014074,512.8957,162.84572,0.97837573,504.87842,162.72284,0.97197616,511.39227,186.36719,0.9431752,509.13507,185.50482,0.9309507,1.16649966,-0.04200537,1.08771801,0.41931677
22,733.3333333333333,499.07367,96.15261,0.86967206,500.96194,93.91754,0.836927,497.8009,94.11401,0.67932236,505.85834,93.41078,0.74518335,497.42978,94.07702,0.34960887,514.59033,104.1957,0.98731905,495.5009,105.04627,0.9816549,521.976,119.72175,0.9527513,492.44467,120.388916,0.8915687,519.78265,132.24985,0.9187868,493.1202,132.59007,0.8476065,512.67786,137.59116,0.99103796,501.37073,137.75021,0.98939764,512.02905,163.29121,0.9783075,504.40308,163.19046,0.9709235,510.89603,187.26344,0.94356805,508.46765,186.43909,0.9297228,1.05578153,-0.08769542,0.94524365,0.46205907
23,766.6666666666667,498.99838,97.02659,0.8837477,500.9073,94.76389,0.8461081,497.52612,94.950386,0.71728885,505.6495,94.11774,0.7380994,496.75388,94.70387,0.39075166,513.84973,104.67941,0.9880555,494.67786,105.4194,0.98435205,521.303,120.24385,0.95179456,491.47687,120.81294,0.904426,520.0322,132.90079,0.918223,493.16058,132.98122,0.8616391,512.1491,137.89548,0.99169546,500.81055,138.07898,0.99070287,511.22787,164.13835,0.9799699,503.86658,164.06474,0.97454923,510.0675,188.88852,0.9479775,507.98987,188.14502,0.93758464,1.00992981,0.15254582,0.91060764,0.4092453
24,800.0,499.33652,97.59112,0.89750487,501.28226,95.29541,0.8495267,497.58838,95.42454,0.7631001,505.66348,94.49928,0.71355593,496.04926,94.86824,0.45770288,513.1819,104.76509,0.9889432,493.3117,105.34562,0.988052,520.59564,120.41994,0.9512047,490.0745,121.13417,0.9270099,519.6338,133.11348,0.919454,492.55643,134.03395,0.8881361,511.60632,137.69777,0.99290437,499.7981,137.91133,0.9928415,510.51398,164.37875,0.98288894,502.8168,164.31628,0.9803396,509.85178,189.81757,0.9553267,507.61914,189.17932,0.9500321,1.16609888,0.14468516,0.99388145,0.5924968
25,833.3333333333334,499.1544,98.21939,0.9011438,501.12332,95.85839,0.8514009,497.2057,95.98117,0.77189815,505.33447,94.96722,0.7097507,495.23123,95.30334,0.4698621,512.6491,105.161896,0.989472,492.40186,105.65971,0.9886912,520.2365,121.23038,0.9528951,489.6593,121.602936,0.929782,519.15045,134.32906,0.92236906,492.18915,134.14835,0.8923937,510.70172,137.7001,0.9934716,498.66278,137.90808,0.99343914,509.45114,164.65988,0.9846223,501.97003,164.63644,0.98236394,508.28525,190.42245,0.9598962,506.56677,189.89978,0.95515674,0.99306783,0.13264854,0.81431463,0.55270224
26,866.6666666666667,496.47348,99.26819,0.90984184,498.60413,96.75096,0.8931678,494.8693,96.89275,0.75750786,504.19693,95.04431,0.7904728,493.8429,95.570435,0.3831167,513.1796,104.71521,0.99103796,491.747,105.15788,0.9868014,520.3024,121.44876,0.9698732,488.92624,121.04286,0.9166409,518.43146,135.45325,0.94974107,490.95972,132.6375,0.88721555,510.9495,137.63573,0.99471223,498.2803,137.6355,0.9934396,509.7361,164.50485,0.9897641,501.82983,164.20343,0.98525476,507.8957,190.96237,0.97202605,506.00583,189.90007,0.9634504,0.82247735,-0.13436806,0.69689611,0.41563208
27,900.0,495.2809,99.15373,0.91627663,497.54187,96.67049,0.9091993,493.80273,96.73675,0.7532913,503.46228,95.23229,0.8273908,492.9282,95.56627,0.34942493,512.504,105.182724,0.99244046,490.63733,105.26003,0.98653376,519.7269,121.68416,0.97637343,486.51907,120.39227,0.9090226,517.71967,135.15967,0.9590078,489.21475,131.3179,0.88200086,510.148,138.02509,0.99521434,497.20142,137.85278,0.99338996,508.93796,164.74947,0.99056655,500.97168,164.29868,0.98463863,506.88965,191.18304,0.9734795,505.46436,189.8713,0.9620187,0.97179876,-0.03046003,0.82954465,0.50529267
28,933.3333333333334,495.06293,99.482925,0.94198966,497.1855,96.99356,0.9251736,493.13135,97.220665,0.8455478,502.26483,95.81033,0.80742025,491.4641,96.60403,0.4845504,510.8036,105.74997,0.9930032,489.02197,106.62227,0.9918148,518.56396,121.97189,0.9761455,484.94217,121.8501,0.9520648,516.90985,135.36887,0.9614801,488.5095,132.62988,0.9311604,509.64594,137.17531,0.9952539,496.68542,137.50558,0.99480504,508.39487,164.27264,0.9893693,500.3673,164.25497,0.98635304,505.44922,190.40172,0.96944696,504.18036,189.84505,0.96334124,0.81862938,0.231398,0.67994658,0.39278706
29,966.6666666666666,495.40353,101.26401,0.9388279,497.38403,98.703384,0.9182072,493.273,98.979324,0.8411277,502.14713,96.870384,0.7889629,491.19675,97.74849,0.48550215,510.59634,105.94643,0.99239653,488.55908,106.73016,0.99166495,517.59326,123.26128,0.9743969,484.70657,122.45944,0.95317227,514.49805,138.35136,0.9596018,488.2245,134.2094,0.9328019,509.38855,136.335,0.9951285,496.22403,136.6628,0.99484634,507.3346,163.92181,0.98965573,498.88184,163.93135,0.98708713,504.75723,190.87802,0.9704028,503.18573,190.44962,0.9651118,0.82705639,0.20241184,0.75535973,0.2692274
30,1000.0,493.14377,102.302765,0.9263005,495.23145,99.76141,0.9077292,491.3507,100.01248,0.7955189,500.77594,97.91639,0.80297464,490.09747,98.71161,0.42693835,510.10086,107.00908,0.99297076,487.635,107.65443,0.9910432,517.2894,123.848434,0.975899,483.95273,123.177475,0.94390464,513.19965,137.79997,0.9599909,488.32507,134.50931,0.9202845,508.6616,138.36496,0.99557906,495.20023,138.48787,0.9949708,506.2783,165.25229,0.99036026,497.39407,165.04408,0.98703545,504.4576,192.0637,0.9711911,502.8694,191.23068,0.9640937,1.05883893,0.10341673,1.0179547,0.27242079
31,1033.3333333333335,491.7708,103.066765,0.74561656,493.3625,100.59223,0.67635316,490.43307,101.026855,0.51256645,498.3057,99.10906,0.56836146,489.646,100.33777,0.27088436,508.343,107.939026,0.9810503,486.17465,109.314186,0.98051447,516.42084,123.7504,0.963003,481.91672,124.05669,0.94318104,512.8796,138.92139,0.9466656,486.51874,136.04962,0.9228826,508.3015,140.59431,0.9950942,494.9611,141.19785,0.9951037,505.83502,166.37633,0.9905346,497.16382,166.69809,0.9890399,504.35437,191.94185,0.97339433,502.89404,191.88388,0.97031015,0.98925457,0.18644489,0.95408689,0.1832515
32,1066.6666666666667,489.95148,107.93025,0.89550567,491.77267,105.26257,0.8863105,488.0765,105.74008,0.71014535,497.09854,102.64247,0.8041267,486.95972,103.981766,0.3266895,507.5369,110.07643,0.9913264,485.36252,111.7318,0.9847274,516.2961,125.86583,0.9708299,482.28375,127.63051,0.8948663,512.3593,140.53906,0.94704413,484.57535,140.51514,0.85821116,507.15607,140.12666,0.99444723,493.89847,140.58475,0.9925569,505.2829,166.56146,0.9881688,495.20914,166.72504,0.98125684,502.8519,193.16527,0.9686859,500.4716,192.79568,0.9560046,0.95460504,0.40752578,0.85165274,0.14100048
33,1100.0,489.753,111.136566,0.8879312,491.27805,108.351234,0.8732022,487.4326,108.93462,0.70369345,495.90137,104.82225,0.77825207,485.55548,106.38514,0.33143845,506.27005,111.210396,0.98963624,484.46008,112.8948,0.982287,515.12213,127.58942,0.96301126,481.6705,128.50388,0.8782929,509.96152,144.77827,0.933517,482.12085,141.98499,0.837166,506.36646,140.47574,0.9937634,493.43103,141.06024,0.99177176,504.19293,166.9493,0.9882031,494.77332,167.3323,0.98165727,501.06836,193.67453,0.9702693,498.9956,193.65964,0.95863146,0.73645785,0.38811979,0.62541329,0.0243189
34,1133.3333333333333,487.72995,113.159225,0.895939,489.1883,110.56071,0.8988892,485.82895,111.03886,0.69296306,494.11404,107.321014,0.814085,484.43573,108.44134,0.27960038,504.28534,113.83887,0.9898717,483.24652,113.841866,0.97782177,512.42065,131.13977,0.9726399,478.8758,126.15712,0.8520664,508.76624,148.7127,0.9504544,479.00266,132.12875,0.82294923,504.87744,140.85893,0.99181116,492.2497,140.86597,0.9872777,503.95703,166.73013,0.9813347,494.64105,166.67728,0.9657497,501.60394,192.56354,0.9500036,498.5484,191.96414,0.9232443,0.8990914,0.6060073,0.61337666,0.25473432
35,1166.6666666666667,484.88892,117.73893,0.866036,486.4157,115.186104,0.8876077,483.42114,115.56888,0.59666497,492.0715,111.76577,0.83339673,483.03598,112.70105,0.19946024,503.08987,117.373024,0.98786724,482.45358,117.73023,0.962999,511.69675,133.9829,0.9709399,478.64648,132.1914,0.7597683,507.55133,149.54161,0.94536453,479.01566,141.99454,0.7355237,503.77432,142.12257,0.99003357,491.55917,142.04774,0.98138857,501.87122,166.79103,0.98120487,493.45142,166.55292,0.9583228,500.31207,192.69258,0.9543343,499.46436,191.65652,0.9192748,1.29979735,0.27880757,1.23142059,0.30877632
36,1200.0,484.95224,121.270035,0.92071885,486.66455,118.65636,0.93033713,482.9106,119.066925,0.74845105,491.86212,115.233475,0.85925364,481.2992,116.11448,0.29856983,501.25577,120.84535,0.9893371,481.06458,120.79083,0.97282636,509.97855,136.96758,0.9680873,476.51086,133.23041,0.7935761,505.96832,152.32013,0.9410964,476.21622,140.36829,0.7625249,502.95728,144.60817,0.985238,490.97607,144.52837,0.975276,498.86136,167.50365,0.9655955,491.34515,167.27113,0.93139684,500.19876,191.26627,0.9153542,500.0954,190.37549,0.86272454,1.48481842,0.4146495,1.41172434,0.1994641
37,1233.3333333333335,482.65027,124.726105,0.8581006,484.0825,122.16727,0.86954606,480.461,122.73529,0.6017433,488.48236,119.378296,0.82262135,478.80975,120.69046,0.23045702,498.74188,124.30295,0.9878984,479.15372,125.52304,0.96704715,507.89542,140.31393,0.9653746,476.17606,139.65231,0.7817746,503.1742,154.71404,0.9323789,475.77185,148.67706,0.74367964,503.5751,144.0524,0.99103653,492.016,144.61406,0.98499817,498.58066,167.07512,0.9856344,491.18176,167.5059,0.9703315,501.55807,191.83954,0.96757966,501.65588,191.67242,0.9436043,1.12464008,0.31737391,1.05996007,0.20142926
38,1266.6666666666665,480.69186,128.47244,0.9194702,482.0987,125.443085,0.92076224,477.9296,126.50635,0.7489757,486.78375,121.837906,0.829347,476.47507,124.70892,0.30740592,498.52808,126.76062,0.98813546,478.25806,130.89111,0.97694564,508.77963,141.55174,0.9680186,477.71304,147.2096,0.8541629,504.19498,159.08237,0.9512541,475.3715,161.32178,0.8421237,505.90897,145.20113,0.9896869,493.65295,147.03198,0.9849385,499.22885,167.28421,0.98481363,492.05875,168.70549,0.9727907,498.07596,189.64099,0.97122455,498.3714,190.72772,0.9560025,0.959372,0.18374279,0.88137584,0.3313757
39,1300.0,478.76178,132.73096,0.90402853,479.8852,129.8036,0.8631598,475.70633,130.82285,0.77424794,483.85355,126.45163,0.69189304,473.62967,129.12015,0.44316038,493.66922,129.45703,0.9831245,475.2768,134.64258,0.98346794,501.4929,144.95749,0.9377153,478.0323,155.1153,0.91305304,498.4037,161.36398,0.9145676,481.5339,172.84935,0.8877706,506.06772,140.67578,0.98841697,494.6563,143.44325,0.9888615,498.81076,163.79099,0.9855269,491.589,166.12057,0.9833171,499.62772,187.96292,0.975031,497.9601,190.23563,0.97199315,0.79297441,0.24711931,0.61779828,0.43135339
40,1333.3333333333333,477.66522,139.83383,0.8419199,478.47275,137.06282,0.83055353,475.44244,137.99562,0.62240076,482.41458,132.52922,0.7310681,475.08694,134.2829,0.31179285,491.32126,133.84894,0.97555,478.6779,136.33432,0.96001023,497.1681,150.70923,0.9234376,479.87503,155.06989,0.772855,494.4391,170.47395,0.87223715,482.70016,172.02771,0.7221477,504.94635,144.84808,0.9803382,496.81284,146.33058,0.9749016,495.9234,164.79942,0.977219,489.5095,166.00433,0.96398133,498.28305,187.55307,0.96167946,495.8867,188.23763,0.9461096,1.03768351,0.2205896,0.90029054,0.46648069
41,1366.6666666666667,476.45212,145.08319,0.8733551,477.18015,142.04529,0.86598843,473.32013,142.71344,0.6108997,480.29913,137.2982,0.8051284,472.26904,138.59666,0.27225786,488.19022,137.92012,0.9872875,474.90668,139.73523,0.9701067,491.49854,159.56262,0.9664179,475.9319,161.417,0.8114064,486.83542,185.0663,0.93959856,477.44196,182.19913,0.7859239,502.06674,141.63899,0.9864612,493.77188,143.07028,0.978869,495.26715,166.42508,0.98154837,490.0772,167.76605,0.96451366,498.403,192.26138,0.96017736,497.15085,193.23172,0.9353254,1.08187531,0.17637343,0.97668627,0.43061646
42,1400.0,474.8895,149.58568,0.838373,475.5894,146.65302,0.8409446,472.0637,147.40485,0.5693368,478.79898,142.52112,0.8026595,470.26727,143.7604,0.25843593,487.12122,143.42998,0.9838935,472.41397,144.98634,0.9585491,490.297,164.63617,0.95618975,472.1161,166.25623,0.7517678,483.29153,187.32913,0.90832114,473.51846,185.80449,0.68956757,501.47894,145.5612,0.9812583,491.72446,146.70192,0.9699138,493.99023,169.85275,0.97225595,484.59857,170.86656,0.9443404,500.04138,193.06006,0.9331171,493.79654,193.78851,0.8882199,0.96652179,0.1859536,0.86319807,0.3930327
43,1433.3333333333333,473.48596,156.51857,0.82687736,474.36005,153.41678,0.8358383,470.34048,153.98737,0.53375554,477.7181,148.54591,0.81036794,468.16882,149.28813,0.22593533,485.83273,148.81107,0.9836427,469.63147,149.06682,0.9528812,485.847,171.43184,0.9529027,464.18677,169.99863,0.69936806,474.83594,198.83437,0.8993367,459.34607,196.16946,0.6377129,498.78772,146.84186,0.9838575,487.958,147.3503,0.971675,495.9388,170.43971,0.98171633,484.39844,170.85748,0.9598301,500.94006,194.07922,0.96228284,491.40866,193.91194,0.93127155,0.73453844,0.2205896,0.66054059,0.23360881
44,1466.6666666666665,472.22772,161.8539,0.8474564,473.8452,158.88588,0.8251237,469.23816,159.29189,0.66652155,478.25336,154.41962,0.7061992,466.58777,154.81558,0.34535438,485.6419,153.8788,0.97540444,465.18176,153.55101,0.9682045,483.4267,178.9311,0.92778635,454.03787,175.74382,0.85067827,471.9015,204.63663,0.86472875,447.4104,202.41568,0.77755076,495.31082,148.16753,0.9712848,481.8003,148.52908,0.9668255,495.45123,172.13686,0.951593,481.3769,172.37411,0.93238354,501.43945,194.19801,0.8883639,490.77026,193.80602,0.85547936,0.55342195,0.20953556,0.48588668,0.16212599
45,1500.0,467.20078,166.191,0.9155725,468.35376,163.02391,0.89747834,463.50153,163.24812,0.7574009,472.89526,156.48758,0.71051234,461.4805,156.53339,0.30383095,485.1994,155.6976,0.97478616,461.7644,153.2155,0.9793615,485.54132,186.99167,0.94302094,450.89203,178.13223,0.9260176,477.17368,219.96773,0.9111201,436.92023,209.76791,0.89480644,495.8215,154.34239,0.9637223,480.2322,153.36081,0.96669,491.21838,182.52158,0.92010444,470.67178,181.19177,0.90671176,491.79364,210.66675,0.80716807,469.59543,208.01202,0.78398985,0.9819492,0.41980806,0.38861109,0.79810203
46,1533.3333333333335,40.280354,135.09418,0.0073724706,37.842796,132.28876,0.0030146127,41.291306,132.69266,0.00703214,28.278645,129.89423,0.14223571,42.789665,131.58247,0.33962235,23.582937,136.62689,0.87112147,47.08879,139.46994,0.9516006,10.255379,138.90436,0.84765565,60.640495,144.75192,0.96889514,12.483189,138.27805,0.7301764,75.02054,145.58412,0.8999006,26.732182,173.54367,0.98837435,40.135956,174.01631,0.99370265,20.164927,198.59488,0.9474841,27.221836,198.4733,0.96801656,16.016075,217.16762,0.8197474,15.398998,217.80276,0.87060523,0.69518432,0.41391257,-0.12822692,0.54361336
47,1566.6666666666667,460.2123,171.45792,0.5509551,461.21518,168.75008,0.5748167,457.52505,169.11298,0.27120996,466.1616,163.75876,0.5090346,457.0225,164.48747,0.09441917,479.54883,160.50919,0.91550606,456.7875,161.20752,0.848975,491.3976,179.53174,0.9114927,448.22595,180.13115,0.7419631,493.70853,188.9316,0.86907893,444.43042,189.7717,0.72614485,487.20206,164.10844,0.949617,473.95706,164.4698,0.9330384,483.71136,199.81686,0.8986076,477.0395,200.09831,0.8485478,480.31702,231.87515,0.6977226,480.59616,231.2728,0.6184391,1.42687333,0.40089336,-1.17909811,0.69640482
48,1600.0,454.49142,181.15323,0.840246,454.6555,178.22765,0.76156557,451.45206,179.44899,0.62069494,459.4409,172.12766,0.61897117,446.55643,176.47835,0.34064195,472.0727,166.13528,0.9705053,447.18777,178.04482,0.94073075,489.96405,175.25874,0.9544373,433.56308,206.21703,0.86962384,497.8809,191.60785,0.93371755,421.10883,228.46126,0.8504095,485.51074,161.17136,0.96306473,469.3235,165.25186,0.94543517,480.62598,207.80289,0.8974535,460.81396,206.88972,0.8462629,483.672,238.4479,0.6857952,460.67587,228.88435,0.6270387,2.47778196,0.12945515,-2.33510555,0.8184906
49,1633.3333333333333,444.97952,192.62772,0.73725027,444.8862,189.6774,0.61811656,443.14536,190.8252,0.5028863,450.73276,182.83635,0.5404578,441.30237,186.4116,0.33347413,465.79327,175.43646,0.96026534,440.3437,185.22253,0.9473607,486.70966,188.01802,0.9389542,430.65787,212.95319,0.89522505,492.93036,198.56995,0.9125946,421.0066,234.91632,0.85891885,480.6295,167.61264,0.96794266,464.97144,171.36896,0.96123177,480.60693,207.44257,0.92918986,463.22058,205.55515,0.91273594,484.8547,235.66156,0.77993584,470.57938,226.88608,0.763619,3.08314575,0.80203236,-2.81755319,0.96121061
50,1666.6666666666667,33.12683,131.03929,0.0919319,31.635242,128.41347,0.025269728,35.089046,128.98633,0.06298226,25.496151,128.5636,0.1319303,42.01809,129.11794,0.37481114,20.991716,138.44888,0.7018693,45.59153,138.16736,0.9266218,8.541248,150.21715,0.6089215,60.19995,145.75993,0.93214774,6.6303368,146.42673,0.57738066,72.55915,142.86362,0.8679198,24.427696,181.96228,0.93523717,38.711506,182.15283,0.96967727,14.39995,207.56937,0.8579144,28.086697,209.05783,0.9311142,14.935964,222.03632,0.698193,27.850685,225.55676,0.79873294,2.20715513,0.70745887,-1.86469453,0.9454893
51,1700.0,32.547485,130.58694,0.008038737,30.346748,127.72298,0.0036282165,34.162903,127.98915,0.0066792206,24.49839,126.37453,0.22118913,39.411095,126.76889,0.40484506,19.463581,137.6787,0.899708,45.725048,136.23485,0.96179867,9.24378,152.46078,0.8197448,62.465355,143.91992,0.9604762,9.172667,165.91275,0.63629,77.50896,146.94058,0.84775996,23.463804,179.7285,0.98545384,39.14797,178.78316,0.99203074,14.684124,201.80028,0.9197571,26.947243,201.02544,0.9502631,13.218922,222.66977,0.7591172,19.33898,222.33124,0.8216363,0.97193647,0.05748103,-0.49251911,0.83593143
52,1733.3333333333335,428.61285,200.78441,0.7331779,425.42847,197.64713,0.59203285,425.32095,201.67477,0.55478895,427.63446,192.75214,0.52993095,425.25537,203.63666,0.45701474,447.373,185.84259,0.9581345,431.38156,204.94333,0.9572334,476.0662,175.53456,0.91704774,425.6234,217.5427,0.9008328,492.93457,159.61772,0.88790214,417.7684,226.46967,0.86337155,474.42493,181.3609,0.9628664,467.28412,190.52618,0.9613495,482.01132,196.55931,0.9171148,482.26398,202.11458,0.91348803,487.26334,198.89014,0.79994386,489.47723,197.61734,0.8004426,0.53396047,0.35471201,0.09506479,0.3876285
54,1800.0,44.053173,135.7268,0.07620911,40.94627,132.9262,0.013958321,45.031975,133.37958,0.072949946,27.94674,130.62943,0.06895514,45.80109,131.91013,0.50088847,19.676687,136.58061,0.6125311,48.00513,137.6228,0.9325876,7.5831547,151.66975,0.51124275,67.24327,144.56186,0.95074534,9.691265,169.26959,0.5187423,84.09331,148.95161,0.9005004,22.42471,176.63976,0.9166335,38.49262,177.22473,0.9684911,17.12543,198.3837,0.8334951,29.510529,199.66078,0.933106,8.266607,220.19788,0.67826587,18.267508,221.88554,0.80445814,1.72332784,1.00518114,-1.3628409,-0.31958472
55,1833.3333333333333,430.33347,229.90533,0.62530583,425.10596,224.19382,0.4502768,423.2943,229.25111,0.55257404,422.7183,218.30563,0.28038108,415.97424,231.4901,0.49635607,435.1992,221.40265,0.7831032,435.65744,231.4357,0.78077257,473.6356,209.09149,0.65160125,474.6485,216.93945,0.6733052,482.3163,191.34096,0.6841635,483.9823,191.20384,0.716765,457.68475,213.1609,0.5115407,459.33334,218.70856,0.5165395,480.34048,211.62193,0.25075868,488.796,214.74438,0.26161334,494.1331,201.16212,0.14312185,492.44913,196.36388,0.1452395,1.53505351,0.53403319,-1.06511863,-0.96784303
56,1866.6666666666667,426.0731,234.5583,0.48250562,422.59842,230.12971,0.44167575,421.09393,233.8874,0.29415506,423.21576,221.22578,0.2618919,416.34903,230.43428,0.17618068,445.25113,213.52852,0.72124785,423.56775,228.18695,0.48676828,478.86905,214.32593,0.7415024,437.61908,237.35545,0.3481601,467.81158,234.28122,0.72555184,444.04504,234.9767,0.44282615,474.26474,214.82022,0.4534976,459.50522,222.6655,0.34634843,468.0863,215.10254,0.20148587,455.8762,223.81319,0.13539374,455.58563,217.87384,0.12494174,453.31342,229.74876,0.09671461,1.6412925,0.94991091,-1.07027718,-0.80375188
58,1933.3333333333333,36.9548,131.14098,0.065493524,35.12783,128.642,0.018903589,38.54162,129.05125,0.046962496,27.129936,128.7198,0.118875496,43.59199,129.64024,0.33559322,21.244995,137.23582,0.6541142,46.495056,138.15706,0.88961864,5.28907,148.68094,0.56465906,62.288155,143.74211,0.8970935,3.7829208,156.1237,0.52397454,76.14181,140.46907,0.8131293,23.118324,179.04248,0.9237196,37.883045,179.39877,0.9594964,17.017254,207.10754,0.8534335,31.487783,206.92905,0.9203076,11.010136,225.88235,0.7074173,27.172642,225.68677,0.7931411,4.65679888,2.94209543,1.38322947,-3.33414555
59,1966.6666666666665,486.2089,207.6329,0.3714611,488.66556,205.77034,0.08806066,488.3959,204.50003,0.38013116,477.30228,205.21933,0.07695684,484.73993,203.07822,0.59161323,459.73706,209.02533,0.8097928,467.09192,208.76317,0.89994204,458.2906,224.66951,0.5671563,464.4052,222.66885,0.85552555,473.9092,217.33188,0.57284313,472.29056,215.3994,0.7701159,426.8929,219.03818,0.7054415,431.0796,218.82516,0.77069557,428.99008,227.60606,0.31801766,432.86194,227.68123,0.42024425,425.457,224.18605,0.15764853,429.29105,226.35753,0.20562957,0.45885411,-0.20928991,-0.0216168,0.40777143
60,2000.0,421.7369,205.43744,0.110732235,415.85327,203.95709,0.033668242,423.68723,203.62743,0.098150924,397.872,208.86252,0.08157331,421.01227,209.41942,0.30270094,399.6264,227.84424,0.47738945,420.48627,229.34445,0.653342,438.37527,223.82355,0.4050971,454.96396,225.11703,0.6802143,475.08023,204.67484,0.5192308,476.85477,202.03796,0.71281856,417.6068,229.55246,0.38511837,434.7622,232.9411,0.47831717,448.02362,211.54062,0.22649588,460.92682,211.56073,0.30784047,475.3879,204.75742,0.15337482,476.8018,205.33026,0.18604028,1.45640871,-0.21985267,-0.740621,1.23461398
61,2033.3333333333333,413.77536,193.74898,0.1346473,409.3732,191.19736,0.03499072,415.57538,190.46558,0.14275306,389.18274,197.22957,0.13946283,415.48242,197.57176,0.552054,385.17773,222.78502,0.6115358,417.40662,225.28313,0.8000553,417.7554,226.13333,0.3706405,452.8352,227.74323,0.7307523,470.43195,204.27579,0.3996822,475.74762,200.91702,0.6585949,405.98444,232.37233,0.286044,431.2991,236.61765,0.39110178,447.7575,211.11426,0.10797021,465.84357,210.34888,0.16781892,473.12143,210.28561,0.057219353,479.86844,209.4658,0.07506234,2.55375764,0.13117466,-1.69986644,1.9012957
62,2066.666666666667,414.8547,192.08301,0.13105676,409.58844,189.82303,0.03270925,416.2335,189.11723,0.1299233,388.74982,196.80626,0.12221419,415.56683,197.13007,0.54106855,386.57947,222.45325,0.62895924,418.42108,225.29193,0.7980023,422.65784,223.84363,0.41651794,456.16803,226.6643,0.7406622,471.26483,203.2806,0.446385,475.0422,199.24205,0.6856593,409.1595,231.9241,0.3007892,434.3603,236.14398,0.39676282,449.46085,210.58087,0.10566562,468.04138,209.75293,0.15836719,471.9422,210.62384,0.0513644,479.16345,208.70291,0.06585683,1.58331673,0.9589998,-0.82954465,0.9481914
63,2100.0,39.76537,133.40233,0.097784534,37.170597,131.23688,0.02099321,40.795906,131.65207,0.0713794,28.283144,131.04913,0.095187865,43.3812,132.18057,0.4158191,23.821745,137.23674,0.7201088,45.592705,138.53455,0.9434723,12.693979,148.57724,0.6738211,65.17789,142.90765,0.9615916,11.9669285,166.02461,0.6785447,83.548325,143.10837,0.9281144,25.230675,171.09358,0.95320356,36.792362,171.50015,0.98005784,20.600885,195.76382,0.8928292,27.970116,196.28375,0.95324486,9.882221,218.75922,0.744046,15.01853,219.2294,0.8409434,0.93252664,0.88039326,-0.25006706,-0.17882988
64,2133.3333333333335,418.3053,190.93048,0.2143147,412.34155,189.32413,0.06093271,418.53827,188.74199,0.1925068,394.5963,196.25531,0.10597593,414.3636,196.61884,0.46368018,397.83118,219.97723,0.6278682,420.1572,221.92001,0.8058145,438.84283,222.3522,0.4650092,459.4359,224.43164,0.7890053,472.75354,199.7558,0.5544829,476.04724,196.0568,0.7941905,426.30542,228.01056,0.41401002,443.94254,231.7768,0.540928,459.38882,209.86734,0.19822274,473.02344,210.63959,0.30225584,476.84686,201.97565,0.115219876,482.17664,203.51012,0.15322392,1.47774951,0.97693191,-0.81799931,-0.74848165
65,2166.6666666666665,418.8312,191.336,0.23900339,413.0464,189.48651,0.06415761,419.0192,188.6862,0.23293918,392.49335,196.19397,0.12846154,413.80615,196.54207,0.5681424,390.25592,220.43814,0.6631881,421.8051,222.94096,0.8323305,428.6795,224.13116,0.44601277,463.42435,226.3848,0.78682387,469.80966,201.25182,0.522194,477.71057,195.70377,0.77720183,420.29138,230.3404,0.35951212,443.67926,234.39592,0.48621944,458.40225,211.80923,0.15675092,475.1521,211.75946,0.2458057,477.56314,205.4275,0.08560426,485.33908,205.7659,0.1145962,1.38835656,1.27784758,-0.52469866,-0.13903532
66,2200.0,416.87476,191.27736,0.20882115,411.5815,189.38397,0.057271753,417.32098,188.80305,0.20812166,392.37964,195.793,0.12863551,412.87787,196.33176,0.54279697,392.20844,219.84247,0.65832835,419.6032,221.8659,0.8425461,428.67065,225.11765,0.42619175,459.4506,226.02368,0.79724026,470.11972,203.64824,0.4927025,477.02054,198.47263,0.7727788,421.58435,227.15494,0.48098648,442.34125,230.81339,0.62479734,453.4556,213.20596,0.28558725,467.46005,212.86975,0.42730477,475.84238,204.10431,0.19188851,481.54483,204.91373,0.2559067,1.36832088,1.30707938,-0.34881652,0.20535959
67,2233.3333333333335,412.12222,197.55833,0.08383801,409.08603,194.8165,0.022240246,412.5263,194.2157,0.08574575,387.33862,198.85194,0.26806787,414.53714,197.43042,0.77163607,380.24033,216.36894,0.81246626,422.80896,214.87648,0.856696,405.4036,221.68251,0.34848258,452.15414,214.58008,0.57330954,442.59616,214.87407,0.22888103,472.9947,200.78177,0.3332407,404.84335,233.04675,0.4357253,432.24374,234.83621,0.48576832,448.46033,220.85431,0.15017085,462.3975,220.76114,0.20538402,469.73355,220.99075,0.13265842,477.625,220.02255,0.16299818,1.57432872,1.32746796,-0.58856647,0.60821811
68,2266.6666666666665,484.9988,206.01682,0.41320044,486.01227,204.65097,0.13340752,485.1983,204.169,0.4413695,476.88745,207.96759,0.10470655,481.0166,207.24353,0.6254533,464.7038,214.67215,0.79242915,470.46567,214.91759,0.89754385,464.91348,213.2135,0.5870891,471.5414,213.14409,0.86764634,485.01016,201.85341,0.64158165,486.5116,201.28395,0.8279598,446.69748,220.24146,0.6906176,450.08228,220.65192,0.77612466,454.66772,220.1023,0.35714185,456.67996,220.42603,0.4838596,446.06107,215.15886,0.23393804,448.59024,217.07654,0.31184483,1.33308908,0.92362685,-0.67454238,0.68485949
69,2300.0,45.268105,131.04034,0.11432236,42.650154,128.549,0.022895886,45.867447,128.95058,0.100471936,30.376274,128.37479,0.08921932,45.583843,129.60428,0.514222,21.861261,135.98364,0.7121303,46.36582,137.61392,0.9412508,8.284592,147.6522,0.6157411,63.088768,143.7305,0.95068806,6.705002,152.19696,0.609065,80.079895,142.35547,0.9046147,24.15408,175.7834,0.9411883,37.203804,176.81448,0.9744427,20.420631,200.61615,0.8737105,29.072874,202.8932,0.94263077,14.035451,219.75462,0.72497165,17.853195,222.96027,0.8221443,1.00531095,0.7919609,-0.33579732,0.52027704
70,2333.3333333333335,486.5626,204.52477,0.6850048,488.10986,202.83237,0.2628378,486.15045,202.57443,0.717693,478.80038,205.90111,0.14387378,480.86984,205.94717,0.81325144,464.21228,214.27864,0.882048,469.28995,215.46907,0.9562889,460.994,214.69324,0.5659277,467.93008,216.21628,0.9038904,480.04996,203.58067,0.6084286,481.1695,204.38719,0.85435593,438.82108,222.73996,0.7245875,441.9198,223.19943,0.82319725,442.14795,222.8503,0.3691363,446.0442,223.42601,0.530521,428.09302,220.1621,0.22968535,433.2663,222.85088,0.32898462,0.84745679,0.70033515,-0.04740957,0.47483263
