frame_id,timestamp_ms,nose_x,nose_y,nose_conf,left_eye_x,left_eye_y,left_eye_conf,right_eye_x,right_eye_y,right_eye_conf,left_ear_x,left_ear_y,left_ear_conf,right_ear_x,right_ear_y,right_ear_conf,left_shoulder_x,left_shoulder_y,left_shoulder_conf,right_shoulder_x,right_shoulder_y,right_shoulder_conf,left_elbow_x,left_elbow_y,left_elbow_conf,right_elbow_x,right_elbow_y,right_elbow_conf,left_wrist_x,left_wrist_y,left_wrist_conf,right_wrist_x,right_wrist_y,right_wrist_conf,left_hip_x,left_hip_y,left_hip_conf,right_hip_x,right_hip_y,right_hip_conf,left_knee_x,left_knee_y,left_knee_conf,right_knee_x,right_knee_y,right_knee_conf,left_ankle_x,left_ankle_y,left_ankle_conf,right_ankle_x,right_ankle_y,right_ankle_conf,acc_x,acc_y,acc_z,acc_mag
0,0.0,552.0985,99.64134,0.95044667,556.7136,96.22759,0.9634094,550.91016,96.50729,0.62550986,568.5331,98.33635,0.955246,554.0426,98.36083,0.1845526,576.6601,118.559586,0.99787176,560.8575,119.32169,0.94751203,576.12085,146.91116,0.99555796,556.8934,145.54239,0.7081104,551.9382,165.76312,0.9882577,547.1301,163.37181,0.72629905,575.0057,167.21805,0.9935323,565.1571,164.87634,0.96743137,535.2407,179.61845,0.98093134,529.8784,179.12395,0.90454787,541.0564,224.36046,0.9138641,541.6955,221.23624,0.7833033,0.99650741,-0.44633776,0.88776262,0.07541315
1,33.333333333333336,552.1552,99.842545,0.9508164,556.79596,96.40936,0.96373934,550.96875,96.70398,0.6290638,568.70624,98.494156,0.9552191,554.1111,98.545715,0.18573025,576.6925,118.743385,0.9978447,560.8841,119.45398,0.94706386,576.0666,147.12643,0.99546427,556.9593,145.65086,0.70512426,551.97754,165.8383,0.98803073,547.3322,163.39284,0.7233178,574.6164,167.30699,0.99338734,564.7493,164.94083,0.96676785,535.1246,179.75381,0.980586,529.72974,179.21747,0.9031567,541.063,224.50826,0.91285044,541.5923,221.34245,0.78132725,0.89838371,-0.43012516,0.78680234,0.05502458
2,66.66666666666667,552.2476,99.90615,0.9517493,556.9254,96.45883,0.964407,551.045,96.75961,0.63357913,568.8942,98.549126,0.955753,554.14453,98.61057,0.18755324,576.7768,118.85699,0.99788886,560.86804,119.52529,0.94787836,576.14276,147.28831,0.99552876,556.9672,145.69983,0.70693356,552.0071,165.94101,0.98817176,547.23706,163.49321,0.7247031,574.4057,167.32321,0.9935133,564.4612,164.93448,0.9673021,535.12274,179.7464,0.9809732,529.57043,179.15398,0.9047508,541.3304,224.49007,0.91448176,541.66376,221.2694,0.78462136,1.0065534,-0.46549811,0.89046472,0.0594462
3,100.0,552.35016,99.978714,0.9521144,557.0438,96.52136,0.9642302,551.0884,96.83236,0.63919085,568.98584,98.638626,0.9550153,554.01776,98.74182,0.19106469,577.0148,119.0139,0.9978604,560.5924,119.681435,0.9491867,576.215,147.59053,0.9954216,556.614,146.0054,0.71328604,551.8781,165.97214,0.9879579,547.1101,163.763,0.728916,574.6645,167.25209,0.99357337,564.3622,164.8143,0.96823144,535.1992,179.75516,0.9813634,529.1784,178.8952,0.9081747,541.4916,224.62167,0.916872,541.4202,221.03781,0.79200006,1.01472721,-0.45346148,0.90471215,0.07443057
4,133.33333333333334,552.3911,100.287964,0.95316005,557.0898,96.79765,0.96432894,551.0598,97.15588,0.6483022,569.0211,98.83592,0.9542154,553.8397,99.049225,0.19649985,577.1268,119.17146,0.99782926,560.42993,119.8911,0.9512308,576.148,147.88391,0.99531245,556.3047,146.1737,0.7240069,551.7447,166.13051,0.9878109,546.95593,163.66661,0.73754495,575.0382,167.27286,0.9935355,564.5485,164.8634,0.96894485,535.18463,179.69624,0.9812524,529.12946,178.86916,0.90996206,541.5165,224.65836,0.91649306,541.5172,221.11716,0.79418623,0.98219286,-0.46279601,0.86368937,0.0675525
5,166.66666666666666,552.0477,100.49161,0.94885534,556.7886,96.90324,0.96104115,550.9915,97.52543,0.63954526,569.3294,98.73813,0.9521949,554.27075,99.215515,0.20029727,577.333,118.73184,0.99773705,560.55707,119.438,0.952785,576.0686,148.26808,0.99489164,556.4989,146.61748,0.72863406,551.3873,164.98949,0.98583543,546.34436,163.74095,0.72662765,574.87494,167.1279,0.9937262,564.2461,164.80142,0.97102416,534.1681,179.1065,0.9813704,527.7653,178.8459,0.9144905,543.11694,224.20636,0.91413575,543.19403,221.69019,0.79461306,0.99818033,-0.45567229,0.88506052,0.07344799
6,200.0,551.9242,100.6712,0.94954604,556.66003,97.085434,0.961474,550.8204,97.70125,0.64473647,569.10583,98.85794,0.952273,553.9959,99.32353,0.20338704,577.1637,118.72568,0.99772054,560.3932,119.47545,0.9532143,576.00916,148.18253,0.9948251,556.4687,146.58542,0.7304405,551.4286,165.10785,0.98566794,546.27277,163.75925,0.72766423,575.12665,167.17804,0.99360484,564.49854,164.87605,0.9707323,534.1675,179.09903,0.98090404,527.73785,178.85345,0.9131117,543.046,224.11328,0.91223854,543.17786,221.59518,0.79148906,0.98672055,-0.47065666,0.86368937,0.0783609
7,233.33333333333334,551.75085,100.731995,0.95227355,556.47156,97.10795,0.9628273,550.3328,97.80965,0.66707665,568.586,98.83827,0.9518176,552.9214,99.55934,0.21760114,576.7347,118.55186,0.99768233,559.4822,119.68148,0.95516646,576.0889,148.09041,0.9945846,555.9555,146.99757,0.7377744,551.3689,164.82454,0.98514473,546.0505,163.83192,0.73283726,575.23206,166.61542,0.99332917,564.3047,164.51932,0.970391,534.24365,178.79831,0.9800718,527.884,178.82903,0.911945,542.85767,224.05997,0.9089712,543.31415,221.80553,0.78778213,0.98651398,-0.45444406,0.87130437,0.08671284
8,266.6666666666667,552.30304,101.381195,0.97091955,556.21747,97.37262,0.98048246,550.13135,98.01597,0.7144445,567.0688,99.270615,0.95965815,550.4375,100.82362,0.10473594,576.8327,119.25134,0.99341655,559.39624,118.79318,0.970565,575.13086,150.12866,0.987485,558.5997,146.9247,0.7135614,549.0569,164.30203,0.9813493,546.65314,163.74165,0.77439964,578.4207,167.96458,0.9777445,565.6954,165.26039,0.9502828,530.9643,180.93567,0.957878,525.1966,177.94734,0.85523313,544.0381,225.63249,0.9015054,543.5205,221.4838,0.76737344,0.98048004,-0.4254579,0.87965632,0.08081735
9,300.0,551.8559,101.68379,0.97087675,555.7616,97.61233,0.98054916,549.5053,98.31706,0.7165111,566.50574,99.26522,0.9594246,549.5245,100.98628,0.10528935,576.17316,118.945435,0.993396,558.64496,118.74167,0.9699756,574.7492,149.54184,0.987473,558.0557,146.71904,0.70912486,549.4789,164.28734,0.98128533,546.7554,163.61244,0.7711934,578.0629,168.13893,0.9776258,565.32117,165.60156,0.94960445,531.1794,180.64203,0.9575656,525.53345,177.79381,0.85384893,543.7367,225.54272,0.90097374,543.51746,221.55469,0.76605916,1.00247191,-0.46132214,0.88825391,0.05600716
10,333.3333333333333,549.5694,101.7699,0.95337915,553.93134,98.05545,0.96146905,547.46295,98.91341,0.67308027,565.2364,99.69818,0.9478247,549.29803,101.260635,0.21997787,575.18225,119.30295,0.9974809,557.29004,121.85634,0.95593405,575.99475,146.99799,0.99436486,554.9296,147.61913,0.758704,552.2925,165.58542,0.986126,546.89417,163.09024,0.7649289,576.22955,167.22964,0.99296016,564.9796,165.60777,0.9704972,535.5841,178.764,0.9799254,529.3908,178.70654,0.9153536,540.5771,224.2605,0.91373897,541.0264,221.10638,0.8028716,0.99334068,-0.46402424,0.87670857,0.05281377
11,366.66666666666663,548.5521,103.27556,0.951884,552.05505,99.40584,0.96820307,546.46564,100.05722,0.61749905,562.4109,100.290726,0.94350356,547.4257,101.96663,0.08371039,574.33704,118.56763,0.9891857,556.18365,118.974976,0.94859666,575.9554,147.70067,0.9828783,556.97174,147.3446,0.64248365,552.16437,161.11519,0.9754993,548.1757,164.15765,0.72320014,577.4112,166.81685,0.97285175,564.59814,164.66829,0.93747216,532.9049,178.69127,0.9614274,527.35406,176.12106,0.86785346,542.4813,224.96956,0.9137093,542.5847,221.14209,0.7954395,0.96835451,-0.4632873,0.84845935,0.05649845
12,400.0,545.85535,103.965996,0.9463335,549.8046,100.03656,0.95153457,544.18176,100.91086,0.6635384,560.3867,100.983536,0.9355764,547.03644,102.45012,0.26013002,572.60974,118.27469,0.9957604,555.61865,122.20531,0.9600529,577.5089,143.9511,0.9892055,555.3604,147.52638,0.77947754,553.2273,164.61899,0.9779766,546.50616,164.3864,0.7832499,577.81384,167.07582,0.9889471,566.73145,165.95923,0.9653156,536.8105,178.41196,0.97610056,529.08905,179.1565,0.92432225,540.8855,221.88324,0.9135112,541.5885,220.29366,0.8359869,0.95960397,-0.46500682,0.8374053,0.05797232
13,433.33333333333337,543.8329,105.38248,0.9460492,547.63165,101.40443,0.95256656,542.32574,102.18483,0.6505935,558.26056,101.66849,0.93838274,545.6117,103.023285,0.24411717,571.4452,118.48035,0.99607617,554.3396,122.23894,0.9587082,576.87146,144.37798,0.99029493,553.2111,147.47961,0.77456707,552.20416,165.2342,0.9798323,543.54126,163.59183,0.78245926,577.48834,167.69583,0.9897466,566.4144,166.40918,0.96620977,537.58405,178.36938,0.9777634,529.30365,178.5712,0.92638195,540.68317,222.14116,0.9187952,540.4784,219.69519,0.8417689,0.99096211,-0.46721763,0.87105873,0.07050024
14,466.6666666666667,540.8566,107.07288,0.92695624,544.0786,102.950096,0.93655974,539.5715,103.94559,0.5540438,554.51794,102.182236,0.9317463,543.91394,104.09851,0.19840749,570.02856,117.821976,0.9959066,553.34875,122.16174,0.9526951,577.21985,143.8415,0.99124384,552.67566,147.76308,0.77160156,551.1393,164.68452,0.9818034,542.86414,163.91104,0.78551996,577.8479,168.12341,0.9907719,567.21106,166.96243,0.9683338,537.37946,178.14914,0.9797355,529.8445,178.46042,0.93033093,539.9915,222.39246,0.923683,540.2485,219.70477,0.8478939,0.99286544,-0.45935697,0.87695422,0.0756588
15,500.0,538.83624,109.19943,0.9363397,541.985,105.08082,0.94753116,537.43835,105.91824,0.5721841,552.129,103.78299,0.9426596,541.90173,105.30935,0.20191424,567.105,118.79945,0.9966736,553.20703,122.70592,0.9548494,574.00836,143.87218,0.99281114,552.5731,147.08237,0.7681217,549.39984,164.52611,0.98431826,541.20325,163.07016,0.7861169,578.7438,168.85724,0.9919521,569.8534,167.73586,0.97023815,537.2204,177.98218,0.9823344,530.7792,178.67776,0.9342682,539.8851,222.05678,0.9322309,539.9937,219.70117,0.857895,1.01655177,-0.46402424,0.90078183,0.08155429
16,533.3333333333334,536.6668,109.85688,0.9436882,539.43365,105.97046,0.96650165,534.4667,106.73168,0.49625036,549.8454,104.96868,0.9562243,536.799,106.981445,0.05179508,565.4253,119.970184,0.99011505,549.9298,120.79968,0.9371804,569.4505,147.63051,0.98412883,552.8901,146.46977,0.57960975,548.0759,162.5286,0.9732555,541.5473,160.81013,0.6705524,576.9258,167.38217,0.97186005,566.477,165.71535,0.9284203,533.7852,179.15106,0.9535889,531.6226,177.01125,0.8318145,539.15967,225.29471,0.8800229,541.1069,221.20483,0.7151219,0.9873528,-0.45837439,0.87179567,0.06878072
17,566.6666666666666,534.1811,111.89993,0.93830645,536.98016,107.63482,0.94867057,532.1715,108.58824,0.5876852,546.71124,105.44559,0.9419913,536.03906,107.31942,0.2125517,562.5727,120.01599,0.99656004,549.53186,122.67241,0.95650005,569.13074,146.98334,0.99244326,549.1011,146.65343,0.77883273,545.0488,166.65918,0.98373866,537.7053,163.5812,0.79628795,579.462,166.32849,0.99166495,571.04425,164.8447,0.9707638,536.8697,177.0061,0.9823611,530.9585,176.62935,0.93703383,540.8428,221.64688,0.9339685,539.8323,217.49202,0.8654253,0.97718747,-0.43823146,0.86835663,0.09383656
18,600.0,530.351,112.715614,0.8918514,531.9081,109.1052,0.9300118,528.3942,109.990524,0.34174672,540.3324,107.69319,0.93032515,531.9876,109.53281,0.04511024,557.7836,120.60347,0.9878829,545.31287,121.72858,0.9261655,566.2783,147.80244,0.98430043,549.6241,148.11725,0.6024548,545.91626,163.37358,0.97199684,537.9513,162.22084,0.679855,575.72363,165.92249,0.9753794,567.12244,164.80792,0.9379233,532.40045,178.83046,0.9565678,530.78644,177.32364,0.84430826,539.5862,224.01201,0.8743199,541.0263,220.732,0.7079269,1.02923906,-0.46525246,0.91404668,0.0859759
19,633.3333333333333,527.9785,116.12947,0.9255004,529.89655,111.65619,0.94308394,525.5336,113.250244,0.5284514,538.4749,108.425,0.94199747,529.6718,111.77809,0.18874621,555.0874,120.78874,0.99632436,546.39026,125.69656,0.94236064,564.4159,145.04033,0.9926352,548.9258,148.48671,0.72671497,543.64343,166.49187,0.9835278,537.5413,165.6233,0.75811553,577.74176,166.27267,0.9905055,572.1793,166.26457,0.963183,534.4033,176.26987,0.97993684,531.5976,178.4653,0.9210415,541.24493,220.79865,0.92615354,540.40497,218.37492,0.8406061,0.9912485,-0.44879422,0.88137584,0.06583298
20,666.6666666666666,523.9587,119.16905,0.90325296,525.45435,115.07035,0.92957044,522.1229,116.107315,0.43430427,533.723,111.30787,0.9408982,527.7474,113.34541,0.15841225,551.27704,122.33568,0.9963888,544.9139,125.66499,0.9325077,563.1064,146.10919,0.9935743,548.648,148.31735,0.70676297,543.35815,166.76291,0.98494625,535.75525,166.2452,0.7456648,575.8256,167.33693,0.9907612,572.0097,166.69145,0.961118,535.10895,178.88887,0.9785711,533.29987,179.70917,0.9103127,540.5946,221.64978,0.9163434,540.83154,217.69328,0.8152725,0.9935683,-0.45395277,0.87867374,0.09506479
21,700.0,521.5351,120.921646,0.9194166,523.0876,116.72739,0.94006395,519.1166,117.9059,0.5142394,530.9727,112.28325,0.9399401,523.51276,114.57727,0.19200014,547.2361,123.07646,0.99607855,541.8334,126.268555,0.93492395,559.4273,148.07515,0.9921674,547.7097,149.45132,0.70224816,542.57324,167.83784,0.98184204,536.55597,167.49213,0.73596144,573.9739,167.47311,0.9892988,570.59454,167.29301,0.9578197,533.5385,178.89786,0.97670764,532.231,181.21259,0.9082909,540.8301,220.88129,0.9159516,540.54065,219.19348,0.81945145,0.99139557,-0.44609212,0.88113019,0.08646719
22,733.3333333333333,516.7553,121.63197,0.88201636,517.8933,117.67461,0.9053951,514.9191,118.77017,0.41925558,525.5482,113.63246,0.91940993,520.3481,115.651085,0.16718476,543.43756,124.37482,0.9949536,537.764,126.95508,0.9310604,556.07794,149.50272,0.99095637,543.8712,149.88864,0.72845614,541.375,169.80875,0.9795221,535.8226,168.0493,0.7523966,572.3292,168.26678,0.989963,568.8153,167.98984,0.9641697,533.05707,181.07184,0.9781375,531.6192,182.62073,0.92180634,541.03357,221.5683,0.9220393,540.4084,218.9814,0.8412401,0.99809829,-0.44314437,0.8914473,0.07172847
23,766.6666666666667,513.15564,122.60651,0.90639573,514.219,118.52171,0.9298535,510.84613,119.857574,0.47686383,521.83826,114.507706,0.9347725,515.8242,117.167404,0.18122464,539.47906,125.22989,0.9957353,535.3392,128.62679,0.93302536,551.59265,148.84277,0.99169606,541.49927,150.41565,0.7078672,540.0743,170.43138,0.980309,534.2051,168.12239,0.7350186,572.4929,167.11594,0.98964256,570.048,167.37062,0.9606886,531.2574,181.00505,0.97749126,532.10376,182.72229,0.9137094,540.64154,222.03703,0.91934234,541.5828,218.32341,0.82931817,0.995387,-0.46009391,0.88039326,0.06337652
24,800.0,509.99454,127.26361,0.8417768,510.14423,123.85245,0.8923357,508.4146,124.21428,0.30378106,516.4783,118.2909,0.92835516,514.97784,118.85942,0.1280781,535.1525,125.57817,0.995552,534.6455,126.406845,0.90353686,547.2694,148.8569,0.9929739,542.5805,149.12195,0.6390836,538.2174,170.75648,0.9815901,533.5296,168.38779,0.6811391,571.6286,164.65762,0.9906122,571.9199,163.50604,0.9577366,531.86127,184.10742,0.97980624,534.8694,180.73576,0.9087295,539.66425,224.72379,0.92501104,543.6116,213.40977,0.8265043,1.00868652,-0.44658341,0.90176441,0.06951766
25,833.3333333333334,505.7322,127.040955,0.8785776,506.01257,123.68553,0.9284653,504.41333,123.79474,0.36406562,513.14404,118.48692,0.9466872,510.46646,118.353134,0.12443511,532.1879,126.18222,0.997335,532.6658,126.46286,0.89790046,546.26556,148.9734,0.995455,542.6795,149.01402,0.5948977,537.0834,171.94269,0.9851576,533.5154,167.19745,0.6303961,571.1532,160.91321,0.99269193,571.8827,159.26855,0.9584421,531.19885,183.25372,0.9812056,535.941,178.0652,0.89431435,538.3968,225.01219,0.9193102,546.0054,211.04117,0.7872088,0.99622373,-0.45468971,0.88284971,0.07934348
26,866.6666666666667,502.5952,127.28027,0.9042549,503.31616,123.66937,0.9356207,500.8804,124.18979,0.4602325,511.35764,118.26052,0.9383645,505.43887,119.07434,0.15008414,529.8213,126.14447,0.997184,527.1308,127.41792,0.92127055,544.2772,150.39488,0.9949822,536.3761,150.66566,0.6862113,535.5576,172.8482,0.98536795,530.83966,168.79214,0.7129722,568.235,158.92278,0.9939302,566.1276,158.31502,0.9708428,530.9468,182.03415,0.9854614,531.5526,181.03828,0.93004584,538.25775,223.72647,0.9378534,539.5041,216.97878,0.84605455,1.03903201,-0.48785184,0.91183587,0.10071463
27,900.0,499.74225,128.51718,0.90102243,500.31384,124.79512,0.93217504,497.90125,125.40364,0.4633955,508.177,119.04343,0.93315935,502.16147,120.13472,0.15323216,526.438,126.17317,0.99677354,524.91144,128.14949,0.9170808,541.4174,149.74823,0.9942303,535.3012,151.5392,0.68170846,535.3876,172.17802,0.9836891,530.0511,168.23878,0.71001446,567.1748,157.37376,0.99302495,565.6597,157.21976,0.96802115,531.0847,181.29803,0.9838483,531.7191,180.6955,0.9258393,538.4045,223.43051,0.93246394,539.1355,216.97397,0.8379979,1.07090351,-0.47335876,0.95998238,0.03463601
28,933.3333333333334,497.33554,128.81992,0.8730881,497.56763,125.247116,0.90719056,495.78586,125.90552,0.40514624,504.86346,119.82471,0.91548496,499.9369,121.079895,0.13923566,524.02405,126.48337,0.9962096,521.209,129.08069,0.9107167,540.5167,149.14246,0.9937894,531.83405,152.24019,0.69269395,534.1957,172.19286,0.98288697,528.43726,169.06569,0.719365,564.54596,156.98373,0.99338984,562.1744,157.19353,0.97088045,530.9515,181.62337,0.9848866,531.0074,181.29773,0.9335066,538.3893,223.17181,0.93704736,538.85895,217.04866,0.85192776,1.17442478,-0.74627085,0.88039326,-0.21739621
29,966.6666666666666,495.0383,129.15068,0.87012833,495.23843,125.47014,0.89806724,493.41653,126.40588,0.42446747,502.6598,120.29463,0.9005783,497.25256,122.08368,0.14992936,522.267,127.27588,0.9953885,518.22894,129.88002,0.9147998,539.83905,150.46207,0.9921828,528.44073,152.66817,0.71757925,532.7131,172.31918,0.9798319,525.95404,169.01659,0.7379762,562.3759,156.00172,0.9928716,559.07446,156.352,0.9724205,529.2769,179.88586,0.98497784,528.6266,180.46574,0.9417519,537.8789,222.23364,0.9409368,537.18713,217.8766,0.8703383,1.05711713,-0.543859,0.90569474,0.0378294
30,1000.0,492.75964,129.64319,0.87709415,493.38837,125.99841,0.8980765,490.93195,126.6814,0.48401493,501.20062,120.45395,0.88687974,493.98547,121.645584,0.17911187,519.43475,127.58601,0.99402833,514.76263,128.54453,0.9184245,535.57513,151.84488,0.98827165,525.09296,151.3358,0.7256739,531.6235,172.94048,0.9709463,523.6025,170.07657,0.7314319,559.12213,155.22787,0.991731,555.20483,155.10583,0.972807,528.4546,181.00706,0.9847317,526.9607,180.94328,0.94979346,536.8196,221.7802,0.94737977,535.5004,217.92885,0.8946773,1.25142265,-0.63204572,1.07150541,-0.13584193
31,1033.3333333333335,490.26138,129.41324,0.8999346,491.26913,125.80266,0.90489846,488.23813,126.658264,0.5633209,499.7084,121.3833,0.88067406,490.39365,122.8333,0.22403143,518.7082,129.54854,0.9946517,509.76288,130.67041,0.9456513,536.48535,153.70122,0.9885677,519.55536,152.37637,0.8097382,530.091,174.90485,0.97289747,519.8412,169.80331,0.8038439,557.556,154.33049,0.99340457,550.81274,154.46283,0.98154783,528.4203,182.54648,0.9870207,525.26416,183.37613,0.9637219,537.8832,221.54489,0.95218664,536.558,219.54916,0.9132963,1.15558278,-0.53894609,1.01549825,-0.11692723
32,1066.6666666666667,487.85095,130.27339,0.90247065,489.17807,126.625244,0.9039304,485.82513,127.33252,0.5904391,498.07877,121.92935,0.87587804,487.95734,122.878494,0.2500973,516.84735,130.35707,0.99408036,507.21436,130.10188,0.95069504,533.4357,155.1916,0.986158,517.29865,151.51855,0.82287645,527.44495,177.81174,0.967335,516.9458,172.3881,0.8070844,555.5636,154.21324,0.9929558,548.297,153.71082,0.9823324,526.37317,185.3139,0.98632854,522.49805,184.60777,0.9656718,537.8838,222.07922,0.9516514,536.1952,218.66376,0.9181895,1.45551084,-0.9671061,1.03613246,-0.33113005
33,1100.0,485.6966,131.84932,0.8693095,487.0223,128.38406,0.89124566,483.5402,128.92542,0.44217998,495.70547,123.54579,0.89861953,486.79797,124.5128,0.1828926,515.1385,130.88965,0.9927983,503.5934,130.54631,0.931217,531.5802,158.20496,0.9855964,510.1864,152.44174,0.7393471,521.99243,184.5004,0.96782,507.98752,177.5533,0.7428934,552.722,154.25565,0.99002343,544.93896,153.67647,0.9703325,524.2842,187.86133,0.98216003,517.1855,187.12317,0.9469942,537.6643,223.37701,0.940692,530.9152,218.22433,0.8932067,1.45562034,-0.90643167,1.10196544,-0.28789646
34,1133.3333333333333,483.8018,133.30692,0.8366716,484.92715,130.02728,0.85468644,482.0501,130.49132,0.3795748,493.39648,125.027084,0.87797785,485.66406,125.86386,0.1645166,513.65454,132.2029,0.99258053,500.40564,131.52597,0.9348561,529.24615,161.10059,0.9865991,505.579,154.63876,0.7748459,517.7569,185.77797,0.9699976,502.8077,178.60497,0.7724829,549.99097,156.15326,0.99236965,541.2152,155.4205,0.9782175,523.5428,189.08607,0.9863246,515.3371,187.81139,0.96098596,537.1913,222.59302,0.9541932,530.18494,217.3074,0.9190214,1.18534748,-0.53255931,1.02507842,-0.26578837
35,1166.6666666666667,482.03827,133.97443,0.87440586,483.54272,130.5356,0.89736235,480.1371,130.82504,0.47414476,492.97876,125.48543,0.9076413,482.8907,126.00705,0.19497539,513.74603,133.97787,0.9954911,497.30725,130.68289,0.94888186,529.68695,162.8671,0.99070966,501.80972,151.52277,0.7997807,519.4609,188.01682,0.97416085,497.7926,172.75293,0.77764857,547.9764,154.85704,0.9948532,537.47253,152.5596,0.98426914,522.07605,190.1293,0.98879564,513.1051,185.55222,0.96514535,539.8064,219.95714,0.9561174,532.9282,211.15833,0.9152766,1.06542773,-0.50209928,0.93517219,-0.09211704
36,1200.0,481.48495,135.77605,0.9159026,483.51633,131.75168,0.9357248,478.68744,132.46736,0.5886558,493.7509,126.56122,0.9279476,480.0248,128.19662,0.22405896,513.3238,135.63113,0.99616265,495.36725,133.95459,0.94915175,531.1399,164.26447,0.9909888,498.87845,154.9601,0.7687721,524.26855,192.95415,0.9741424,493.86472,178.24765,0.7472006,546.3737,154.35924,0.99347854,535.3309,152.99548,0.9783482,520.8155,190.95139,0.98501474,513.3851,188.12747,0.9493992,538.8609,221.0651,0.9399073,533.665,213.78648,0.87866485,0.93581673,-0.40310417,0.84207257,-0.06460475
37,1233.3333333333335,480.68033,138.77858,0.93721503,482.37888,134.24728,0.9447365,477.2515,135.7717,0.6984794,492.17175,128.00703,0.9203834,477.19168,131.48904,0.2951567,513.0711,137.7291,0.99581087,491.33176,136.04742,0.9616392,532.3767,170.17148,0.98868203,490.80414,156.61945,0.81664306,521.4967,203.66345,0.9689488,484.128,181.89342,0.78652626,544.06244,154.52705,0.9914408,530.75714,153.25734,0.9767495,518.35724,187.64519,0.98000425,509.82715,186.04663,0.94419897,538.7162,217.53804,0.9240398,531.6838,211.85777,0.863489,0.86410238,-0.31368923,0.80498011,-0.01670389
38,1266.6666666666665,479.43094,142.20924,0.94755214,480.9919,138.00806,0.9441368,476.08704,139.51175,0.7474442,490.215,131.38358,0.907019,475.17575,134.6919,0.34021434,511.4233,141.23207,0.9962871,487.7787,139.01607,0.9748848,529.3735,174.73227,0.98938584,483.58188,159.00638,0.8805986,517.2446,207.29788,0.97350186,477.13385,183.83438,0.85660523,543.2899,156.75594,0.9946747,528.68243,155.26602,0.9875787,515.65985,189.1697,0.9890354,506.43256,185.73444,0.9732559,537.0756,220.19235,0.96229386,530.81,211.69373,0.9375028,0.87526321,-0.37239849,0.7919609,0.01424744
39,1300.0,477.8394,144.11807,0.95455354,479.60687,139.83235,0.953039,474.1528,141.19644,0.78653944,488.69925,134.23381,0.9125114,472.15125,137.32797,0.3744346,508.4341,144.96149,0.99596536,484.4355,143.44899,0.97241396,524.8996,177.53345,0.98741186,478.56766,163.89871,0.8570782,514.29865,211.62842,0.9672002,470.72104,188.07104,0.826974,541.4025,157.32431,0.99131364,526.6954,156.41542,0.97957855,516.19415,195.66757,0.9786633,507.89322,192.52136,0.947621,536.53125,223.94145,0.92086434,531.1871,215.11313,0.87008834,0.83527158,-0.35495766,0.75609666,0.00122823
40,1333.3333333333333,475.75278,146.61111,0.9287876,477.20172,142.35863,0.9355482,472.5343,143.86452,0.6725632,486.17233,137.08607,0.9048366,471.43008,140.63351,0.26310137,507.0292,147.63135,0.99515957,481.30066,147.23088,0.94915885,522.9098,180.14015,0.98870987,474.01352,167.21652,0.7855733,510.23547,217.80371,0.9673587,466.42062,192.07047,0.7586908,538.785,164.57764,0.98739237,522.05334,164.71487,0.9632462,523.1896,202.3383,0.95569676,507.30847,202.18402,0.8727375,544.0752,220.55148,0.82637566,526.116,215.71613,0.7001072,0.78223707,-0.33358651,0.70745887,0.0108084
41,1366.6666666666667,473.4754,151.54062,0.91546017,474.86627,147.65218,0.913422,470.55377,148.93082,0.6576255,483.86932,141.59488,0.8748004,469.62912,144.68225,0.27753624,503.78372,149.50812,0.9937505,478.1987,148.81128,0.9556893,519.5897,180.06586,0.9858468,468.76212,168.049,0.83355737,511.2775,216.05173,0.9631394,463.4102,191.50249,0.805095,534.7066,164.33072,0.98844004,518.6439,164.68329,0.9721185,519.7889,203.59262,0.9638614,508.86227,204.08823,0.91240275,535.8747,225.17384,0.8566262,527.06177,222.14941,0.7700096,0.65008881,-0.23557398,0.59569019,0.11078609
42,1400.0,470.4496,153.78983,0.9176321,471.8462,149.96616,0.91834646,467.68008,151.13617,0.65634364,481.23022,144.18057,0.8922058,467.78943,147.18163,0.29103106,499.7746,153.01746,0.9945062,477.4253,151.68594,0.9612367,510.76913,182.88112,0.9856763,463.6432,170.63347,0.83045906,505.10626,217.66608,0.96011585,455.6919,192.71034,0.7931457,532.2991,165.15236,0.9880372,519.8421,165.2077,0.97130203,514.074,205.94238,0.964986,516.2541,203.97382,0.9146798,527.7088,229.78665,0.8581186,538.36176,222.49588,0.7736055,0.61172097,-0.16286293,0.57481033,0.13142031
43,1433.3333333333333,467.39084,160.11777,0.8972161,469.1598,156.3306,0.88518965,464.8187,157.0884,0.62742585,477.91187,150.68086,0.8348782,463.21796,152.28543,0.27497274,496.46054,160.04124,0.9906213,469.6615,158.28761,0.94884205,507.03513,200.78471,0.97747004,453.9157,187.51529,0.8097637,496.55215,235.19545,0.94435847,439.72186,216.6716,0.7738317,529.81445,169.8533,0.97216076,514.18866,170.5282,0.9422325,513.365,212.33965,0.90286297,510.1651,212.82999,0.80238765,529.4953,228.36871,0.6747487,534.5333,226.39505,0.5578266,0.62449588,-0.17047794,0.57751243,0.16556503
44,1466.6666666666665,468.52814,167.51732,0.86728466,469.26123,163.47295,0.8242558,465.66034,164.75575,0.631974,474.12906,156.24127,0.7511721,460.93036,159.52023,0.3441404,490.61996,160.12845,0.9840884,463.84586,166.16824,0.95085096,503.7004,192.20479,0.96518266,447.35712,196.09631,0.8373241,498.97675,231.65204,0.91946465,431.26364,219.55194,0.78784704,527.9959,169.2011,0.960659,511.87772,173.67961,0.93553716,514.44055,208.95132,0.87354153,503.80014,214.814,0.78659767,530.8607,226.21666,0.60200423,527.08905,229.56631,0.5041393,0.60607904,-0.13829838,0.50480138,0.30558293
45,1500.0,466.49567,175.53075,0.76432544,466.1285,171.81354,0.67422146,464.02158,173.07394,0.52587944,468.7072,163.6488,0.5993932,458.97293,167.30621,0.3187799,485.3361,162.07935,0.96037656,461.34775,170.7481,0.92621183,501.3939,183.80469,0.9298332,445.78625,195.59671,0.82621247,500.16635,215.09981,0.87363803,423.3912,218.34267,0.7782073,522.95953,168.22295,0.94327205,508.2394,173.42767,0.92611223,515.0579,210.53864,0.8539969,499.3984,215.49529,0.79756147,531.09296,232.48853,0.590827,517.1309,235.15204,0.5310893,0.75703353,-0.11004916,0.38640028,0.64162589
46,1533.3333333333335,458.10812,175.46234,0.7988817,458.19537,171.50505,0.69165045,455.35474,173.16624,0.6645029,461.72403,164.52617,0.57042456,452.1194,169.11624,0.4578706,475.82837,166.14848,0.93068314,456.5274,172.6059,0.9458443,488.35638,195.16393,0.82640976,437.30414,199.59251,0.8581734,498.25375,224.52782,0.7269668,420.12708,221.60022,0.7765371,514.76855,170.9367,0.91655064,502.70734,176.22235,0.92896676,515.3692,209.3002,0.844991,498.82626,216.83766,0.85753745,529.7627,229.16434,0.6724515,509.33548,236.96419,0.6916343,0.73375452,-0.05576151,0.45911133,0.56965177
47,1566.6666666666667,448.34137,177.14708,0.58034855,447.38446,173.36191,0.44884712,444.54172,176.67197,0.4359782,451.83405,170.37097,0.35218018,441.09085,178.76805,0.33188906,469.00632,166.30775,0.8319463,444.7799,185.75545,0.8597032,477.2141,161.94807,0.7524949,442.61343,197.93895,0.76689744,460.50098,161.62646,0.7217877,443.18384,177.18979,0.7620977,507.3884,175.65134,0.87959546,490.3678,186.1606,0.8903707,522.6346,205.39066,0.8024302,501.29678,217.46661,0.8177782,527.65857,231.52026,0.60685664,508.91214,240.0,0.6275856,0.36655074,-0.33849942,0.12675305,-0.06092007
48,1600.0,447.51355,197.71925,0.57181346,446.41736,194.26273,0.4017527,444.36792,196.02655,0.43293765,449.55872,186.9132,0.31292805,439.12207,192.02147,0.32194966,467.58203,182.37999,0.8436018,440.33154,190.64014,0.8912613,480.61774,204.1565,0.77312726,427.51904,212.93498,0.8475112,483.74628,235.95393,0.69861984,414.30658,231.26111,0.7950008,507.3645,182.5527,0.89733225,487.78696,188.77296,0.91909325,525.7178,219.8092,0.7910049,490.54422,226.24887,0.824121,538.6063,232.61009,0.6118063,495.8186,238.16905,0.6488858,0.97847048,0.0027021,0.92239863,0.32646279
49,1633.3333333333333,444.08237,214.86995,0.6572873,442.3746,210.8903,0.55253184,439.6919,213.462,0.4275046,446.53952,201.29907,0.4201026,433.38977,208.49146,0.24813081,467.64362,193.69334,0.918972,435.42133,202.55165,0.86512774,490.7947,214.40135,0.8924387,422.49655,221.26004,0.7747489,496.99857,240.0,0.82880825,415.41516,232.0013,0.7433464,509.0074,185.86084,0.9215903,487.95367,192.84526,0.89873815,528.2004,226.0586,0.8096253,500.47968,233.99107,0.759384,541.2909,232.67807,0.58300704,508.2017,236.00807,0.5445119,1.09211548,-0.33702554,0.99560097,-0.29649405
51,1700.0,49.630024,133.32065,0.019596424,46.877975,130.26123,0.006192638,49.70647,131.15436,0.019182049,33.385006,126.91806,0.18599,47.552704,129.70738,0.54291844,23.494461,134.8178,0.93302274,48.51018,137.90952,0.9731591,6.5990906,150.05823,0.85737586,57.283478,148.87698,0.96109784,4.951336,163.95654,0.71430206,62.40954,151.27286,0.86043376,22.125427,174.89455,0.99030405,38.054264,176.05063,0.99414706,16.012808,197.6101,0.957273,31.757141,198.62091,0.9705768,13.231426,219.2302,0.86949676,26.680939,222.09491,0.89864427,1.30061995,-0.46820021,1.16902665,0.32523456
53,1766.6666666666665,46.800125,133.3084,0.019529896,44.590023,130.84155,0.0061277887,47.257763,131.37682,0.02309731,33.357075,128.78743,0.17620334,44.34073,131.32823,0.59058553,25.505997,133.9966,0.9215234,45.52057,139.02165,0.97535944,9.019913,134.4252,0.86914575,56.489372,143.90909,0.9785372,7.0480366,138.27544,0.7579988,69.5087,148.00745,0.9215502,25.289478,166.54083,0.98545384,37.17649,168.25702,0.9925494,21.000935,186.4123,0.91117036,33.55782,187.41724,0.9486654,21.476366,198.14206,0.7196684,32.380318,200.63834,0.7990355,1.36602159,-1.1120369,0.57874066,-0.54263078
54,1800.0,41.31957,125.18335,0.070714265,39.08436,122.56821,0.017358731,42.63381,122.86478,0.055381704,27.897303,123.48128,0.09492072,44.917023,124.30452,0.37863526,20.39725,134.61945,0.6424881,45.096493,135.14046,0.8898405,6.49605,151.92574,0.5595221,58.115524,144.13959,0.90147597,5.5256863,162.73532,0.53014475,71.1528,141.33966,0.82529914,20.819414,179.92209,0.9062861,34.685215,180.30205,0.9506291,15.694965,208.62383,0.7972454,25.738531,209.91995,0.886243,10.689058,226.34691,0.59993833,17.411991,227.85385,0.699945,4.43604221,2.65739237,-3.23957206,1.45667746
55,1833.3333333333333,514.95734,217.18968,0.6483683,518.5991,216.47668,0.42528144,515.39966,213.16447,0.51000047,515.72546,219.81645,0.29094288,508.1539,211.33371,0.37040606,497.75537,225.78458,0.90960693,489.65414,214.28651,0.8047009,496.36148,233.57608,0.79363644,469.10248,216.64227,0.49729848,497.58826,227.40721,0.7575346,467.46783,220.5392,0.5013592,452.1882,225.31769,0.81533545,446.5202,219.17928,0.703163,441.79028,227.41559,0.62405276,438.6996,222.85037,0.461446,420.7948,223.87886,0.5004155,419.4657,220.48193,0.3767472,1.69859589,0.9346809,-1.19481942,0.76420296
56,1866.6666666666667,25.445253,135.72295,0.016045649,25.023678,133.27664,0.010261679,27.774681,133.29674,0.008350675,26.260427,132.10013,0.34527755,37.700855,131.86119,0.2612808,25.021454,140.80608,0.92297775,44.169052,139.21854,0.9604796,16.320045,150.37074,0.87906665,59.056366,144.88756,0.9540156,13.798519,151.38246,0.74552834,69.39938,141.61032,0.8600991,27.238865,178.80928,0.9914255,38.622475,177.55386,0.9945235,15.81905,205.45883,0.96889305,27.02999,204.47488,0.9771971,15.87549,227.23071,0.8960188,23.70098,225.71756,0.91614556,2.77931602,1.42523484,-0.19184909,2.37833915
57,1900.0,38.536896,128.12611,0.0065451288,36.04734,125.181,0.0026532828,39.32336,125.78604,0.0061222822,27.404537,123.464615,0.14120261,41.635292,124.77695,0.35916266,20.578665,134.03009,0.8658361,45.330276,133.75526,0.9449064,7.3538055,151.92665,0.7986166,58.468826,143.83585,0.94949156,5.675537,167.9441,0.6271514,70.69743,146.38947,0.8282407,22.600204,173.96913,0.9870035,37.393066,173.76979,0.9924758,16.863626,199.25587,0.9482915,28.30251,199.22806,0.96681887,13.986967,220.68301,0.8494231,19.58053,221.64275,0.88841736,0.47421392,0.20683346,-0.02137115,0.42619484
58,1933.3333333333333,530.8635,216.84161,0.23896755,533.1839,214.41663,0.048395965,532.65405,213.39424,0.25394273,518.08466,211.41852,0.04741522,525.72406,210.43257,0.44544145,494.5131,211.60168,0.5750618,505.7249,213.21683,0.6335326,483.84082,222.33093,0.28161857,494.50253,223.60866,0.46842483,495.2749,223.99147,0.3159262,494.57443,225.64005,0.40813017,450.02173,218.40034,0.5078619,455.99313,218.57524,0.51698357,455.57077,226.49918,0.31390098,459.2238,227.10397,0.3503623,440.96588,222.44753,0.24351281,443.4029,225.96857,0.26610318,2.07379313,1.03637811,-1.03760634,1.46625763
59,1966.6666666666665,531.2066,217.73007,0.16990896,532.59314,215.14157,0.02868014,533.3101,214.81859,0.18859118,513.4379,211.18794,0.04491307,526.30237,212.33899,0.47321454,489.03665,210.24542,0.5977033,506.4997,215.20158,0.63741064,479.34616,219.12645,0.29256934,498.40216,224.72285,0.4690587,496.0172,219.63329,0.30593097,498.3853,222.88899,0.38164642,445.94235,218.2485,0.5352228,456.1348,220.0226,0.5329192,454.4846,226.68774,0.31810728,462.0347,228.71654,0.34844127,441.52402,221.82373,0.2391929,448.3855,227.34805,0.2567278,1.52695438,0.06804379,-0.52469866,1.43235856
60,2000.0,530.5033,218.30014,0.33784753,532.01556,216.33696,0.09810607,531.39905,215.01286,0.30729017,518.8774,214.63655,0.106518134,522.0199,212.2052,0.44941676,496.64014,216.0427,0.77785075,502.21207,214.49512,0.6590747,491.01584,225.9927,0.4880461,492.7575,223.22673,0.35516554,502.71097,226.54964,0.45764703,498.94952,225.04366,0.31436625,449.7655,219.53212,0.64427537,452.242,218.21913,0.5342134,449.42792,224.45528,0.44261596,451.09885,224.24152,0.35519007,430.66763,219.41606,0.3551211,432.8939,222.10745,0.29292792,1.25001762,0.28028145,0.5119251,1.10540448
61,2033.3333333333333,531.0742,221.03949,0.21365957,532.994,218.99619,0.055920433,531.75903,217.71683,0.20170142,520.42224,218.08717,0.061287556,522.16205,215.62907,0.33853135,497.4315,219.52336,0.6282553,500.24557,217.9029,0.5055249,485.93802,230.3117,0.41442603,487.70285,227.35606,0.31818035,496.8637,230.28607,0.42128015,494.82077,228.23557,0.30779454,451.40836,220.06754,0.52512294,451.65375,219.02454,0.42737097,455.60422,225.00775,0.32243904,454.73956,225.01659,0.26379198,437.6006,218.15921,0.24762969,438.0422,220.88634,0.20911808,1.22204528,0.74430568,0.59740971,0.76322038
62,2066.666666666667,530.84344,222.01721,0.19196558,532.96576,220.07472,0.05625649,530.4823,218.74106,0.19741511,522.574,220.81471,0.051830955,519.9536,217.87111,0.31212604,501.548,222.64313,0.5152057,498.4066,219.99582,0.4203696,491.19092,229.56209,0.35085607,487.15576,225.32457,0.29456088,495.54514,230.51515,0.39518562,494.906,228.42215,0.3161605,457.70258,218.7144,0.44542727,453.309,217.46428,0.37285355,466.84805,224.18126,0.2768996,461.83072,224.05206,0.24335626,446.29608,217.66406,0.23531638,444.5914,220.0425,0.21228366,0.94901672,0.86344372,-0.06386781,0.38861109
63,2100.0,44.69201,131.03665,0.093365885,41.780464,128.41321,0.017258484,45.56974,128.78842,0.094540305,28.554195,127.609634,0.07038323,45.391888,128.72427,0.53242767,20.270784,135.75444,0.61309975,45.827133,136.75867,0.9324571,7.945608,149.5752,0.491474,63.92019,141.70183,0.9469464,7.2183723,163.85394,0.4983621,83.35162,142.3884,0.8927532,21.50839,177.09372,0.9120393,35.475124,177.75465,0.9664714,16.578218,202.96349,0.81835926,26.24187,205.06657,0.92573553,8.288071,221.622,0.65169513,13.663925,224.55562,0.78288674,1.00942789,0.73030389,-0.43135339,0.54729804
64,2133.3333333333335,442.87244,215.87918,0.097831264,443.8161,213.6692,0.06511412,442.69556,214.38208,0.061302796,447.18628,216.6535,0.11434133,446.32843,217.11542,0.1301444,452.49042,220.93288,0.48493734,444.317,222.15398,0.29164314,458.18048,223.26743,0.42051387,440.41928,227.04411,0.19429731,458.03088,228.12595,0.4051001,456.95972,228.79326,0.24527769,464.5013,217.19461,0.4933022,456.34485,219.34392,0.39127323,499.59665,214.42845,0.3315304,491.30994,216.63599,0.27094838,505.26108,217.26126,0.31591448,503.79852,218.75865,0.26881182,1.26397359,0.81185818,-0.26357756,0.93222444
65,2166.6666666666665,478.39355,219.78354,0.033628132,479.01474,218.37836,0.015121813,479.7159,218.40855,0.027091613,474.85696,220.36873,0.038070228,482.2601,219.63235,0.1050652,470.24652,221.92305,0.25550747,473.98923,221.48828,0.15403421,468.0702,223.97777,0.2712526,470.9631,224.51454,0.15762116,472.5319,227.19318,0.3036343,483.40402,227.26003,0.20679677,461.14435,213.93018,0.33359516,460.44928,214.81764,0.2583629,498.38312,215.06734,0.23800537,493.18677,216.13974,0.21045613,499.76163,216.96819,0.22784977,498.6728,218.12567,0.20602964,1.29118237,0.60846375,-0.03389907,1.13832097
66,2200.0,50.347137,128.27547,0.14660479,47.823303,125.46629,0.027519729,50.878975,125.92238,0.1441931,33.097534,124.89761,0.09711305,48.558857,126.43683,0.6175913,21.34429,133.73007,0.7420639,46.827724,136.32576,0.95057774,6.140106,149.88515,0.6015871,64.0355,143.67847,0.9498464,3.6767254,167.24434,0.5791423,82.07117,141.81958,0.8954772,17.89271,176.22887,0.9249033,32.223175,177.47458,0.966841,14.014101,201.23949,0.82385594,26.268084,203.27008,0.91574264,7.38402,221.61742,0.63179314,17.83397,223.0561,0.7455393,1.05826978,0.76985281,0.19970974,0.69812434
67,2233.3333333333335,453.69196,218.20032,0.03893248,454.92944,216.48776,0.024586966,455.0219,216.64587,0.026520872,456.1046,219.75052,0.06265841,460.90726,218.96353,0.08343414,458.53833,223.69067,0.25649047,456.91806,223.22778,0.14620788,462.56796,225.00453,0.25196317,454.12634,226.13895,0.1261913,464.81454,226.55917,0.27510336,469.3847,226.91113,0.17597204,462.12167,216.4145,0.33421877,458.13907,217.52855,0.26078856,500.651,214.29474,0.27389574,493.49783,215.35793,0.23800522,507.39636,216.83699,0.3106422,505.48196,216.95348,0.27774176,0.97391973,0.68878981,0.16630196,0.6681556
68,2266.6666666666665,457.3632,218.95944,0.027104035,458.07498,217.58163,0.016201952,459.42633,217.54369,0.017644413,457.75854,221.13213,0.05506102,466.30362,219.93323,0.075146906,457.68164,225.1553,0.24010032,463.33545,224.26324,0.12929162,460.4516,226.26341,0.24264707,463.47256,226.78528,0.11448696,465.41867,227.82486,0.26163176,475.61096,228.185,0.15867823,460.9349,216.92299,0.35603932,461.81967,217.92342,0.27505884,501.14154,213.80153,0.3395515,497.60403,214.84828,0.29817787,509.52383,216.86008,0.41256532,508.5894,217.05453,0.37507743,1.09411951,0.58954905,-0.23606527,0.89095601
69,2300.0,462.45776,219.7732,0.021199381,462.99213,218.56888,0.0120122945,465.0564,218.42667,0.0137498835,460.85086,221.8858,0.05291172,472.6473,220.56468,0.0764744,458.24506,225.43965,0.24183734,469.6486,224.49796,0.12777194,458.47546,225.6443,0.24234715,470.91727,225.78008,0.112269446,464.3431,227.17986,0.25569293,480.0832,227.28506,0.15085545,459.23962,216.49702,0.37425017,463.7383,217.4435,0.28703147,501.37717,213.27394,0.3708237,499.98215,214.30405,0.3267964,510.05557,215.87758,0.45283455,509.24606,216.18306,0.41404468,1.11928002,0.67945529,-0.41759725,0.78532847
