frame_id,timestamp_ms,nose_x,nose_y,nose_conf,left_eye_x,left_eye_y,left_eye_conf,right_eye_x,right_eye_y,right_eye_conf,left_ear_x,left_ear_y,left_ear_conf,right_ear_x,right_ear_y,right_ear_conf,left_shoulder_x,left_shoulder_y,left_shoulder_conf,right_shoulder_x,right_shoulder_y,right_shoulder_conf,left_elbow_x,left_elbow_y,left_elbow_conf,right_elbow_x,right_elbow_y,right_elbow_conf,left_wrist_x,left_wrist_y,left_wrist_conf,right_wrist_x,right_wrist_y,right_wrist_conf,left_hip_x,left_hip_y,left_hip_conf,right_hip_x,right_hip_y,right_hip_conf,left_knee_x,left_knee_y,left_knee_conf,right_knee_x,right_knee_y,right_knee_conf,left_ankle_x,left_ankle_y,left_ankle_conf,right_ankle_x,right_ankle_y,right_ankle_conf,acc_x,acc_y,acc_z,acc_mag
0,0.0,533.82404,72.951706,0.95394135,538.4797,67.75962,0.96169484,531.8507,69.6043,0.6801943,552.1214,66.488,0.9593481,535.7273,69.814026,0.26601398,567.2124,89.990845,0.99865496,540.4286,91.80122,0.9745817,575.42114,125.01749,0.99573827,542.82526,122.16962,0.80480444,551.03,144.22365,0.98504746,530.364,142.30441,0.7543933,563.004,146.77826,0.997357,546.5448,144.84882,0.9888545,534.9153,171.13376,0.9913018,522.377,166.677,0.9638781,560.50275,199.9753,0.96051973,554.6887,191.0147,0.90774816,1.01458674,0.53550706,0.83003594,0.23164365
1,33.333333333333336,533.3078,73.22377,0.95377237,537.94464,67.98972,0.9616894,531.40027,69.893295,0.67740977,551.82605,66.556496,0.95956707,535.4793,70.03203,0.26171985,567.24634,89.94098,0.9986638,540.19147,91.91875,0.9745963,575.486,124.97575,0.9957723,542.3911,122.37935,0.80524135,551.0614,144.30063,0.98518014,530.20483,142.53821,0.7549777,562.97144,146.81573,0.99740976,546.3625,144.91956,0.989056,534.878,171.22644,0.99152714,522.3503,166.74017,0.964753,560.3909,200.04141,0.9615622,554.7473,190.97482,0.9100502,1.00726019,0.52887463,0.82610561,0.22894155
2,66.66666666666667,532.87506,73.31937,0.95335233,537.50146,68.08412,0.96083057,531.03827,70.01883,0.6761164,551.55817,66.60065,0.95868504,535.2658,70.14641,0.26156846,567.1079,89.88246,0.99865353,539.90295,91.967255,0.9752865,575.17377,124.98117,0.9957366,541.8823,122.60663,0.8116359,550.9105,144.57233,0.9851163,529.96655,142.93646,0.76091516,562.84595,146.76178,0.9975007,546.12494,144.92543,0.9896318,534.98517,171.18341,0.9919191,522.42847,166.78207,0.9669952,560.32947,199.93259,0.96352327,554.8054,191.01663,0.9154752,1.03785445,0.52592689,0.86221549,0.23901301
3,100.0,532.55133,73.52351,0.9528994,537.1045,68.29645,0.96003616,530.70233,70.211235,0.67577696,551.0343,66.6362,0.9579428,534.9373,70.163086,0.26390564,566.9208,89.8159,0.99864525,539.5654,91.718735,0.97577816,575.3156,125.26247,0.9956945,541.5272,122.53761,0.81652164,551.2997,144.61838,0.98500085,529.841,143.0867,0.7651538,562.94104,146.7623,0.99754506,546.1453,144.84174,0.98997,535.14056,171.35706,0.9920849,522.51215,166.7414,0.96815777,560.3105,200.03285,0.96434945,554.658,190.87363,0.918123,1.02863722,0.51143381,0.85926775,0.24122382
4,133.33333333333334,532.4149,73.83288,0.94716525,536.85864,68.403885,0.9526936,530.8825,70.4295,0.6621886,550.842,66.514145,0.9494412,535.5069,70.12496,0.27934903,566.7014,89.195915,0.99818844,539.32166,91.975845,0.97620845,575.1738,125.01669,0.9939361,540.3682,123.37645,0.81998616,551.55756,144.2192,0.9807233,530.1443,145.0246,0.76456296,562.22076,146.39403,0.9968952,545.59094,144.98529,0.9885684,534.96124,171.86618,0.99030954,521.029,167.82121,0.96571046,559.2656,200.95746,0.95794606,551.9637,191.5474,0.91348463,1.03678705,0.52150527,0.8644263,0.23606527
5,166.66666666666666,532.23376,74.22582,0.94810045,536.6195,68.75045,0.95342034,530.608,70.80344,0.6685678,550.4565,66.55293,0.9496932,535.11304,70.26836,0.28439832,566.5247,89.0654,0.9981914,538.9661,91.86882,0.976334,575.4011,124.98219,0.99390185,540.24304,123.30084,0.82048345,551.4956,144.04385,0.9806418,530.1674,145.21536,0.76489806,562.02893,146.37279,0.99681705,545.3425,144.96532,0.9883133,535.0253,172.19987,0.9899039,521.2998,168.06647,0.9644198,559.23315,201.22366,0.9559479,552.17017,191.64789,0.9097229,1.02132051,0.48932572,0.86319807,0.24196076
6,200.0,532.0449,74.33735,0.9492716,536.4686,68.89668,0.9541391,530.41504,70.885765,0.6752953,550.2797,66.67792,0.9497318,534.7756,70.260025,0.28861368,566.2674,89.10599,0.99820197,538.5733,91.8752,0.9767419,575.5378,124.90549,0.99391633,539.9549,123.209656,0.82355404,551.5821,144.31409,0.9807582,530.0493,145.35909,0.7686404,561.95404,146.04698,0.99680007,545.20703,144.68576,0.98832613,535.3772,172.34473,0.98968947,521.7257,168.47458,0.963955,559.17456,200.94408,0.95461494,552.45233,191.88892,0.90748686,1.0163726,0.48686926,0.85803952,0.24441721
7,233.33333333333334,531.58673,74.68732,0.9477337,535.9188,69.24933,0.9529518,530.07513,71.20708,0.6661086,549.6588,66.73956,0.94949114,534.7244,70.22594,0.28409132,565.8338,89.02811,0.9982016,538.5899,91.59666,0.9764572,575.52966,125.03479,0.99397695,539.9123,123.00305,0.82294893,551.4419,144.44214,0.98089635,529.79846,145.71114,0.76828766,561.80865,146.17204,0.99686474,545.4289,144.77646,0.9885141,535.2504,172.56192,0.9899449,522.037,168.89244,0.964745,559.0962,201.14275,0.9557005,552.6365,192.53528,0.9094612,1.02074208,0.48293893,0.86344372,0.25129528
8,266.6666666666667,531.0084,74.766464,0.9466419,535.3213,69.390594,0.95299447,529.616,71.2469,0.6549001,549.076,66.87807,0.95085216,534.463,70.14021,0.27439606,565.30255,89.07308,0.99826175,538.3907,91.509575,0.9756749,574.9642,125.04971,0.9942741,539.8533,123.041534,0.81715995,550.79224,144.80565,0.98154646,529.7438,146.10815,0.7628111,561.71515,146.17642,0.9969741,545.5372,144.72426,0.98854464,535.3184,172.88943,0.990288,522.0673,169.08304,0.96482164,559.1099,201.59201,0.9568642,552.53296,192.79727,0.9100305,1.03731788,0.48588668,0.88383229,0.24245205
9,300.0,530.53235,75.203,0.9529337,535.0472,70.33823,0.9598232,528.90436,71.82681,0.6537366,548.1397,67.6373,0.9596394,533.2761,70.0954,0.25111124,564.42456,89.43509,0.9988959,538.343,91.08086,0.97562283,574.9366,125.800385,0.99679226,541.5092,122.752426,0.82176375,549.51196,145.29109,0.9889599,528.79315,145.09502,0.7859278,563.1867,146.9551,0.9981451,547.3388,145.38757,0.9915985,536.73016,173.0611,0.9942669,524.6277,169.90971,0.9746089,562.26245,200.18146,0.9739473,557.3579,193.70682,0.9364007,1.01721257,0.46476117,0.87228696,0.24048689
10,333.3333333333333,529.9968,75.57941,0.9529055,534.51013,70.675644,0.95964235,528.40106,72.228195,0.65360487,547.75775,67.65278,0.9590979,532.85144,70.24341,0.24834214,564.25854,89.18353,0.9988728,538.0147,91.008766,0.97559845,574.62714,125.97032,0.9967424,541.148,122.985306,0.8234783,549.0891,145.80885,0.9888959,528.81165,145.1484,0.788304,563.46094,146.98265,0.9981268,547.51013,145.53645,0.9916106,536.49756,172.86676,0.9942608,524.5421,170.10938,0.97484267,562.1142,200.05785,0.97403675,557.5946,194.17108,0.936998,1.01550297,0.455181,0.87425212,0.24441721
11,366.66666666666663,529.615,76.04846,0.9532521,534.15466,71.16151,0.9605448,528.0554,72.66246,0.65201753,547.5302,68.02202,0.9601333,532.5535,70.52135,0.24367242,564.1762,89.410614,0.9988985,537.7306,91.153305,0.97514457,574.43854,125.94469,0.9968311,540.79285,122.977646,0.81969184,548.7643,145.52734,0.9891404,528.61835,145.35881,0.7851644,563.5639,147.11649,0.9981433,547.47986,145.60239,0.9915175,536.6318,173.17996,0.99427754,524.4943,170.1954,0.97441655,562.15753,200.0209,0.97400373,557.5464,193.83588,0.9361713,1.03062066,0.42251016,0.89857102,0.27610547
12,400.0,529.3073,76.12794,0.9535132,533.9237,71.22153,0.9611345,527.74286,72.72304,0.6509474,547.47797,68.19977,0.96087646,532.1892,70.70474,0.23995863,564.18274,89.71825,0.9989165,537.4281,91.547554,0.9749253,574.2425,126.08507,0.99688536,540.5436,123.25864,0.8172668,548.0023,145.73012,0.9893093,528.54626,145.6424,0.78339624,563.6628,147.32355,0.99815243,547.3803,145.81192,0.99145836,536.44006,173.14273,0.9943106,524.3463,170.12865,0.9742474,561.88544,199.88786,0.9741444,557.7841,193.6505,0.9360294,1.03121795,0.44461825,0.89218424,0.26406885
13,433.33333333333337,528.8933,76.213715,0.95309216,533.5512,71.341484,0.96123683,527.35284,72.78566,0.64569324,547.21515,68.53663,0.96148735,531.82196,70.91258,0.23559551,563.81573,90.06076,0.99893934,537.2447,91.8287,0.9745899,573.8578,126.08205,0.9969778,540.4868,123.28467,0.81507075,547.70605,145.7147,0.9895481,528.398,145.53815,0.78186953,563.59985,147.24951,0.99820614,547.3593,145.71992,0.99156547,536.80536,173.32103,0.9944647,524.4494,170.25522,0.9745471,562.07324,199.96669,0.9746645,557.6251,193.67404,0.9366931,1.00333227,0.455181,0.85853081,0.24982141
14,466.6666666666667,528.6849,76.46265,0.9537089,533.35626,71.60668,0.9617893,527.095,73.0113,0.6500504,546.9226,68.75396,0.96176374,531.4435,71.03705,0.23850445,563.52625,90.18569,0.9989397,536.9581,91.83923,0.9746064,573.8148,126.160965,0.9969645,540.5525,123.17052,0.81461257,547.8302,145.80449,0.9894834,528.42114,145.45203,0.7811047,563.63403,147.34244,0.9981603,547.38586,145.77005,0.99135745,536.83936,173.42302,0.9942549,524.38434,170.1979,0.9735988,562.26245,199.78069,0.97369057,557.8087,193.26897,0.93435675,0.9956936,0.44486389,0.85067016,0.26431449
15,500.0,528.22125,76.67307,0.9525757,532.87726,71.85886,0.9609634,526.65765,73.20877,0.6426452,546.36487,68.96404,0.9615302,531.0339,71.11292,0.23511484,562.98065,90.21582,0.9989485,536.5757,91.7558,0.97432137,573.52765,126.1929,0.99702686,540.40466,123.127655,0.81404835,547.8642,145.74437,0.98962885,528.2555,145.37349,0.7806519,563.37726,147.46564,0.9982114,547.21106,145.87799,0.99151856,536.7623,173.79216,0.99440235,524.29285,170.55368,0.9740539,562.18225,199.87584,0.97425574,557.7255,193.39496,0.9353845,0.9956936,0.44486389,0.85067016,0.26431449
16,533.3333333333334,528.0967,76.772514,0.95179033,532.71454,71.95534,0.95967835,526.5124,73.31784,0.6428476,546.05286,68.94652,0.960192,530.84283,71.11565,0.23919296,562.63776,90.19425,0.99891865,536.10956,91.59174,0.974495,573.1088,126.46243,0.9969331,540.06213,123.05586,0.8167071,547.2838,146.02115,0.98933333,528.071,145.39221,0.78238016,562.5663,147.60095,0.99817336,546.3302,145.97342,0.9914943,536.35046,174.17346,0.9942563,524.07794,170.85432,0.97389156,561.8883,199.8146,0.97370285,557.6933,193.29164,0.934804,1.02181502,0.41219305,0.8914473,0.28200096
17,566.6666666666666,527.7622,76.79863,0.9531236,532.4617,71.95802,0.961144,526.10504,73.31824,0.6486471,545.8473,68.896515,0.9609155,530.24023,71.0453,0.23869427,562.20184,90.10124,0.99892884,535.6676,91.51054,0.97413313,572.3206,126.66902,0.99696773,539.7307,123.12692,0.81333107,546.409,146.3986,0.9894315,527.91956,145.46408,0.7798646,562.6447,147.51224,0.99813986,546.3203,145.97514,0.9912373,536.23486,174.04713,0.9941347,523.85913,171.06575,0.9729959,562.0829,199.67459,0.9730837,557.6953,193.6397,0.93272203,1.01438234,0.43921405,0.8725326,0.27340337
18,600.0,527.47266,76.75531,0.9531374,532.18195,71.89638,0.961215,525.8029,73.28622,0.6488991,545.5066,68.83003,0.960645,529.8384,71.026276,0.23682022,561.7736,90.06482,0.9989116,535.2411,91.58202,0.973488,571.85266,126.809555,0.9969495,539.2519,123.28209,0.81025946,545.7408,146.56976,0.98942155,527.7698,145.5826,0.7779896,562.5857,147.45378,0.9980623,546.2304,146.06638,0.990833,536.061,173.84106,0.9938387,523.8133,171.37921,0.97149897,562.25037,199.3192,0.97161734,557.83826,194.0173,0.9288646,1.02360222,0.45100503,0.87572599,0.27831628
19,633.3333333333333,527.37537,76.78293,0.95413524,532.13,71.89227,0.9612071,525.5109,73.292816,0.6614697,545.21857,68.85466,0.959252,529.0852,71.053696,0.24712914,561.2394,90.08305,0.99886215,534.70605,91.78932,0.9741828,571.4244,126.57471,0.996777,539.04456,123.430405,0.81572664,546.06384,146.49277,0.98898494,527.53455,145.88863,0.7828164,563.09357,147.46626,0.99796605,546.73175,146.27116,0.9907098,535.9344,173.63234,0.9935364,523.80316,171.53098,0.9710273,562.3082,199.08429,0.9705073,558.16425,194.25984,0.92752403,1.00329233,0.42619484,0.86737405,0.26947305
20,666.6666666666666,527.20703,76.96397,0.9552468,531.99286,71.9757,0.96152395,525.20166,73.4896,0.6725485,545.07135,68.92049,0.9583139,528.5215,71.365456,0.25415638,561.03577,90.296875,0.99881965,534.2949,92.30741,0.97472644,571.0638,126.739914,0.9966131,538.66693,123.84953,0.81966573,545.9167,146.647,0.9886087,527.44836,145.83633,0.7867019,563.3492,147.67442,0.99788314,546.8472,146.67578,0.9906114,535.6688,173.42294,0.99334246,523.65857,171.72269,0.9709466,562.4038,199.02446,0.9699645,558.412,194.67609,0.9273845,1.00137682,0.42103628,0.86737405,0.27045563
21,700.0,526.90027,77.257614,0.9557176,531.7682,72.223495,0.96287537,524.85315,73.70546,0.6711261,544.9983,68.98723,0.9598352,528.1803,71.34645,0.24922073,560.85376,90.23369,0.99883395,534.3214,92.215324,0.9736447,570.9551,126.72313,0.99666685,539.14294,123.903824,0.8106593,545.91504,146.58937,0.9887046,527.37946,146.00085,0.77841336,563.3839,147.8942,0.9978102,546.9886,146.86227,0.99002284,535.3804,173.72838,0.9930495,523.2811,171.96451,0.96884054,562.3718,199.03307,0.96855396,558.3113,194.59515,0.92280304,1.00105933,0.41317563,0.87032179,0.2719295
22,733.3333333333333,526.3757,77.57664,0.95429295,531.21027,72.51857,0.9628357,524.4331,73.98529,0.65679914,544.57117,69.06052,0.9609537,528.11505,71.355835,0.23799025,560.3781,90.225525,0.99885225,534.5614,92.09833,0.97202265,570.4435,126.83713,0.99677986,539.6355,123.860794,0.79984516,545.4888,146.89241,0.9889402,527.5646,145.97614,0.7691568,563.08435,148.03183,0.99782395,547.132,146.98364,0.98970956,535.2208,174.08054,0.99311227,523.30396,172.43451,0.96802026,562.554,199.05869,0.9687498,558.2509,194.79846,0.9215959,1.01249544,0.4092453,0.88383229,0.27659676
23,766.6666666666667,525.8376,78.49335,0.9523413,530.5524,73.45389,0.9618569,523.9941,74.93233,0.6429531,543.9263,69.61696,0.96083254,527.9874,71.9464,0.22926797,559.84216,90.26923,0.9988451,534.5336,92.12653,0.97062755,569.8988,126.82355,0.996838,539.54926,123.90384,0.7934202,545.0826,146.91728,0.98908174,527.49475,146.06111,0.764231,562.66956,148.01721,0.9978277,547.0486,146.99791,0.9895092,535.1282,174.55661,0.9931201,523.585,173.03857,0.9674405,562.4178,199.35658,0.96858513,558.17664,195.24277,0.9202513,1.02069085,0.39548916,0.90176441,0.26873611
24,800.0,525.0796,78.304,0.95026565,529.7652,73.34149,0.9607643,523.43695,74.76097,0.6286011,543.2675,69.74705,0.96095645,527.78235,71.91174,0.2208664,559.2847,90.42976,0.9988372,534.2848,92.126495,0.96937156,569.51855,126.57388,0.99686337,539.13885,123.539566,0.7871562,544.83185,146.92757,0.9891149,527.1901,145.91989,0.75880164,562.2048,147.6519,0.99778146,546.8063,146.56853,0.98911124,535.0141,174.55815,0.99288964,523.8141,172.88261,0.9658793,562.3523,199.10599,0.96724564,558.53723,194.7524,0.9163302,1.02192793,0.40138465,0.90004489,0.27045563
25,833.3333333333334,524.67737,78.9048,0.9500055,529.2566,73.90552,0.96026796,522.93835,75.44112,0.6286125,542.5861,70.108154,0.9604595,527.24786,72.508316,0.2231473,558.76416,90.408394,0.99882954,534.3701,92.36493,0.9703091,568.9738,126.66968,0.99686027,539.3992,123.75281,0.794801,544.51025,147.29164,0.98912954,527.1829,145.77107,0.76593757,563.0879,147.66937,0.9978695,547.9951,146.75946,0.98974985,534.82043,173.86053,0.9933247,523.6323,172.60951,0.96844536,562.6666,198.914,0.969583,558.4636,195.00217,0.92282546,1.02212746,0.41612337,0.89906231,0.25154093
26,866.6666666666667,524.1809,78.64722,0.9458139,528.41547,73.816956,0.956606,522.8333,75.25822,0.6069257,541.5217,70.188644,0.95608056,527.9256,72.625565,0.21610297,558.0799,90.249695,0.9982191,534.32025,92.11855,0.96865094,567.73096,126.85626,0.9954497,538.0965,123.02344,0.7922903,544.4645,147.81981,0.98730123,528.61945,144.49644,0.7776926,563.0989,146.95982,0.9968732,548.9618,145.87927,0.98683053,533.45703,174.88966,0.9914192,522.99994,173.15485,0.96408945,560.1103,200.36281,0.9650925,555.79065,195.26776,0.9193053,1.02029968,0.41366692,0.89832537,0.25080399
27,900.0,523.219,78.80243,0.94484735,527.3841,73.99523,0.9567811,521.90955,75.415695,0.59284353,540.56433,70.44107,0.9579118,527.3229,72.81238,0.20802586,557.5706,90.346985,0.9982943,534.5205,92.124794,0.96810585,567.76575,126.55521,0.9957261,538.70123,122.64456,0.78974986,544.63257,147.494,0.9879654,528.902,144.22394,0.7774385,563.8872,147.0474,0.9969824,550.12915,145.8794,0.9869539,533.6287,174.83017,0.9916822,523.044,172.93605,0.964269,560.18604,200.83243,0.9656236,555.3848,195.39896,0.9193904,1.01361226,0.41022788,0.8941494,0.24417157
28,933.3333333333334,521.9861,79.21158,0.94291306,526.03534,74.41979,0.9561791,520.6711,75.834915,0.58066386,539.00934,70.80658,0.9590432,526.2887,73.15326,0.20484646,556.54913,90.60461,0.99832326,533.9399,92.37418,0.9669408,567.94525,126.837006,0.9958054,538.9099,122.91333,0.78178996,544.1654,147.74356,0.98798686,528.4166,144.53357,0.7698184,563.45636,147.43367,0.9969254,550.058,146.22263,0.9864028,533.26843,175.12025,0.9913946,522.8732,173.09639,0.9623058,559.9956,201.0458,0.96424186,555.4589,195.35773,0.91531163,1.02477469,0.38689157,0.91355539,0.25669948
29,966.6666666666666,521.07513,79.471634,0.9423496,525.08636,74.69971,0.95583034,519.8055,76.109634,0.57773554,538.06555,71.10361,0.95903397,525.65967,73.36847,0.20526795,555.5117,90.850136,0.99829584,533.8118,92.42409,0.96679115,567.12726,127.068924,0.99573946,538.95416,122.694244,0.78182906,543.6512,147.67549,0.9878083,528.0862,144.14722,0.7699612,563.2687,147.55612,0.9968533,550.4302,146.36751,0.98620147,532.94,175.12984,0.991176,522.9455,173.4467,0.9616971,559.93726,201.02902,0.9633,555.44495,195.90979,0.91365474,1.00879108,0.38075043,0.90029054,0.24933012
30,1000.0,520.70166,79.50847,0.9434052,524.75073,74.72983,0.9564297,519.11115,76.10158,0.5896923,537.3098,71.20288,0.9587969,524.32715,73.39029,0.21463616,554.6326,90.931015,0.99825245,532.9413,92.46469,0.96690893,566.5851,127.23363,0.9955611,538.97156,122.63681,0.7812588,542.7353,148.15677,0.98728883,527.552,144.55013,0.76826185,563.6044,147.64883,0.9966878,550.7186,146.49797,0.98570967,532.99316,175.3233,0.99067515,522.8108,173.67036,0.96009046,559.9916,201.1893,0.9615599,555.5298,196.13242,0.9104478,1.02148206,0.37755704,0.91601184,0.24859318
31,1033.3333333333335,519.8104,79.892525,0.9442521,523.87396,75.06796,0.95805645,518.19507,76.43476,0.58541435,536.6578,71.21632,0.9609589,523.6071,73.39273,0.20979114,554.1288,90.756424,0.9983529,532.8015,92.21263,0.9666754,566.2705,127.127655,0.995833,539.27997,122.38165,0.7773431,542.5692,147.95322,0.98790145,527.3542,144.20868,0.76596403,563.62164,147.58252,0.9968209,551.0022,146.38449,0.98585457,532.81134,175.50204,0.9910182,522.818,173.7396,0.96039283,559.9654,201.34843,0.9625133,555.7093,196.11084,0.91110605,1.02148206,0.37755704,0.91601184,0.24859318
32,1066.6666666666667,518.58734,80.35074,0.94494325,522.60236,75.52414,0.9580699,516.84625,76.93564,0.5909934,535.23724,71.503815,0.9606103,522.0035,73.84718,0.2126825,553.28094,90.600494,0.9983455,531.4701,92.568184,0.967246,566.2471,126.88791,0.99581134,538.5327,123.01465,0.7828362,542.27924,148.04015,0.98792946,526.57196,144.52711,0.7714047,563.78064,147.1375,0.9967519,550.86755,146.14122,0.9857605,532.9381,175.33197,0.99068576,522.7582,173.73535,0.95952326,559.8385,201.46274,0.9607284,555.8113,196.32321,0.9079106,1.02591667,0.36134444,0.93001363,0.23876737
33,1100.0,517.4766,80.61535,0.93905264,521.14685,75.824615,0.9536341,515.8817,77.38042,0.56319016,533.42285,71.538925,0.958975,521.5347,74.2226,0.20381469,552.338,90.25292,0.99831426,530.86755,92.46265,0.96570253,566.2202,126.68918,0.9958525,538.0831,122.990265,0.77960116,541.8007,148.06418,0.98791647,526.69055,144.54593,0.7679071,562.7932,147.20905,0.9968436,550.18713,146.31956,0.98599744,532.54315,175.45103,0.99093634,522.8209,173.92659,0.9602852,559.92676,201.8504,0.9617034,555.8436,196.5221,0.90967095,1.01149174,0.35888799,0.91674878,0.23213494
34,1133.3333333333333,516.23846,80.43872,0.93411535,519.74866,75.70665,0.9484941,514.7404,77.27439,0.5492525,531.66046,71.66884,0.9553836,520.4735,74.332825,0.20316914,551.0314,90.50359,0.9981501,529.7742,92.89868,0.9652673,565.4749,127.03108,0.9955205,537.2341,123.64409,0.78505236,541.02313,148.76929,0.98718077,526.4307,145.16048,0.77242047,562.8257,146.96368,0.99661416,550.41315,146.25696,0.98562175,532.2046,175.16414,0.99019414,522.958,174.04231,0.9588414,559.63904,201.40486,0.9587248,556.076,196.61685,0.90541166,1.00887135,0.36478348,0.91257281,0.22795897
35,1166.6666666666667,515.2654,80.940285,0.9315742,518.5876,76.24049,0.94601274,513.79285,77.88835,0.5382057,530.3328,72.03666,0.95443267,519.7337,74.898575,0.20181845,550.01917,90.32916,0.9981719,529.3051,93.00098,0.96596074,564.5916,126.61226,0.9956405,537.07,123.78998,0.79230666,540.47955,148.86906,0.9874544,526.6573,145.40576,0.77889794,562.4509,146.43318,0.9968451,550.3541,145.86356,0.9866785,532.0168,174.9315,0.9909266,522.98914,173.84842,0.96211404,559.5754,201.63235,0.96163386,555.8302,196.63597,0.9122281,1.02272634,0.36478348,0.92583766,0.23606527
36,1200.0,513.7104,81.48487,0.92675066,516.9116,76.7941,0.9426738,512.3965,78.462036,0.51404595,528.6856,72.298996,0.95351106,518.773,75.163864,0.19053343,548.7619,90.47771,0.9981592,528.4467,93.124245,0.96457726,562.9983,127.320465,0.99573994,536.52795,124.354294,0.7890167,539.7926,150.39227,0.98763615,526.7757,146.13559,0.7763894,562.13184,147.0191,0.99693286,550.3424,146.50844,0.9868592,531.24756,175.05006,0.9912464,522.6117,173.90082,0.9628912,559.4714,201.6761,0.96319556,555.9325,196.4197,0.91498,1.01249302,0.35250121,0.91945088,0.23557398
37,1233.3333333333335,512.19727,82.24588,0.93214667,515.56384,77.13428,0.9520975,510.52185,79.15488,0.52665824,527.48914,72.86441,0.96164167,516.2528,75.99656,0.18366483,547.40405,91.43569,0.9987613,528.73627,94.07497,0.9600375,563.77856,127.53696,0.99704474,538.6698,124.74831,0.7512074,539.31757,150.57533,0.98919374,525.973,147.498,0.7302604,563.6711,147.02347,0.9974572,551.993,146.71626,0.98662996,530.05133,172.65805,0.9919234,521.76483,172.67969,0.958018,562.5667,199.92963,0.96179724,559.3146,196.31073,0.8986574,1.01249302,0.35250121,0.91945088,0.23557398
38,1266.6666666666665,510.35178,83.85982,0.9286517,513.63,78.839584,0.9508931,508.88965,80.75979,0.51050735,525.8315,73.83291,0.9610846,515.3064,76.653564,0.17644276,544.83026,91.55576,0.9986994,528.26575,93.16461,0.9572351,558.64435,127.57408,0.99696165,538.27374,123.13637,0.7409483,537.62103,151.93185,0.98868215,527.06,146.58597,0.7199653,562.16754,146.98361,0.99744177,551.6476,146.49377,0.9864465,529.31226,173.7224,0.9920648,522.0401,173.28523,0.9585343,562.6497,200.00204,0.9633833,559.21814,195.71368,0.90242356,1.01955876,0.3475883,0.93222444,0.22280041
39,1300.0,508.7509,84.71412,0.9118742,511.64746,79.93233,0.93964463,507.5579,81.70724,0.45081007,523.199,75.04809,0.95660263,514.35986,77.51787,0.15910439,542.39594,91.90866,0.99858946,527.31635,93.098465,0.95171714,556.34625,126.8038,0.9969637,537.5052,122.28529,0.73002094,537.0263,151.61014,0.98850423,527.4382,146.88437,0.7099439,561.6069,146.5034,0.9975521,551.9364,145.98595,0.98675275,529.488,174.1434,0.9925067,522.729,173.35725,0.9600305,562.8345,200.28632,0.9655095,559.028,195.28152,0.90675265,1.02912332,0.34390362,0.94573494,0.21543105
40,1333.3333333333333,507.1466,85.64366,0.8957089,509.38287,80.643974,0.9286326,506.40662,82.69411,0.43605626,520.9766,75.33343,0.9503154,514.5989,78.64667,0.16169736,540.5728,92.09093,0.99789727,527.8214,93.16972,0.949155,553.27496,126.60086,0.9952236,536.7216,122.45155,0.728619,538.0577,154.42447,0.9819843,529.2205,146.4024,0.6880499,560.5021,146.61559,0.9965418,552.2821,145.84454,0.9844387,527.9865,174.02394,0.9893912,523.03516,172.67963,0.9526859,560.2844,201.83246,0.95355505,556.21796,195.84567,0.8872425,1.00985214,0.27536854,0.94598059,0.22157219
41,1366.6666666666667,505.4994,86.25163,0.9122044,508.0458,81.25444,0.9410448,504.5901,83.22049,0.48738757,520.26605,76.344666,0.9552121,512.45935,79.49688,0.17632917,539.0811,93.53174,0.9980343,526.46387,94.1748,0.9523316,550.8605,127.3405,0.9951852,535.3663,122.44125,0.7302313,536.77747,155.14633,0.98176277,528.80035,146.57193,0.68884945,559.6337,146.25494,0.99646866,551.329,145.41754,0.98419684,528.22736,174.67511,0.98913735,523.3881,173.32695,0.9519586,560.04645,201.8147,0.95242435,556.064,196.02927,0.88516617,1.0438713,0.2800358,0.97914272,0.2291872
42,1400.0,504.2389,87.47075,0.91801095,506.77542,82.355316,0.9443488,503.06238,84.47046,0.5112566,519.02686,77.101654,0.9555855,510.46924,80.63066,0.18503311,538.1325,93.92599,0.99807054,524.942,94.81464,0.95442355,550.66223,127.701385,0.99518293,534.65594,122.65741,0.7393061,535.88184,155.58063,0.98201364,528.6785,146.23047,0.6996428,559.1787,145.35419,0.9965055,550.4641,144.6539,0.9846318,527.8701,174.23407,0.9893863,523.13007,173.2319,0.95384085,559.8551,201.62085,0.9533248,556.10504,196.3039,0.8883335,1.04106743,0.27438596,0.98503821,0.19553377
43,1433.3333333333333,501.75684,87.73462,0.9107983,504.1247,82.92262,0.9390536,500.9434,84.87706,0.48146218,516.1998,78.37864,0.9542772,508.81378,81.50581,0.17407613,536.2092,94.7511,0.998094,523.5772,95.71941,0.9547906,549.80066,127.51143,0.9954507,533.6731,123.08099,0.75104153,536.1187,155.93314,0.98294395,529.16486,146.22676,0.7117047,560.0694,145.50897,0.99678683,551.5927,144.89055,0.9859008,528.24274,174.27255,0.9899985,523.30023,173.16298,0.9564903,559.87463,202.07822,0.9545967,556.18787,196.42714,0.8914424,0.99414397,0.2719295,0.94082203,0.17096923
44,1466.6666666666665,501.07944,88.776184,0.9123963,503.42422,83.99507,0.94006276,499.85718,85.872986,0.49238768,514.7373,78.8587,0.95329034,506.5814,81.82854,0.18148334,533.6631,94.083115,0.9981438,521.7833,94.75099,0.95325166,547.9155,126.686966,0.9956092,533.5696,121.763824,0.74249333,535.54816,154.54373,0.9833128,528.7566,145.49963,0.70479244,558.56384,143.78033,0.9969409,550.46893,143.29706,0.986128,527.3132,174.14008,0.9907293,523.1281,173.39896,0.9582163,560.09033,201.61227,0.95800173,556.86975,196.52367,0.8967903,1.01899256,0.28519436,0.96219319,0.17661907
45,1500.0,498.24274,89.301414,0.8869646,500.11813,84.68829,0.91987514,497.71942,86.5845,0.4172389,510.8466,80.03058,0.94603705,505.66705,82.91385,0.16143385,531.3664,95.243546,0.99790335,520.21246,96.50863,0.95036674,547.4268,126.88371,0.9954652,531.6667,123.40808,0.74979395,534.57214,154.91385,0.9829753,525.9651,146.36688,0.71159333,557.74347,145.78769,0.99679416,550.24493,145.51346,0.98594415,525.91864,175.09555,0.9897653,521.9634,174.31068,0.95534015,559.9196,201.77559,0.9524279,556.972,196.38016,0.8862338,1.0301181,0.28593129,0.97275594,0.18202327
46,1533.3333333333335,497.30643,91.32318,0.88619727,498.97922,86.4232,0.91937226,496.60837,88.70024,0.41808242,509.26523,80.85762,0.9448377,504.41467,84.52089,0.16304673,529.6051,95.394966,0.9977824,519.47516,97.77257,0.94770384,546.40985,127.69762,0.99525946,531.9076,125.60446,0.7370575,533.8722,155.12544,0.9823088,524.20953,146.68878,0.7000718,556.54834,147.13988,0.9963213,549.69275,147.4438,0.9838463,523.5665,175.41959,0.9882089,520.3412,175.55885,0.948224,560.637,201.77682,0.94578695,557.6282,197.08545,0.8704093,1.06250229,0.31295229,0.99805742,0.18669053
47,1566.6666666666667,494.2301,94.258484,0.85592693,495.52216,89.316536,0.90049297,494.0942,91.68958,0.3598238,505.77466,83.08222,0.937713,503.37912,86.88125,0.14354815,526.39307,97.02878,0.9970367,518.8923,98.787834,0.93323576,543.11707,129.4653,0.9939017,530.85065,126.02144,0.69651985,533.6414,157.08073,0.97774005,523.9776,147.42648,0.658568,554.21356,148.18481,0.9952083,549.0285,148.40942,0.9795098,522.1255,176.35834,0.98557407,520.12256,176.38925,0.938621,561.4695,201.60883,0.93841594,557.6064,196.73497,0.85620904,1.00670794,0.25276916,0.95678899,0.18472537
48,1600.0,492.6602,95.209984,0.8124426,493.87122,90.42762,0.87592447,492.1893,92.299835,0.27502784,503.95596,83.805695,0.93247616,503.1978,86.50829,0.14031677,522.6995,96.5635,0.9950305,518.12897,97.653534,0.91206425,539.9154,129.64482,0.98914623,530.57196,123.56081,0.58816,529.92566,155.62436,0.96447754,520.3742,143.11172,0.5530301,546.22614,146.7453,0.9920695,544.5515,147.10353,0.9660651,521.168,178.14746,0.9823141,520.00085,178.3638,0.92772466,554.9064,203.8711,0.9418201,551.92944,198.35806,0.87200373,1.08527028,0.25375174,1.0422736,0.16458244
49,1633.3333333333333,490.55746,96.75879,0.7955383,491.8839,92.16014,0.871921,490.2726,93.68353,0.2598238,501.98172,86.10068,0.9294908,501.42697,87.88678,0.12838788,520.1068,99.412254,0.99376255,516.88257,98.67817,0.8920485,535.08716,134.16069,0.9861204,526.326,122.597595,0.5256745,525.7235,157.58524,0.95463437,512.6527,134.6066,0.49351802,546.8459,146.42285,0.99008,546.0931,146.23993,0.95816183,520.5736,178.5552,0.9809905,519.9634,178.17654,0.9227341,553.97046,204.24792,0.9435302,551.82263,198.23425,0.87622267,1.07094138,0.34857088,1.00198775,0.14640468
50,1666.6666666666667,487.80728,97.77095,0.77900106,489.4755,93.638855,0.86145884,487.37036,94.59324,0.23946236,499.03796,88.42435,0.92446977,496.76807,88.857506,0.113723084,516.8863,101.61947,0.9939814,511.1229,98.47184,0.88203806,533.35596,135.40564,0.9879461,520.3196,115.47836,0.52005696,521.12823,158.99321,0.95990974,504.64618,122.27881,0.49596873,544.98865,145.45357,0.9915901,542.61884,144.55713,0.9621134,520.27905,179.36546,0.98363703,518.0594,178.49623,0.9289183,553.6645,203.65552,0.9497682,552.07745,197.83363,0.8850493,1.02075742,0.31639133,0.95949109,0.14566775
51,1700.0,483.83276,99.767,0.79884064,485.4364,95.772705,0.88051116,483.4231,96.62747,0.23170334,495.00873,89.80206,0.9366112,492.64948,90.18211,0.09649243,514.4844,102.13435,0.9958431,506.67935,98.297844,0.8852305,532.29474,135.23329,0.99257976,512.632,110.53322,0.53188425,517.8909,157.39658,0.97391135,493.56854,111.96738,0.5243837,544.3524,145.3125,0.99405515,540.93646,144.25955,0.96842706,520.03577,180.94835,0.9870926,516.9652,180.34879,0.93394876,553.7068,203.7879,0.9543111,550.9688,198.33965,0.88474256,1.02075742,0.31639133,0.95949109,0.14566775
52,1733.3333333333335,479.86844,101.786026,0.77142096,481.64844,97.91091,0.87483025,479.25064,98.55851,0.22005464,491.9257,92.246635,0.93930435,488.60764,92.106224,0.09994392,509.61307,104.46742,0.99493945,506.12943,101.53424,0.854291,526.4672,137.91583,0.98962224,524.6648,125.24756,0.43395042,516.382,163.22581,0.96312314,520.26526,150.04916,0.42557606,542.54333,145.90222,0.9927233,541.02026,145.17514,0.96044815,518.0615,181.04709,0.9868268,515.7129,180.09198,0.93102473,552.52716,203.83392,0.96178514,549.5867,198.51419,0.90022594,1.04117639,0.29673969,0.99117935,0.11643594
53,1766.6666666666665,475.99634,104.42935,0.7721245,478.12485,100.994095,0.8881376,476.49564,100.980064,0.2041593,488.38132,95.44862,0.95380485,486.51382,93.38123,0.08807202,504.57184,108.38724,0.99734396,503.89154,102.58266,0.86427,517.4461,142.44032,0.99502975,519.77374,127.695755,0.45479015,508.3188,165.91592,0.97785974,512.07794,156.30846,0.44881955,541.19867,148.75888,0.9962999,540.74097,147.19456,0.9748498,516.84766,180.48694,0.992362,513.28046,179.39487,0.9495225,558.38696,197.8664,0.9740692,553.048,194.91232,0.9190416,0.99915572,0.2638232,0.94966527,0.16384551
54,1800.0,473.69165,105.31737,0.8140734,475.76715,101.76189,0.90123385,473.45166,101.99808,0.25904506,486.1179,97.7191,0.94889957,482.96194,96.5004,0.10840318,501.38904,112.12727,0.99618053,500.40097,107.57536,0.8773967,511.8555,148.83766,0.99176604,512.9672,135.33884,0.45746705,502.53882,170.94574,0.96820295,505.4164,164.37442,0.44323495,538.90094,149.95204,0.99345905,538.7736,149.07,0.9632801,514.5471,181.95058,0.9873533,512.8906,180.92041,0.9304715,552.0226,202.09718,0.96259993,547.65155,197.27159,0.89913434,0.99915572,0.2638232,0.94966527,0.16384551
55,1833.3333333333333,470.2185,107.83736,0.8217019,472.34558,104.54463,0.8972324,470.48984,104.425606,0.24256626,482.40106,101.621994,0.95176375,480.1933,99.56831,0.107089765,496.32523,116.49054,0.99749434,496.8632,112.06842,0.9123644,503.39038,153.31929,0.9952952,506.7854,141.77351,0.5714602,493.98416,175.12549,0.9805876,495.91443,172.4701,0.5506814,537.18427,151.93214,0.99574345,537.73883,151.43445,0.97525275,514.75195,182.99155,0.9893735,512.22516,182.06818,0.9388581,554.41345,200.85513,0.961165,548.13794,196.17213,0.8932032,1.00629211,0.34906217,0.94303284,0.03832069
56,1866.6666666666667,467.91965,112.97909,0.8091809,469.53012,109.782776,0.90266526,468.6838,109.48973,0.20456682,479.15146,105.06672,0.9607877,480.2551,102.53156,0.09261332,492.96194,118.95208,0.9978538,498.32086,112.03908,0.89951164,496.0756,160.14113,0.99609417,505.2458,141.61316,0.51334816,482.8234,185.42834,0.9818658,489.82617,172.05045,0.50181973,536.6792,153.45975,0.99583083,540.4512,152.09964,0.97225493,513.9808,184.65685,0.9896047,513.9847,183.41008,0.9317539,555.1524,200.95618,0.9616881,549.1006,196.14156,0.8859997,0.8055253,0.12970079,0.7703441,0.19651635
57,1900.0,463.90857,117.31377,0.73903936,465.1478,114.40544,0.83940256,466.37927,113.79996,0.15426847,474.37607,109.55839,0.9401047,480.91553,105.67703,0.08233599,488.96048,123.29962,0.99616086,498.26822,113.065994,0.89454496,489.37195,166.31355,0.99414,501.61493,136.98834,0.58289415,474.63983,190.73268,0.9782259,485.5182,163.67087,0.58053213,536.0392,157.1917,0.9930246,542.7678,154.86115,0.96523327,511.57788,190.07352,0.9799234,515.7762,188.42513,0.9023785,553.43176,203.82738,0.9258025,549.82,199.91946,0.8240524,0.85099015,0.11717287,0.79343477,0.28445742
58,1933.3333333333333,458.69623,120.08804,0.6981691,460.31696,117.415115,0.8127806,461.61563,116.37077,0.13765208,470.3382,113.71745,0.93366295,476.69675,108.49986,0.079617895,484.51248,128.84026,0.99494165,494.38745,116.31859,0.8838716,481.669,175.30408,0.991727,495.826,143.99393,0.5532765,464.83307,199.80841,0.9691673,476.48032,178.33957,0.54084176,534.5835,160.45891,0.9902852,541.5425,157.21487,0.9566991,509.35822,191.60767,0.9733925,514.15955,188.56564,0.8847198,552.6164,203.00195,0.9121328,551.44745,198.83145,0.8070578,0.34728575,0.09383656,0.2368022,0.23606527
59,1966.6666666666665,455.44302,123.34169,0.56076324,456.3219,121.23123,0.70386577,458.69348,119.645065,0.073700435,464.10553,118.87787,0.92494947,474.09793,112.53531,0.064241596,478.17612,133.68608,0.9959661,491.29553,119.4708,0.88045526,475.94235,178.61255,0.9943297,493.69717,143.79324,0.56616664,455.28683,204.133,0.97583395,473.83652,172.80782,0.55374193,528.3213,163.02258,0.99365354,538.39105,158.94403,0.9676018,505.5309,194.60141,0.9807989,520.20386,188.90482,0.9061371,542.914,205.91078,0.92765296,558.39526,197.4382,0.8290713,0.34728575,0.09383656,0.2368022,0.23606527
60,2000.0,449.7381,128.62805,0.6856449,451.62863,125.79228,0.8040432,452.70972,124.49457,0.14569212,459.6253,122.80362,0.94380665,465.34564,117.333115,0.09660612,473.32175,138.54044,0.9969459,484.53867,126.54639,0.893101,466.2603,182.56615,0.9937723,489.27368,152.0745,0.55071956,447.21747,209.83493,0.97109646,471.94708,180.0971,0.5252253,526.03217,166.75905,0.99293655,533.1942,163.27711,0.96450496,506.97446,197.34586,0.9805305,516.4418,190.54825,0.90770024,548.3972,206.63562,0.9328905,559.45526,197.47751,0.84159195,0.66682589,0.49669508,0.41686031,-0.15549356
61,2033.3333333333333,443.59433,133.88582,0.5768338,445.31775,131.3416,0.67617106,447.41135,129.2985,0.112278275,452.17743,128.70784,0.921573,459.58118,122.396805,0.10410454,466.63266,144.59805,0.99617934,476.27087,132.67366,0.9200452,455.57486,189.1852,0.99185,477.2705,162.30989,0.6737549,437.1692,223.69275,0.95927376,461.84283,195.81982,0.5934384,523.3576,168.38185,0.9941818,528.1851,164.74695,0.97811073,512.574,200.68901,0.98506445,513.61584,193.39468,0.94599897,550.3396,206.84325,0.94672614,552.7949,199.54056,0.8907715,0.96766006,0.3687138,0.82561432,0.34464055
62,2066.666666666667,438.0589,144.97809,0.52488524,438.806,143.28067,0.6394633,441.2038,140.6704,0.08760203,445.40945,140.49937,0.90202445,453.44833,133.3728,0.08464567,460.6467,153.20667,0.99480337,469.3594,139.30777,0.90186036,454.83273,197.9772,0.9910856,468.2716,168.8646,0.64925,437.36774,224.46861,0.9578944,448.86948,201.972,0.5738034,518.1691,170.00978,0.99237376,523.737,166.15121,0.97096306,511.92175,203.26993,0.97904027,515.9996,196.38893,0.9231527,544.1812,209.19357,0.92276305,549.17426,202.13953,0.84310794,0.97831059,0.5843905,0.62025473,0.48048248
63,2100.0,430.95486,157.06802,0.4765622,430.4231,154.79784,0.54350007,432.75208,153.2098,0.1128333,435.0821,150.19087,0.8207328,442.1731,145.88171,0.122403994,452.56137,160.39882,0.98767567,457.16803,150.70526,0.888096,452.53882,203.95758,0.9762245,462.84192,183.87292,0.65040344,436.1145,225.29807,0.9053958,444.59692,218.76643,0.5417357,510.90216,173.72748,0.98061633,513.9024,172.13545,0.9490372,516.47314,204.70032,0.94904566,518.0683,198.25903,0.87419873,551.62006,206.50787,0.8532285,553.8729,199.06204,0.7677798,0.77971144,0.22402864,0.72858437,0.16409115
64,2133.3333333333335,423.75745,161.48283,0.56583124,423.141,159.11894,0.608079,425.38953,157.7175,0.16063704,429.10678,154.29651,0.83922327,436.1777,150.67905,0.16520067,447.0083,164.53435,0.98995835,453.8185,154.34288,0.92537516,447.6704,206.67754,0.9766782,461.7888,185.72441,0.7390137,436.2281,225.00826,0.9075838,444.59177,217.53941,0.6243627,505.46545,180.37375,0.9829943,509.6522,178.6522,0.9608013,520.62335,205.22621,0.9522135,523.328,197.06091,0.8985635,553.88007,205.19724,0.8631829,557.28625,195.49545,0.8016965,2.48316594,-1.52545818,0.31442616,1.93396655
65,2166.6666666666665,422.1479,173.27798,0.53089213,421.05505,171.34967,0.59098566,424.19717,169.3692,0.13912123,425.59152,164.16785,0.84974766,435.4169,159.50589,0.1590173,443.28305,171.1227,0.99117017,452.51578,158.25037,0.91757303,443.8147,210.89032,0.9805906,461.33188,185.64412,0.71942675,436.12897,225.21259,0.9191787,445.98657,214.85622,0.6078839,500.08582,187.61644,0.9855952,505.93033,184.37517,0.9627882,516.2063,214.9361,0.95735407,519.7257,203.15758,0.8988611,550.5798,209.17395,0.8737113,553.1697,194.42499,0.80353636,2.48316594,-1.52545818,0.31442616,1.93396655
66,2200.0,417.9592,179.65324,0.50279814,416.31247,178.31392,0.58715266,419.34872,176.15604,0.09827319,419.6574,169.06346,0.84677154,430.24707,164.05539,0.10532124,435.88232,170.7906,0.9922575,446.62796,160.15137,0.87025523,444.42627,210.97847,0.98811954,464.52725,189.37279,0.61145186,435.0181,222.60068,0.9454143,452.82953,214.87679,0.51822,494.08142,192.08348,0.98449117,502.29187,191.09094,0.94080555,516.2763,218.37009,0.93166155,526.1301,210.59283,0.7822051,548.3176,210.34355,0.7824782,561.4889,198.7832,0.6215707,1.31303666,-0.65513639,0.58267098,0.9774232
67,2233.3333333333335,414.95798,182.07434,0.2888164,412.56006,180.90143,0.33099166,417.2555,178.72192,0.045949817,414.48843,172.54417,0.75070816,429.2818,167.39256,0.08093217,432.18185,174.78528,0.98684585,444.99942,163.32603,0.8411132,442.6616,211.51157,0.9836194,470.34805,188.1526,0.64448303,436.63016,219.98686,0.9363476,472.10522,209.12202,0.5565441,488.87665,196.93166,0.9827053,498.61627,195.28978,0.9433134,507.97534,221.1575,0.9236794,522.9847,211.47293,0.7895052,538.45044,210.98341,0.7637716,559.2594,196.64972,0.6200545,1.02408597,0.54017432,0.29502017,0.8184906
68,2266.6666666666665,411.5843,183.9819,0.29626983,409.56464,182.91483,0.30494988,414.34378,180.75014,0.054064985,411.74884,176.21736,0.687771,425.87735,171.34482,0.08273513,428.51407,178.50743,0.9829212,438.1528,168.0865,0.85278314,437.81833,209.23378,0.97974604,451.57507,188.17786,0.70258003,436.61536,215.55762,0.9332507,446.46307,208.77206,0.62851423,483.4494,200.06276,0.9832848,491.38596,199.13443,0.95387787,508.8313,210.64977,0.9435801,521.24915,202.11333,0.86209565,537.01746,210.95436,0.84299546,555.27563,199.43169,0.75357115,0.8643057,-0.14222871,-0.05232248,0.8509158
69,2300.0,403.2906,154.50813,0.09771658,401.30408,153.95575,0.06522821,407.78516,150.72408,0.01945541,400.89352,160.23856,0.42762348,423.01694,151.87172,0.09367738,418.56714,180.84334,0.95256776,436.3055,163.55396,0.87222314,433.19812,218.56326,0.9325671,451.05945,185.07549,0.7995271,435.63297,217.03552,0.8316686,440.04596,207.27892,0.69949925,476.36823,205.00887,0.96780795,490.20004,201.36473,0.9542803,505.58685,208.15492,0.90460026,521.5507,196.53056,0.8789597,535.44574,215.08176,0.7664643,556.7585,204.21786,0.7514858,6.26386125,0.95924544,1.46994231,6.01290907
70,2333.3333333333335,406.08118,160.25922,0.06749565,403.573,159.75813,0.03654524,409.7841,156.68379,0.01989822,399.96576,166.54521,0.28606328,421.68945,159.17572,0.12440536,413.89954,186.88284,0.9010423,433.9107,170.04884,0.8512179,423.63,220.37286,0.85489684,449.4003,186.55943,0.79911965,429.80627,214.52011,0.70927536,439.68576,205.58887,0.68557477,473.15347,202.489,0.9511601,487.5066,199.48709,0.94827795,512.67487,205.24124,0.8885224,522.4522,193.74739,0.8921537,544.5733,212.06187,0.7798894,553.67786,202.3865,0.79755723,0.97158004,0.79048702,-0.5465611,0.14272
71,2366.6666666666665,413.28827,171.00392,0.027768113,409.7331,170.02661,0.0112846475,416.18118,168.24826,0.018673975,402.16217,174.96974,0.104680404,423.00232,171.03458,0.1612983,411.9002,193.89291,0.5607555,433.90976,179.36371,0.70241934,417.21924,222.0589,0.43108687,481.40082,186.88106,0.72406816,428.50043,215.83008,0.3350788,531.8353,196.7028,0.5798808,465.5024,197.95291,0.8171514,478.6762,196.72334,0.8747349,506.79504,202.76505,0.7408977,515.9175,194.66537,0.83173543,542.3526,207.91522,0.6800339,544.86176,202.2767,0.75905854,1.33160167,-0.44314437,0.46279601,1.16730713
72,2400.0,429.94455,174.00569,0.006844235,425.08896,170.64153,0.0020587083,432.36456,171.98424,0.0083027175,410.98608,173.17038,0.023167402,434.5543,176.96246,0.11276861,413.6244,190.51611,0.14169161,437.783,190.85794,0.32583085,439.64523,197.9945,0.12253987,470.2449,190.22401,0.4374032,490.75613,195.31564,0.12941255,503.14975,196.45049,0.3349532,448.59622,199.40619,0.4999647,466.87494,204.54916,0.63536745,489.8738,190.5601,0.53268707,500.80103,191.79454,0.67793953,533.2461,200.94247,0.5943854,533.4286,203.01282,0.68388957,1.33160167,-0.44314437,0.46279601,1.16730713
73,2433.333333333333,433.89026,177.14589,0.007492529,427.71603,174.16391,0.0017864207,435.42706,175.50812,0.010002729,412.58994,177.46278,0.016166443,437.22656,181.08365,0.15800515,416.3941,194.35065,0.14147891,442.75858,192.06628,0.441491,442.79993,204.12393,0.120857365,486.53125,191.36292,0.60676765,480.99277,191.37366,0.13555701,523.24457,194.5403,0.48237348,451.08923,203.15231,0.5632348,469.65665,207.35822,0.74412096,496.13562,184.32092,0.6166449,508.9786,185.09836,0.797738,535.8489,201.12225,0.6867929,535.9818,203.8454,0.7963025,0.78891499,0.60944634,0.10955787,0.48883442
74,2466.666666666667,444.1715,186.96301,0.037256323,438.90652,183.94203,0.010433407,445.50906,186.38681,0.038455278,423.98486,184.2747,0.034185495,442.2851,190.08385,0.16826342,427.55396,195.12114,0.2575942,443.46942,196.66637,0.46555442,449.06726,199.15598,0.22776182,482.17465,193.70038,0.561159,476.70987,195.91856,0.3014446,524.35284,192.34993,0.5743685,454.49692,208.53888,0.62509185,464.90262,213.87306,0.73784506,490.5307,180.7888,0.7637448,501.33472,183.07576,0.85583395,540.9403,201.31119,0.8308502,543.26434,204.17427,0.8784032,0.49912403,0.2021662,-0.25006706,0.38173301
75,2500.0,438.62296,185.32045,0.010292774,431.87137,182.70361,0.0028530837,439.42383,186.6111,0.013519964,415.9309,185.074,0.017276594,437.0831,194.66115,0.11779104,418.2605,193.98628,0.124759,439.44937,198.07079,0.33864206,431.8504,192.93187,0.13859984,476.99472,186.25638,0.5171984,454.5291,194.49588,0.17856352,518.52856,190.93777,0.47584042,446.9899,200.92612,0.6023647,460.55423,207.90047,0.74558324,487.85223,175.03581,0.7482686,501.55746,179.55194,0.8610779,540.11743,198.01414,0.84018046,540.9724,202.21136,0.8935028,0.68562846,0.08843236,-0.40605191,0.54533288
76,2533.333333333333,435.07034,181.97302,0.011688602,428.65094,179.46347,0.0034186465,435.5898,183.54234,0.013398231,414.1259,182.9778,0.019593868,433.21207,192.67407,0.104526035,418.99857,192.86201,0.15918958,436.05444,197.24493,0.35152084,435.35468,191.57236,0.18550463,475.7699,185.9908,0.5267925,457.3061,195.33438,0.23004082,519.6837,192.19518,0.49892294,448.51508,201.90106,0.68561447,459.14642,208.89508,0.7901165,485.59448,173.19586,0.8120477,497.60437,177.87433,0.8896182,538.65857,198.17761,0.8815486,539.2885,201.70393,0.9172195,2.60109327,0.06092007,-2.01306438,1.64607009
77,2566.666666666667,425.94077,186.79895,0.007484622,419.8589,183.57259,0.0019503562,426.61905,187.43274,0.009104607,403.41437,185.28319,0.015621048,422.8173,194.56952,0.09779892,405.58405,196.54753,0.14044599,427.79535,199.13924,0.30321714,427.87372,195.15985,0.16971888,475.07693,184.58984,0.49873197,466.10638,197.86258,0.22628301,522.7663,191.11267,0.4837867,437.76263,202.77333,0.6821941,452.07254,209.37076,0.78502357,475.63104,179.06526,0.8155578,490.1886,183.97495,0.8899684,534.64874,195.25749,0.88258874,536.311,200.64362,0.9160046,2.60109327,0.06092007,-2.01306438,1.64607009
78,2600.0,421.6754,191.92026,0.007966919,415.25433,189.27043,0.002349128,422.38547,193.52835,0.009028531,398.6864,191.17572,0.018207338,418.1142,201.21844,0.0920429,401.65866,197.56146,0.16426443,424.43524,201.55238,0.2874657,420.85278,193.85518,0.21227022,468.65875,185.94951,0.46106133,448.18652,197.28429,0.25864047,513.1066,190.27031,0.45775303,437.85764,197.97714,0.7261031,451.54697,204.86395,0.79633343,470.98718,178.22328,0.84488416,486.3811,184.32465,0.8943811,531.53094,196.85727,0.89665085,532.9644,201.42683,0.9189723,1.55320601,0.85779388,-1.0287631,0.78631105
79,2633.3333333333335,404.74106,199.42181,0.01874801,398.8828,196.18335,0.0056399023,403.91028,201.01108,0.021753738,387.87115,197.77219,0.026412899,401.41202,209.7196,0.14461303,394.9574,204.21411,0.22840135,406.4452,212.40369,0.47620597,406.9841,201.17117,0.23080282,431.6385,202.37091,0.6018564,432.64322,194.91216,0.26006395,463.50113,195.12453,0.55022573,436.98407,200.61472,0.71991575,444.83963,209.73969,0.8217516,475.56082,176.37018,0.8141255,483.1852,183.129,0.889801,528.02264,197.3688,0.86429423,526.35425,201.00717,0.9044355,1.31547511,0.94647188,-0.65661026,0.63523911
80,2666.6666666666665,428.88538,196.55115,0.06524866,424.87375,193.61981,0.017536433,428.84644,196.96715,0.05666361,411.14905,193.94171,0.07213473,422.69302,203.05576,0.21816778,411.61267,198.94824,0.5592493,415.9049,207.24243,0.80309236,408.4309,206.05853,0.528818,404.3258,207.3844,0.8326435,435.8257,200.61823,0.5464015,418.50314,192.7719,0.7973764,450.4452,204.62387,0.8639835,454.94028,214.21686,0.9202266,481.0478,178.65936,0.8802416,486.91037,185.53111,0.92727685,529.45874,199.57445,0.86753386,535.27606,205.27992,0.90359193,1.05439235,0.63941508,-0.64138024,0.53992868
81,2700.0,407.6379,202.91522,0.06397371,404.92358,201.2857,0.025328003,408.66525,203.33188,0.05286612,393.6597,204.48444,0.08559906,403.48892,209.96326,0.15059474,395.0383,208.39247,0.44054982,404.5556,213.93607,0.58630407,404.94104,208.77664,0.40830126,414.4599,209.60909,0.5995807,434.06293,203.50644,0.44635308,432.39725,197.47432,0.6038786,436.92715,207.48741,0.7742217,443.57788,215.36014,0.8228672,466.86023,177.3388,0.8566675,474.68097,183.88727,0.8894948,516.9513,198.16992,0.8786385,523.15436,204.689,0.89786106,1.05789498,0.15524792,-0.94843704,0.44216179
82,2733.3333333333335,401.97406,209.9746,0.015723955,397.59622,208.70459,0.0072100577,403.7171,211.2692,0.013523831,384.49716,211.30612,0.054941006,401.2297,218.09778,0.08580044,382.58472,211.8591,0.24587321,413.00024,214.73273,0.29133683,390.09943,203.53873,0.2903787,450.51788,201.51817,0.38240376,416.261,198.05888,0.33925495,490.2895,203.11673,0.42053422,424.3165,203.09608,0.69158876,442.14478,209.0669,0.7185107,458.38806,179.63943,0.82192445,478.75977,185.03815,0.8475206,508.07678,200.99733,0.8654652,517.1134,205.25522,0.8787677,1.4192858,0.25350609,-0.89758844,1.06978589
83,2766.6666666666665,459.00372,192.54884,0.0067848107,452.69028,191.34465,0.0025180087,461.32672,192.83853,0.008361754,429.3124,195.34306,0.021349601,455.02127,199.80824,0.09096112,412.84116,202.29419,0.09998454,454.29773,200.22325,0.13561726,402.43115,204.47324,0.11686418,475.9994,189.9752,0.18108211,416.20926,215.71844,0.13992488,505.98083,208.50574,0.19965126,427.84875,202.67268,0.39968303,454.14224,205.76692,0.434525,454.40363,175.6019,0.6524256,480.31888,179.144,0.68949056,494.47095,204.99608,0.7914374,504.1706,209.97516,0.80177134,1.4192858,0.25350609,-0.89758844,1.06978589
84,2800.0,399.47635,198.7569,0.00671357,390.74994,196.16489,0.0022740383,398.31918,201.12785,0.010904091,372.01337,200.14143,0.012363552,393.17297,213.49742,0.11119788,376.68597,208.2789,0.05713954,402.75128,216.54695,0.15698509,388.9242,206.26126,0.055492654,418.63934,206.7468,0.2238355,408.0105,207.55713,0.07372388,420.8924,213.94182,0.23131114,418.61447,206.11322,0.30867887,436.71207,214.05597,0.44480878,456.17203,174.63242,0.6167131,477.47833,180.60793,0.74674463,497.58752,208.28192,0.80094856,502.38623,210.33246,0.8557849,1.31500816,0.78287202,-0.7136,0.77918733
85,2833.3333333333335,440.4651,190.30435,0.010044025,435.7509,189.83304,0.0037482847,443.6564,190.6604,0.011433463,420.21722,196.20895,0.034129933,445.31845,198.11206,0.1417615,409.78265,204.99664,0.1609683,449.22098,200.02759,0.29490957,401.61795,205.96504,0.14903338,480.76703,189.84888,0.3545539,408.86993,212.0466,0.16178282,509.69888,209.21857,0.3165896,425.97415,208.80682,0.5006386,450.25293,209.86563,0.59456855,452.76874,178.1192,0.6834111,474.6677,178.06454,0.7677507,488.65775,210.26523,0.7959044,500.48334,211.8205,0.83580893,1.07765351,0.31172406,-0.70230031,0.75560537
86,2866.6666666666665,412.5626,200.43729,0.01339736,406.5424,199.68079,0.0060920627,414.63705,201.6666,0.014411091,393.7068,205.53705,0.04313622,417.7859,209.88693,0.13785218,393.9508,214.09967,0.1460587,434.01083,210.28696,0.30066878,400.90457,209.16446,0.13387486,477.5612,193.89268,0.37533164,408.53522,213.35071,0.15936165,507.60876,212.57722,0.3591361,429.9669,212.3233,0.48219612,454.1924,214.09013,0.6025452,453.15518,179.90556,0.67580336,475.57974,181.59695,0.7833789,491.1499,212.06561,0.79387003,498.17197,213.6462,0.84745485,1.12857169,0.29059856,-0.77795911,0.76420296
87,2900.0,478.11353,205.39502,0.012231421,473.75967,206.4365,0.004058522,482.25482,205.91454,0.0151125975,454.8626,214.0783,0.03582024,481.96588,212.84076,0.2090775,430.83203,220.01868,0.18028912,479.8064,209.84772,0.37199956,409.26364,215.98691,0.15761314,495.00653,188.94179,0.41544977,411.06265,224.6472,0.17513755,508.94998,210.94742,0.3653692,430.5102,215.8682,0.47851428,461.12732,214.15839,0.5895275,446.33313,181.52881,0.6194513,480.86102,180.52324,0.7216128,472.73376,211.75885,0.7140602,499.16064,213.94969,0.7680981,1.24755457,0.6222199,-0.72956696,0.79810203
88,2933.333333333333,520.4963,209.34474,0.86282057,522.73267,209.27213,0.67250776,521.3682,207.16617,0.8002252,522.8123,211.22678,0.42173892,518.5488,205.78621,0.70540327,511.99954,213.24039,0.9769105,506.9607,204.9447,0.97977453,511.25247,219.91435,0.9071323,496.01828,205.34091,0.9158042,513.1567,217.32257,0.89034724,505.5577,203.41606,0.8893393,482.9768,207.01955,0.95965993,479.41452,203.02956,0.96005565,487.25854,196.0277,0.9217574,484.99902,193.0511,0.92174655,476.70105,213.20229,0.8890453,478.36227,211.0542,0.8879837,1.19120657,0.70844145,-0.55049143,0.78360895
89,2966.666666666667,429.75333,219.10077,0.06411454,426.71008,221.77608,0.039705656,433.23276,220.25339,0.044127434,420.52423,232.0236,0.20137212,439.88806,229.13641,0.22183995,405.09567,235.38574,0.47912058,453.82422,223.3842,0.600644,392.8913,223.05692,0.38303286,491.97458,193.94215,0.57455033,394.685,226.28326,0.38228276,512.99005,208.36342,0.5322232,421.473,218.05295,0.68039745,449.8068,216.33252,0.73081243,456.9879,189.23997,0.69645905,482.24158,187.71675,0.76491374,475.85294,209.77148,0.69989944,487.70325,212.57573,0.75206393,1.13254867,0.34979911,-0.45640923,0.97570369
90,3000.0,386.12076,216.36534,0.36731136,381.22144,215.36989,0.27311602,382.96826,220.31245,0.2698326,380.72787,220.57533,0.32122955,384.30737,232.50348,0.30443057,402.6926,223.12097,0.7062463,410.3426,231.77692,0.8207731,414.34024,213.43004,0.5395869,425.9532,217.54764,0.7375045,398.83694,222.42477,0.51451045,414.3542,219.74144,0.72370756,463.50473,211.78442,0.80513686,467.4528,217.9873,0.8680839,473.93353,182.12912,0.85749185,489.1009,187.1503,0.9075503,498.99112,211.50162,0.8634121,514.51227,213.23203,0.9012484,1.10725698,0.27217515,-0.51020558,0.94426107
91,3033.333333333333,386.08588,213.66438,0.19040494,379.69,213.09216,0.11424079,382.31274,216.64224,0.15569207,374.0092,219.53893,0.14787184,379.76828,228.89764,0.26492646,391.6607,224.91904,0.5435454,399.02145,230.09103,0.6722018,404.55945,217.09085,0.41930267,422.96802,217.11185,0.62439257,391.26273,219.73886,0.40499192,425.66678,221.70206,0.6277472,448.63568,217.08888,0.70533776,452.7162,223.09834,0.7803807,477.18234,184.00095,0.78244716,486.30576,189.04904,0.85084414,498.50024,208.74112,0.8234544,503.95923,212.20445,0.86686254,1.13854372,0.16556503,-0.6384325,0.92804847
92,3066.666666666667,392.53555,218.02591,0.06971543,387.1183,218.99478,0.03544099,392.40598,220.30159,0.0563704,378.00488,227.30563,0.11789725,393.0086,230.36464,0.24870114,382.37646,232.37543,0.44925076,420.10132,226.50839,0.5758792,400.59247,219.95245,0.40525028,481.07864,202.21898,0.6076283,400.31647,224.04897,0.4304145,510.7956,215.01381,0.61984456,429.73114,221.41205,0.6833156,450.49615,222.20865,0.74092215,461.28192,180.47604,0.7265267,484.0621,181.52519,0.7960965,487.28458,212.45822,0.7534417,498.73822,210.92348,0.7997417,1.12229541,0.18276021,-0.61558747,0.92043346
93,3100.0,418.24304,218.76804,0.14599602,414.52982,220.35158,0.06443534,419.64728,220.1827,0.11019747,405.41205,228.36743,0.1858562,421.45734,227.6271,0.39927167,400.4087,232.20338,0.70005286,440.01312,222.28502,0.7916349,405.95682,223.75482,0.61680454,489.56543,200.56189,0.7709256,402.38852,226.69229,0.59755415,512.8738,215.27422,0.7428,430.48718,221.59802,0.78331053,452.65933,220.41719,0.82134616,464.58804,181.92168,0.73547566,486.39505,180.5511,0.7947922,490.3107,210.80202,0.6952091,503.0106,208.68149,0.7411108,1.04195933,0.21051814,-0.34611442,0.95998238
94,3133.3333333333335,82.44202,122.06819,0.2729501,82.87652,120.87216,0.08259486,82.44572,121.06273,0.30990455,79.364655,117.25198,0.07804464,80.37365,117.69565,0.5615008,76.07531,114.071045,0.8375138,76.220505,115.029015,0.9536729,81.725555,115.17045,0.6498552,84.76808,115.66802,0.953218,95.37454,118.43635,0.6779217,98.2348,117.554306,0.9202709,69.74929,123.73285,0.97082704,69.29122,124.61629,0.9862206,74.62108,134.04639,0.950346,76.08707,134.56876,0.9774843,76.61609,147.26593,0.90950465,78.29224,148.3057,0.94837743,1.0688979,0.12134885,-0.40531498,0.98159918
95,3166.6666666666665,523.83813,210.9129,0.54527426,526.40393,209.961,0.25487217,523.83105,208.29126,0.5691171,520.81885,212.04129,0.16157888,517.9909,208.3837,0.61576706,509.16037,214.87076,0.83193946,509.78522,211.44844,0.9115464,514.4713,212.06818,0.5915282,511.55658,208.04395,0.8390527,526.4044,211.61523,0.6593259,524.9738,210.9846,0.8177139,488.6867,211.30034,0.879719,488.36588,209.7375,0.9173904,491.45392,193.87749,0.8886409,490.76236,192.02579,0.9225782,491.76166,209.27399,0.90849304,491.4643,208.32312,0.9278246,1.09523867,0.18570795,-0.42791436,0.9909337
96,3200.0,522.6474,212.08261,0.44937345,525.37885,210.9783,0.1875363,522.44904,209.30922,0.48864022,519.05994,212.64417,0.1169746,515.7683,208.93138,0.5528873,507.52295,214.5,0.7466941,506.5187,211.3102,0.8591705,512.42004,210.18124,0.49965996,507.64276,206.57324,0.78673613,523.86676,210.93996,0.59124506,521.4045,210.42169,0.7742508,489.59274,210.7989,0.8365239,487.8624,209.50937,0.88649935,492.39886,193.07524,0.85555744,489.5904,191.30571,0.898986,497.06052,209.34277,0.8840611,494.31042,208.38612,0.9080338,1.03178468,0.25055835,-0.39376964,0.92018782
97,3233.3333333333335,524.2167,211.67207,0.5434382,526.75006,210.79758,0.24656959,524.33875,209.05246,0.56401336,521.0991,212.68953,0.15683474,518.5217,208.8036,0.6170997,509.1322,215.06975,0.8465044,509.84784,211.26323,0.9194111,514.8031,212.10791,0.6294902,511.40405,207.49986,0.8592393,527.2167,211.60127,0.6932515,525.5176,210.40546,0.8392744,487.16214,211.90746,0.89829814,486.8707,210.11618,0.9302951,489.07108,194.21309,0.9014744,488.2701,192.1985,0.9314521,488.9301,210.12451,0.91343164,488.36386,209.07031,0.9315389,1.05090441,0.24564544,-0.43700324,0.92362685
98,3266.6666666666665,521.78894,206.48343,0.27724782,520.2936,209.96925,0.14383565,525.32764,206.378,0.17871682,513.57605,217.55878,0.22771327,525.97144,210.49757,0.36653763,486.44272,218.78429,0.7748129,510.68384,205.94077,0.81182945,465.00668,216.98872,0.6773109,511.32944,194.62091,0.7524375,451.8272,229.3678,0.6794138,517.14655,218.111,0.72778165,446.2353,221.84296,0.7848513,459.50012,216.76581,0.7888785,463.47852,180.98566,0.7118617,490.03064,175.2851,0.73954123,444.0264,220.14653,0.62124044,473.14984,217.26035,0.6496037,1.05090441,0.24564544,-0.43700324,0.92362685
99,3300.0,524.1953,213.10994,0.4611213,526.84766,212.12201,0.20624831,524.08014,210.48297,0.48227498,521.63715,214.0799,0.14244133,518.1391,210.47014,0.5424665,509.74646,216.20435,0.7888649,510.47464,212.70181,0.87688607,514.76886,212.60146,0.56844276,512.3994,208.54218,0.80642855,527.5,211.62254,0.6497991,526.6698,210.80695,0.79582345,487.8541,211.30783,0.8713909,487.57318,209.5542,0.9077975,487.89435,193.54956,0.89519066,488.17493,191.56697,0.9236702,486.13934,210.80196,0.91628027,487.15506,209.75812,0.93166417,1.07042855,0.2291872,-0.50774912,0.91404668
100,3333.3333333333335,379.51788,217.90875,0.09256362,373.8823,218.65689,0.05658422,380.20572,219.92755,0.060678616,365.34302,224.73013,0.1795057,382.166,227.91823,0.21294706,372.28094,226.64468,0.5609139,409.13586,224.95663,0.60572004,391.4392,215.61502,0.5401377,465.53934,207.97356,0.6105566,382.57245,224.93974,0.52507395,484.46545,223.60426,0.6229493,425.15207,221.36687,0.74381304,444.82178,224.0698,0.7629755,464.4736,178.30966,0.7617264,484.15768,180.82382,0.79940903,490.19397,217.37025,0.76351446,498.2052,216.4321,0.7939804,1.11945742,0.23901301,-0.58291663,0.92534637
101,3366.6666666666665,504.06665,199.05225,0.3245715,506.42215,198.59265,0.15718034,504.179,197.43831,0.2970969,504.09604,197.85149,0.10642187,500.59476,194.83115,0.3038247,497.96518,197.56392,0.62121356,491.84473,194.94926,0.637342,506.3189,201.08662,0.389301,496.34372,200.07529,0.47650152,516.69525,217.91364,0.40752393,512.80145,218.9613,0.4556424,482.22333,203.55774,0.6722613,476.46677,202.90334,0.68659335,486.02063,176.71758,0.6946524,480.91846,175.7173,0.716774,498.82104,215.43713,0.6966121,495.5584,214.51208,0.70362324,1.119739,0.2530148,-0.58954905,0.91773136
102,3400.0,499.93454,196.84164,0.37380213,502.22354,196.3321,0.18064387,499.99435,195.13773,0.34281614,500.33392,195.11577,0.11139467,496.43903,191.90378,0.3372965,494.75677,194.53282,0.6751802,488.37732,191.63538,0.6972087,504.24097,199.54134,0.4284462,494.48886,198.21576,0.53030014,515.61084,216.98364,0.43707708,511.62952,217.69804,0.49727815,481.15656,201.62863,0.7245423,475.26892,200.97621,0.7419668,487.72794,176.65369,0.74246234,481.40143,175.60468,0.76838964,503.082,215.82443,0.7419967,497.72974,214.7172,0.7528198,1.12764769,0.28765081,-0.58217969,0.92190733
103,3433.333333333333,374.9781,218.90173,0.24672446,371.09686,218.52907,0.16234605,373.42603,220.1435,0.14088814,369.02542,222.54778,0.26721388,373.4696,226.78714,0.24185617,383.5794,225.25446,0.7751884,394.9154,226.48956,0.7886253,402.33923,218.17676,0.7387577,431.16675,215.85999,0.7561918,386.3352,220.42331,0.70671076,428.34396,224.65111,0.7643504,438.06604,221.42609,0.85446715,443.09564,225.43295,0.86531,476.46136,182.03714,0.8416394,485.0525,184.78152,0.86432415,499.76428,216.0275,0.8088673,506.29614,216.56659,0.8338398,1.09621024,0.34636007,-0.54901756,0.883341
104,3466.666666666667,378.08194,219.35927,0.33265662,374.23962,218.68335,0.22676384,375.56412,220.53621,0.20209606,373.67175,222.47737,0.28259835,375.28052,227.58429,0.26549575,391.7055,225.23737,0.7968243,393.73395,228.60277,0.8275115,406.2693,218.91629,0.73066324,415.60297,220.41634,0.78131324,387.52917,218.81187,0.69530326,403.1021,223.82233,0.7867879,448.23486,221.49466,0.85673803,448.65213,226.33105,0.8797349,483.23538,183.09245,0.85623866,487.24396,186.18887,0.8873134,501.514,212.27034,0.8357115,508.017,214.89801,0.8658155,1.08683117,0.35815105,-0.53280496,0.87695422
105,3500.0,378.71243,217.2179,0.20063928,375.4183,217.93811,0.12996288,378.55902,218.83684,0.10543884,373.51013,224.14253,0.29080263,381.34863,226.49037,0.23342596,383.16815,227.33069,0.7851064,406.4141,224.38503,0.77615696,399.6468,218.35117,0.7661796,453.5625,209.76514,0.7593657,392.56412,221.37857,0.74184155,463.77203,223.61377,0.7679708,432.75912,224.1523,0.86319417,444.0925,226.16533,0.86328495,472.67065,182.15543,0.829691,486.72296,183.50189,0.845448,493.04242,217.84192,0.779097,502.46692,216.7208,0.79918146,1.07572853,0.36060751,-0.50676654,0.87769116
106,3533.333333333333,377.3401,220.4927,0.2680751,372.80023,220.15475,0.15629369,374.99023,222.2807,0.18602102,369.0618,224.05212,0.1905092,372.45233,230.01093,0.26265395,386.1894,225.10817,0.70309275,387.02988,230.75375,0.78830993,402.83563,217.81122,0.6389801,405.63712,222.64456,0.7614608,393.50034,221.1464,0.61869234,399.41873,226.52528,0.76605004,445.33682,223.78716,0.817779,445.17508,230.61688,0.85795176,483.90668,181.07219,0.8336071,487.01947,186.63382,0.877812,505.23608,212.4204,0.8292337,510.39752,216.75757,0.8651028,1.11793766,0.3822243,-0.52518995,0.90987071
107,3566.666666666667,377.29608,218.47787,0.22415437,372.79108,218.43669,0.12383215,375.58377,220.2239,0.15382585,367.96786,223.00958,0.17491716,373.1181,228.25157,0.24965334,382.7334,224.53247,0.68374175,387.10968,229.62767,0.7697075,400.25726,217.56804,0.63433343,406.78806,222.30444,0.75026584,393.62018,220.99074,0.61377454,400.4047,227.76387,0.7541191,439.75558,223.49945,0.81139773,441.63705,230.19492,0.84855133,482.45303,180.58916,0.8217288,487.18008,186.20845,0.86557394,503.94574,213.72957,0.8119276,509.18033,217.86798,0.8483431,1.11855629,0.38934802,-0.52125962,0.90987071
108,3600.0,521.75555,212.90341,0.49961907,524.6879,211.93433,0.22972353,521.9776,210.17496,0.5233285,519.879,212.57993,0.13732056,516.69794,208.54787,0.5564488,509.07367,212.9809,0.7891167,507.63638,209.19067,0.88654065,514.29474,209.4929,0.5469202,507.31177,204.82,0.81815606,524.6067,211.107,0.6225608,519.76526,209.49301,0.80031633,490.5292,209.89711,0.86923105,488.67462,208.32335,0.9106475,493.1683,191.91086,0.88363105,490.5657,189.89247,0.9196748,500.21686,210.52264,0.9001705,497.75806,209.06564,0.92115736,1.11511883,0.38811979,-0.52420737,0.90446651
109,3633.3333333333335,520.95526,212.92996,0.41383258,523.82825,211.82336,0.17941704,520.99634,210.15402,0.44261876,518.518,212.26732,0.11376605,515.1773,208.50452,0.49096677,508.1289,212.34744,0.7193586,506.20474,209.0416,0.8376521,513.08844,208.37463,0.4854359,505.9115,204.39276,0.7702641,523.1601,210.60774,0.5746777,518.3962,209.17456,0.76034844,491.3803,209.03903,0.8378238,489.11765,207.73952,0.8865135,493.9185,191.02682,0.86653733,491.08423,189.17297,0.9058914,501.99512,210.60818,0.89105564,499.36014,209.28629,0.91264594,1.12219648,0.39352399,-0.52592689,0.90987071
