frame_id,timestamp_ms,nose_x,nose_y,nose_conf,left_eye_x,left_eye_y,left_eye_conf,right_eye_x,right_eye_y,right_eye_conf,left_ear_x,left_ear_y,left_ear_conf,right_ear_x,right_ear_y,right_ear_conf,left_shoulder_x,left_shoulder_y,left_shoulder_conf,right_shoulder_x,right_shoulder_y,right_shoulder_conf,left_elbow_x,left_elbow_y,left_elbow_conf,right_elbow_x,right_elbow_y,right_elbow_conf,left_wrist_x,left_wrist_y,left_wrist_conf,right_wrist_x,right_wrist_y,right_wrist_conf,left_hip_x,left_hip_y,left_hip_conf,right_hip_x,right_hip_y,right_hip_conf,left_knee_x,left_knee_y,left_knee_conf,right_knee_x,right_knee_y,right_knee_conf,left_ankle_x,left_ankle_y,left_ankle_conf,right_ankle_x,right_ankle_y,right_ankle_conf,acc_x,acc_y,acc_z,acc_mag
0,0.0,470.0273,41.33487,0.9699513,473.0838,36.31131,0.95648426,465.73593,38.622658,0.8458557,484.0553,32.936157,0.9079453,465.6677,39.385437,0.46263894,501.02133,51.554123,0.9977793,470.18658,60.294098,0.9866877,515.19855,78.61038,0.9922517,467.57404,90.944954,0.9280616,515.2355,110.51885,0.9814259,466.4997,113.483185,0.90616024,502.00522,111.94763,0.99835616,482.4811,114.58569,0.99611616,503.9055,156.48463,0.99613345,487.0125,155.87924,0.9916299,509.7635,200.76819,0.98327994,491.54514,193.9458,0.97398394,1.14261873,-0.43749453,1.05529281,-0.02309067
1,33.333333333333336,472.19193,40.304726,0.9723432,475.40088,35.340904,0.95811564,467.50723,37.570656,0.864775,485.68927,32.83458,0.90532184,466.11108,39.043274,0.50311613,501.7225,52.459854,0.9978409,470.0157,60.665215,0.98819065,515.7634,80.02138,0.9920561,467.855,90.58025,0.93389916,515.4605,111.95442,0.9807225,467.14673,112.387665,0.91048884,502.864,112.29821,0.99853635,482.49,114.86522,0.9966773,505.2965,157.23572,0.9966719,486.31152,156.6072,0.99305505,512.4491,201.03891,0.98605436,491.54446,194.25085,0.97875494,1.04490447,-0.37239849,0.5681779,0.79392606
2,66.66666666666667,473.0553,39.70945,0.97273165,476.3989,34.93976,0.958057,468.62292,36.900314,0.8662193,486.54147,33.066017,0.90448606,467.18567,38.52645,0.5056945,502.0542,53.178802,0.9979056,470.2168,60.40249,0.9886314,516.35675,80.963036,0.9924234,467.6595,89.9168,0.93708783,516.7909,112.10118,0.9815887,468.63412,111.587364,0.91439694,503.64597,112.32007,0.99864954,482.93915,114.6778,0.99693334,506.92783,157.22443,0.9969177,486.09833,156.65112,0.99356776,515.2481,201.22299,0.9869386,491.4497,194.90585,0.9800907,1.04490447,-0.37239849,0.5681779,0.79392606
3,100.0,473.93234,39.375336,0.9736857,477.3103,34.70677,0.9589267,469.70337,36.55313,0.86792225,487.48386,33.106087,0.9065292,468.46585,38.32823,0.50650924,503.1226,53.0506,0.9980447,470.9358,60.61319,0.989493,517.7774,79.719795,0.9930536,467.6217,90.59314,0.94233966,519.665,109.48092,0.9830036,469.5537,111.28497,0.92053276,505.15768,111.95747,0.9987852,484.0676,114.422966,0.9972422,508.7511,157.83624,0.99713194,486.24393,157.07597,0.9940101,517.41034,202.17688,0.9873223,491.1037,195.42676,0.98067766,0.95900184,-0.10710141,0.86639147,0.39696303
4,133.33333333333334,476.11823,38.718323,0.9748515,479.52017,34.06682,0.9596825,471.7247,35.880302,0.8747362,489.2362,32.82374,0.9051867,469.84857,37.940125,0.52178186,504.51257,53.3693,0.9981128,471.5553,60.473206,0.990054,519.2408,80.46747,0.99329925,467.7074,90.01761,0.9450202,521.0726,109.86555,0.9835555,470.1057,110.399826,0.92369425,506.28473,112.61493,0.99884343,484.58963,114.98096,0.9973832,509.9035,158.66502,0.9972127,486.21756,157.91998,0.99417686,519.5059,203.16238,0.9874473,491.2319,196.40964,0.98082906,0.92427631,-0.07172847,0.81259511,0.43454678
5,166.66666666666666,476.92062,39.418297,0.97488993,480.4,34.70665,0.96112406,472.71265,36.428497,0.86754584,490.6435,32.864456,0.91057754,471.32516,37.793625,0.49481496,506.16724,53.235428,0.99824333,472.7535,59.65142,0.98968166,520.29205,81.24234,0.9940461,467.81174,89.303024,0.94341505,521.57776,110.20887,0.9852539,470.15204,110.23567,0.92335314,507.55313,112.88228,0.9989292,485.46725,114.93716,0.9974383,511.95056,159.15016,0.99737895,486.93475,158.08241,0.9942213,521.87585,203.9176,0.98784035,491.28516,197.03873,0.9808055,0.93360376,-0.088678,0.80694527,0.46107649
6,200.0,479.73392,38.566666,0.9762331,483.2026,33.688133,0.9611046,475.09012,35.562836,0.88068837,493.12967,31.888573,0.90445375,472.84415,37.192566,0.5280973,508.16248,52.896088,0.9981098,473.91797,59.107567,0.99056095,521.1742,81.530045,0.99341726,468.4762,88.48683,0.94837284,522.48596,111.84008,0.98409677,470.18835,110.652084,0.92811584,508.82535,113.112404,0.99885297,486.0664,115.02582,0.99745256,512.938,159.9453,0.99714655,486.89264,158.17412,0.9941128,523.8131,205.40231,0.9868268,491.4041,197.21054,0.980082,0.93863986,-0.14738726,0.80178671,0.46525246
7,233.33333333333334,480.33105,37.73256,0.97531533,484.23184,32.701782,0.9585015,476.41336,34.275055,0.8755268,494.72064,31.892776,0.8969502,475.07016,35.883896,0.5068288,509.75516,53.98242,0.99802256,475.73108,59.366226,0.988201,522.01843,82.63865,0.9930206,471.27487,90.001495,0.93944615,523.2608,113.34391,0.9815025,472.3605,112.484375,0.91428614,510.64536,113.19648,0.99848974,487.14453,114.733864,0.9965804,514.935,161.69048,0.99585223,486.41678,158.834,0.99123514,527.54926,206.72968,0.97941303,492.45078,197.72424,0.9684013,0.93408651,-0.16998664,0.79294348,0.46353294
8,266.6666666666667,481.8427,37.816193,0.9756742,485.82492,32.853607,0.96097773,478.03003,34.305466,0.86868393,496.4635,31.91018,0.906947,476.82568,35.704582,0.4837024,511.16983,53.754456,0.9983431,477.10437,59.07563,0.98821056,523.011,82.06743,0.9943469,471.68335,89.89261,0.9374307,525.3066,113.14619,0.98429954,472.45566,113.19148,0.91245735,511.40216,113.311745,0.99879754,487.92688,114.74107,0.9970053,515.7469,162.27855,0.9967213,486.98257,158.83438,0.9923718,528.6854,207.58832,0.98336846,493.0681,197.48738,0.97285074,0.93612515,-0.15156324,0.73890148,0.55442176
9,300.0,485.18073,37.713814,0.97721076,489.27222,32.734985,0.9613584,481.00116,34.085007,0.8836959,499.53882,31.763977,0.89991,478.63037,35.344727,0.51814985,513.9994,53.97474,0.9982224,478.00116,58.80165,0.9890027,526.65234,82.37015,0.9936872,472.5104,88.77535,0.94119275,528.5572,114.39963,0.98295283,471.85266,113.27677,0.9160662,512.98474,114.29635,0.99869436,488.4677,115.45579,0.9969477,517.3304,162.80606,0.9963915,487.39197,158.90224,0.99209243,529.75433,207.77383,0.98209536,493.79492,197.32632,0.9718338,0.91104257,-0.15205453,0.72784744,0.52641818
10,333.3333333333333,487.73132,37.149307,0.97694176,491.8827,32.350403,0.96041614,483.77167,33.440468,0.88309604,501.9161,31.59491,0.8985876,481.47495,34.594498,0.5218674,515.82074,53.9337,0.9982028,480.1297,58.34137,0.9892965,527.90717,82.807846,0.9936579,474.25598,89.09538,0.9429527,528.68506,114.83159,0.9828194,471.91998,114.65782,0.9171818,513.6433,114.6423,0.9987043,489.3191,115.49061,0.9970112,518.27625,163.31104,0.9963588,487.82816,159.00233,0.9921191,530.1938,208.48059,0.9818091,493.4323,197.97943,0.97159183,0.91508953,-0.17146052,0.75781618,0.48343023
11,366.66666666666663,489.93552,36.26181,0.9764904,494.06146,31.517792,0.95877606,486.13702,32.586655,0.8846212,504.27814,31.134003,0.8962075,484.4914,34.081406,0.53372496,518.2131,54.394196,0.9980665,482.8328,57.879044,0.99010885,529.52686,84.50356,0.9929376,474.939,88.748184,0.9475754,530.2154,115.932816,0.9811679,471.46857,115.01477,0.9207771,514.55505,115.10498,0.99869674,490.55664,115.41124,0.99720854,519.0464,163.36317,0.996438,488.8951,158.16116,0.9928451,530.4113,209.20537,0.98272705,493.33173,197.83746,0.974341,1.57208262,-0.04716392,1.42670871,0.65857542
12,400.0,492.71753,35.95173,0.97778773,496.6804,31.144272,0.95605594,488.64636,32.226784,0.90018666,506.33395,30.224548,0.88077956,486.28284,33.283844,0.58821505,520.163,53.25209,0.99788433,484.34158,56.90818,0.99224937,530.97,83.69791,0.9918194,476.2777,88.4124,0.96026355,532.0624,115.73386,0.9790323,471.52206,114.73717,0.9353049,516.3928,115.25198,0.9987619,492.2017,115.44783,0.9977465,520.01324,163.72353,0.9966588,489.47003,157.78891,0.9942697,529.83813,210.41078,0.9841808,492.7516,198.03833,0.97876465,1.33673888,0.1481242,1.25180916,0.44486389
13,433.33333333333337,495.27063,35.981735,0.9799239,499.34705,30.9805,0.9560208,490.78604,32.20809,0.9161802,509.2443,29.456108,0.869405,487.75586,32.91617,0.63488525,523.04114,52.36635,0.99767226,485.8847,56.504723,0.9938391,533.1538,83.78392,0.99050397,477.77957,89.11409,0.9694895,534.532,117.145584,0.9770017,471.50293,116.16253,0.94718623,518.6279,115.578,0.99872714,493.64798,115.84857,0.99802375,521.40247,163.8383,0.9964977,489.89877,157.92574,0.99485517,529.6743,210.97906,0.9835296,492.50754,198.90921,0.97996867,0.99086867,0.11054045,0.91724007,0.35815105
14,466.6666666666667,496.66394,35.2293,0.9796602,500.89832,30.377563,0.9574374,492.44852,31.39315,0.9121088,511.16693,29.099228,0.87892526,490.0231,32.088577,0.618425,525.3072,52.250458,0.99773103,487.94186,56.049454,0.9936702,535.0624,83.95555,0.99086297,479.29657,88.66164,0.9682776,535.6072,117.81465,0.9775621,472.30264,115.257,0.9451171,520.36414,116.14016,0.99871767,495.34842,116.07811,0.99795014,522.5814,164.76205,0.9963192,490.52435,158.30817,0.99443614,529.67896,211.66754,0.98222697,492.4284,199.11658,0.9780149,0.77870879,0.1724431,0.71261742,0.26234933
15,500.0,497.8474,34.36075,0.9794571,502.32297,29.71222,0.95858574,493.906,30.420311,0.9086707,512.9589,28.592339,0.8854298,491.7832,30.88321,0.60271513,527.30316,51.513596,0.9978029,489.34293,55.204826,0.99350643,537.507,83.08476,0.9912759,480.90576,88.3697,0.96716666,537.50934,117.10244,0.97838235,473.7576,115.041626,0.94350517,522.1434,115.79183,0.998765,496.8264,115.577,0.9979614,524.28265,164.47426,0.9964116,491.20288,157.99512,0.9944173,529.92615,210.92737,0.9825006,492.77563,198.87077,0.9779468,0.94382096,0.17318003,0.91969653,0.12233143
16,533.3333333333334,499.7995,33.529396,0.9798061,504.39816,28.807816,0.95836675,495.7345,29.573952,0.9134578,515.23145,27.45514,0.88269377,493.42108,29.854065,0.61938906,529.8571,50.644295,0.9976891,490.8501,54.37343,0.99396884,540.4126,83.67368,0.9904032,482.65753,88.622345,0.9691752,540.0292,119.08444,0.9766948,475.25275,116.71618,0.9454049,523.9456,115.6981,0.99876666,498.16138,115.44142,0.99808323,524.87775,164.7388,0.9965114,491.95468,158.50406,0.9948944,529.9689,210.46977,0.98351383,494.18097,199.09033,0.9800143,1.10594324,0.26234933,1.06020572,0.17391697
17,566.6666666666666,502.34695,32.310837,0.9810527,507.04456,27.63298,0.9572992,497.89627,28.346878,0.9236786,517.4283,26.711609,0.87180054,494.43466,29.048721,0.6597837,531.3638,49.879044,0.99765944,491.52966,54.33705,0.9949596,542.80865,80.92189,0.989894,483.705,89.44209,0.9743566,544.41986,112.84853,0.97629035,476.37497,117.360214,0.9530715,525.76794,114.96034,0.9988507,499.62247,115.02285,0.99836415,525.83887,164.31836,0.99684614,493.60547,158.20364,0.9957581,530.1169,210.37276,0.9852246,496.6603,199.18384,0.9830072,1.03553134,0.2178875,1.0044442,0.12626176
18,600.0,503.59998,31.38102,0.98033065,508.43588,26.858467,0.9577598,499.29474,27.2724,0.91639704,518.76544,25.873474,0.8767377,495.7156,27.511917,0.63265514,532.304,48.811256,0.9978319,492.42285,52.82373,0.9943719,544.35834,79.98877,0.9911152,485.16766,88.36992,0.9710589,546.3035,111.76887,0.97881603,479.21838,116.92273,0.949529,526.8292,114.64616,0.99893636,500.77155,114.65941,0.998329,526.7464,164.33707,0.99711823,495.10028,158.77403,0.99573874,530.06433,210.70728,0.9862113,498.03812,200.63992,0.9831035,1.03553134,0.2178875,1.0044442,0.12626176
19,633.3333333333333,503.72003,30.885185,0.97823846,508.29745,25.88448,0.9600506,499.61798,26.852959,0.9073103,519.496,25.008202,0.887784,497.41812,27.616539,0.61901313,534.00183,48.30908,0.99737334,494.4132,51.545967,0.99286747,547.1606,80.99332,0.9879871,486.4243,85.68289,0.9567954,547.9058,112.01621,0.9697722,482.65787,115.811035,0.9230823,527.7701,114.20386,0.9982096,501.97443,114.30809,0.99700564,527.6766,162.42677,0.99329776,497.34207,159.50931,0.9899532,529.6362,208.7334,0.9670304,499.1498,202.52106,0.95974445,0.97124308,0.08450203,0.96415835,0.081063
20,666.6666666666666,504.30988,30.337566,0.9768521,508.93204,25.54332,0.9583352,500.37042,26.309021,0.8902613,520.0794,24.760788,0.89262074,498.20212,27.162716,0.5737719,534.38495,48.43557,0.99766856,495.23206,51.71833,0.99261683,547.87396,81.50665,0.9903861,486.57736,86.724815,0.9560458,547.6697,112.455536,0.9771047,483.87723,117.01372,0.928726,527.9484,114.78254,0.9986589,502.46304,114.78593,0.9975434,526.85236,163.92775,0.99608374,498.51956,161.83333,0.9935033,528.0589,208.68178,0.9807463,499.98816,204.39868,0.97474897,1.0413476,0.04298795,1.0395715,0.04298795
21,700.0,504.53638,29.258667,0.97546107,509.18762,24.794205,0.95435363,500.82593,25.310204,0.89254785,519.9998,24.621445,0.8662727,498.70175,26.42411,0.55873036,533.9523,48.56711,0.99575657,495.56424,51.47545,0.9907109,549.5534,79.61893,0.98512286,486.97168,85.82699,0.95509166,551.4824,111.73389,0.97353065,484.73267,117.95192,0.9390284,527.99945,114.12161,0.9973455,503.23285,114.05841,0.99598724,527.1547,164.18335,0.9942062,501.12973,162.68819,0.99196225,527.56525,208.89781,0.97605395,500.91602,206.33101,0.97186106,1.01404642,0.03193391,1.00616372,0.12208578
22,733.3333333333333,505.35843,28.277939,0.9744231,510.19843,23.876282,0.9622936,501.39972,24.353264,0.8744125,521.29126,23.19265,0.90556705,499.15494,25.034477,0.4806259,535.5031,46.86116,0.99776053,497.25348,50.58864,0.98614514,551.0277,78.032166,0.9915986,489.96243,84.90933,0.91967946,552.26434,109.89299,0.9786646,489.99182,117.75744,0.8886731,529.47577,114.77559,0.99869186,505.08325,115.266075,0.9968214,529.3782,165.34863,0.9970546,503.44962,164.43929,0.9934662,529.4104,212.2914,0.98680854,502.86902,209.3134,0.9787619,0.99471351,0.06411346,0.9752124,0.18521666
23,766.6666666666667,505.37262,28.211136,0.97230333,510.26398,23.667763,0.9635163,501.40665,24.292648,0.8664183,521.77515,22.586838,0.9088043,499.4766,24.805023,0.44768715,536.10596,46.273155,0.99738365,497.9649,50.28849,0.98100775,551.94507,77.995964,0.9898287,490.29092,84.77661,0.88505566,552.6855,109.40987,0.9741009,491.2872,116.85436,0.84974587,529.59735,114.746994,0.9983889,505.5061,115.5501,0.9957632,530.2259,165.76291,0.99684525,506.16153,166.22197,0.99249613,529.71826,212.8389,0.98719203,505.50778,211.89873,0.97837275,1.03952974,0.09211704,1.01304179,0.21420282
24,800.0,505.1434,27.682976,0.9687572,510.09732,23.024475,0.96434724,501.21945,23.822433,0.8516497,522.10406,21.942825,0.91218734,499.63266,24.580048,0.39895946,536.5869,45.61641,0.9968015,498.6699,50.04094,0.97133934,552.766,77.3548,0.98738885,491.0926,83.80125,0.82475656,552.9406,109.02435,0.9679052,494.2534,113.09981,0.78778386,529.64124,113.82736,0.99790835,505.74185,114.920044,0.9938803,530.7283,164.93352,0.99652845,507.6366,166.56006,0.9908812,529.973,213.55136,0.98738164,506.87488,213.944,0.977225,1.03952974,0.09211704,1.01304179,0.21420282
25,833.3333333333334,504.4772,26.402039,0.9678717,509.72943,21.701508,0.96474195,500.74792,22.521866,0.84743184,522.5805,21.068184,0.91337025,499.58655,23.62455,0.3821312,536.89703,45.56459,0.99641955,498.87036,49.881996,0.96716475,553.45953,77.81912,0.9857099,491.35126,83.48676,0.8004366,552.9624,109.47553,0.9648497,494.29547,112.58055,0.7667962,529.6535,114.39615,0.99740857,505.86673,115.62645,0.99234724,530.7923,165.86148,0.99579793,509.45016,168.54373,0.98890287,530.5053,215.0082,0.98482436,510.56912,217.35104,0.97254294,1.01920164,0.05920055,0.99339016,0.22009831
26,866.6666666666667,504.6518,25.369797,0.96793324,509.87875,20.721062,0.9640696,500.84485,21.51361,0.8465967,522.64154,20.397285,0.9129787,499.5732,22.922798,0.38803732,536.9457,45.2266,0.99651575,498.91324,49.508087,0.9687122,553.5009,77.425156,0.98615825,491.59174,83.1565,0.80937266,553.09686,110.05841,0.9662534,494.33878,112.85632,0.77760595,529.6255,114.453125,0.99736184,506.0551,115.60933,0.99228776,530.2946,167.11157,0.99551374,510.97388,169.21364,0.98826164,529.21924,216.99037,0.98300856,512.69366,218.24075,0.9695351,0.9477186,0.04618134,0.92853976,0.18398843
27,900.0,504.38666,24.491982,0.9664161,509.4969,19.755112,0.959547,500.5764,20.720963,0.8430606,522.33453,19.277092,0.90498334,499.52466,22.204361,0.4032278,536.99365,44.372314,0.996354,498.7945,49.256096,0.97253245,553.1312,77.07509,0.9853258,491.15866,84.24819,0.8337254,552.44403,111.020996,0.9655762,492.71832,115.921814,0.8019421,529.7793,114.91717,0.9972275,506.6719,116.31634,0.9925881,529.39465,167.65002,0.99520373,514.4871,169.32715,0.988489,528.2666,218.45085,0.9814886,519.3147,218.7453,0.9687676,0.98143666,-0.02456454,0.9698082,0.14861549
28,933.3333333333334,503.69696,23.757172,0.96325773,508.80972,19.267334,0.94748545,500.38843,19.969757,0.83091444,521.5122,19.118347,0.8779566,499.57217,21.202087,0.40476644,536.383,44.501,0.9955894,497.3659,48.968727,0.97825134,552.4288,78.44728,0.98562676,489.7351,86.1712,0.8958508,552.34875,115.37108,0.9720383,490.36722,120.912186,0.8819983,530.6788,115.39703,0.9967347,507.16647,116.7923,0.9930293,530.7254,168.32263,0.99346817,515.538,169.74025,0.98736143,530.36444,216.52887,0.9727768,521.8328,217.05345,0.9602594,1.0021634,-0.07639573,0.98921419,0.14124613
29,966.6666666666666,503.1132,23.416077,0.96776575,508.21387,18.871552,0.94657296,499.7324,19.690796,0.8529473,521.002,18.721481,0.8696771,498.8289,21.02916,0.45684978,536.04395,44.165558,0.99584466,496.75894,49.08313,0.9849257,552.239,78.17253,0.9863262,489.3852,86.64573,0.9316192,552.06934,115.688385,0.9749181,489.32184,121.32158,0.9188322,531.2969,115.388695,0.9969121,507.64447,117.0396,0.9943668,531.4292,168.83128,0.9929456,516.9611,170.4137,0.988294,531.2534,218.00916,0.967195,524.3605,218.78363,0.9567461,1.04476263,-0.13068337,1.01991987,0.18497102
30,1000.0,502.53436,23.618652,0.9683575,507.49686,18.893738,0.94431704,498.87955,19.993576,0.861613,520.3069,18.34578,0.8606283,497.84976,21.343796,0.48151094,535.9782,43.663353,0.9955492,496.20615,49.098488,0.98660177,551.89087,77.64151,0.984939,488.56305,86.20934,0.94108504,551.3806,115.3353,0.9732327,488.37015,120.07181,0.9278563,531.7185,115.47869,0.996858,507.8142,117.33869,0.9948021,531.4456,169.49211,0.9927598,517.48676,171.22995,0.9890956,530.69165,218.87445,0.9662222,524.62164,219.64258,0.9581727,1.04476263,-0.13068337,1.01991987,0.18497102
31,1033.3333333333335,501.16315,23.715973,0.97053796,506.19894,18.884125,0.9485053,497.4495,20.043411,0.8701425,519.4015,18.02951,0.8660205,496.54056,21.23227,0.4865042,535.7463,43.095993,0.9955914,495.28625,49.251663,0.9867726,551.66425,76.828636,0.9847209,487.6922,86.55935,0.9412995,550.4988,113.79109,0.9727907,487.4115,118.39053,0.92799664,532.47504,115.87897,0.9967638,507.99387,118.078064,0.994686,533.30634,170.61264,0.99238175,517.8033,172.98932,0.9886545,531.8369,219.63667,0.9638905,523.9997,221.32393,0.95563,1.01621977,0.03561859,1.01083098,0.09825818
32,1066.6666666666667,499.63672,23.621338,0.9692851,504.68768,18.668655,0.94825864,496.04053,19.93991,0.86079216,518.52527,17.427414,0.86914206,495.66833,20.89621,0.45988402,535.6245,42.39621,0.99557084,494.81714,48.96505,0.9856904,551.3342,76.55602,0.9848877,486.95276,87.123764,0.9367624,549.7398,113.153946,0.9729254,486.84714,119.35887,0.92376477,532.91614,116.0474,0.9967694,508.2407,118.41882,0.9945267,533.5266,170.68707,0.99248624,517.88257,173.56558,0.98848677,531.8372,219.0894,0.9645462,523.91565,221.55188,0.95566547,1.22196301,0.18226892,1.19113474,0.20290313
33,1100.0,498.43222,23.225082,0.9691547,503.33545,17.939941,0.9450149,494.4357,19.704727,0.86828345,517.48047,16.471283,0.8570738,493.99393,21.114105,0.48172903,535.4196,41.750755,0.9949805,493.92035,49.195663,0.9868695,550.5926,76.25206,0.98234886,485.69266,87.58818,0.9444736,548.88916,112.35568,0.9695836,485.95215,119.86243,0.9307986,533.38196,115.887665,0.9966202,508.10287,118.68619,0.9948879,534.2093,170.79036,0.9921773,517.7212,174.39848,0.9893036,532.59534,218.70175,0.9638098,522.775,221.96524,0.9578883,1.22884219,0.06804379,1.22036654,0.12699869
34,1133.3333333333333,496.81143,22.895325,0.96855986,501.66837,17.571686,0.9448113,492.94162,19.36763,0.8610865,516.12933,16.003204,0.86041826,492.92868,20.741608,0.46363452,534.93585,41.291176,0.99513334,493.14578,49.022087,0.9863935,550.5283,75.8828,0.98338723,485.30435,87.57164,0.9435759,548.17285,112.81114,0.9713298,485.73276,120.1891,0.93098557,533.56323,116.356735,0.99657947,508.05396,119.24285,0.9946786,535.07544,171.27783,0.9916823,518.00244,174.92044,0.98833734,533.2951,219.20102,0.9600811,522.7699,222.4007,0.952897,1.25751244,0.10464496,1.25180916,0.05797232
35,1166.6666666666667,495.62976,22.754547,0.96874,500.27133,17.208344,0.94475967,491.55298,19.371094,0.85882115,514.66614,15.255157,0.8616058,491.58502,20.92871,0.45750573,534.2528,40.264313,0.99542576,492.45526,49.150734,0.98664176,550.71985,74.33361,0.984835,484.90442,87.68345,0.9459787,548.05164,111.53276,0.97384226,485.35135,120.327545,0.93479604,533.2334,115.9759,0.99686474,507.60565,119.37979,0.9950376,535.4666,170.14671,0.99226695,517.8369,174.75629,0.98899734,534.32904,218.53757,0.9620301,521.895,222.63663,0.95470846,0.99847369,-0.00073694,0.85533742,0.51511849
36,1200.0,495.6073,23.055954,0.97428215,499.90567,16.801132,0.9499692,490.79178,19.936562,0.88878757,514.50726,13.409546,0.8687427,490.53482,21.580658,0.5345409,535.7945,37.72706,0.996548,492.53394,49.126274,0.991376,552.6775,72.029434,0.9859489,484.96674,87.40431,0.9609294,547.84,109.72144,0.9733331,485.38068,119.93355,0.9436465,534.45,115.05548,0.9982857,507.35834,119.48728,0.9974807,538.8145,168.75381,0.99582016,517.17786,174.90283,0.99453235,539.78644,218.8139,0.97921824,520.86707,224.4093,0.9764435,0.99847369,-0.00073694,0.85533742,0.51511849
37,1233.3333333333335,494.84375,23.034027,0.9754554,499.20056,16.531609,0.9547605,490.0176,19.894196,0.88242644,514.4233,12.54174,0.8839002,490.02557,21.264694,0.49909103,536.22577,36.70189,0.9972308,492.42334,48.50933,0.9911488,553.31116,71.43692,0.9893764,485.17728,86.655556,0.95933056,548.31146,109.47854,0.97899914,485.8413,118.93645,0.9434629,535.033,114.94655,0.99868494,507.22638,119.57797,0.9978154,540.65424,168.56284,0.99679416,516.2342,175.00847,0.9952691,544.77155,219.3212,0.9834125,520.75867,224.92392,0.9797085,0.97584502,-0.25915594,0.91159023,0.23262623
38,1266.6666666666665,493.3824,21.569489,0.9731598,497.9778,15.3675995,0.95142764,489.19934,18.074799,0.87560797,513.29553,13.140411,0.8619284,489.54425,20.265472,0.47540691,534.93756,38.674835,0.9939666,490.88104,48.537155,0.9875159,553.9122,74.30466,0.9785735,484.82074,87.80406,0.94559675,550.0628,110.0172,0.96626073,485.8741,118.35393,0.9315725,535.6961,116.24535,0.99557495,507.38748,119.86764,0.99380517,541.2295,170.41446,0.99020654,515.9348,176.14822,0.98780614,544.71277,219.71811,0.95536226,520.16425,225.87744,0.95147693,1.10932898,-0.1859536,1.08648978,0.12478788
39,1300.0,492.0929,21.503265,0.97225237,496.55182,15.152954,0.9549327,487.9213,17.902374,0.85923874,512.11426,12.69191,0.87809044,488.7757,19.9776,0.4278313,534.3192,38.309547,0.99448085,490.42505,47.816635,0.98401606,553.3496,73.93474,0.9817711,484.95667,86.81659,0.9283302,550.5391,110.283905,0.9694187,486.4486,116.942535,0.9143695,535.1295,116.919876,0.9949503,506.6905,120.12741,0.9915878,541.9667,174.2377,0.98769265,515.3364,177.14125,0.9816667,549.3867,227.16316,0.93891865,521.27936,227.64319,0.9263764,0.9628432,0.01940599,0.93148751,0.24294334
40,1333.3333333333333,490.6767,21.38768,0.9704555,494.77304,14.413864,0.9576859,486.3394,18.217896,0.81736994,511.54953,10.3826065,0.9105427,488.23062,20.223969,0.34094083,535.9004,34.933273,0.99772435,491.50665,47.598656,0.98361325,553.5521,69.41072,0.9933037,485.34534,85.53193,0.9261092,549.8989,109.78059,0.9855929,487.83923,115.30535,0.91417444,534.95013,115.18585,0.9983595,506.05353,119.54308,0.99589217,541.9961,173.61017,0.9949484,513.3775,176.0047,0.9886147,554.7166,230.28816,0.9672418,521.44055,226.57187,0.9484252,0.84156783,-0.04962038,0.78139814,0.30853067
41,1366.6666666666667,489.9115,20.82389,0.9711052,494.13925,13.827789,0.96171695,485.65274,17.581055,0.8121551,511.12158,9.847061,0.91902435,487.5705,19.593597,0.31665868,535.44244,34.13244,0.99776614,491.1568,47.536644,0.9802537,553.53284,67.95545,0.99364895,486.0972,85.96652,0.908612,549.8129,109.64675,0.9861193,488.17865,116.05972,0.8990641,535.0182,114.396805,0.9979893,506.1193,119.01843,0.9944089,542.1664,173.32007,0.9934214,512.9952,175.77412,0.98347485,556.27466,230.60309,0.9558724,522.2191,226.43973,0.9260745,0.83139108,-0.06042878,0.76665942,0.31590004
42,1400.0,489.20642,20.423355,0.9724524,493.4184,13.272034,0.9649711,484.7003,17.19506,0.8157628,510.23544,9.076469,0.9255768,486.35028,19.239052,0.3128581,534.85016,33.41279,0.9979498,490.57782,47.300804,0.9795234,553.4745,67.19854,0.9941338,486.2547,85.61517,0.90167594,549.0859,108.9257,0.9868673,488.60706,115.52982,0.89318466,535.2964,113.87757,0.9980932,506.3339,118.72637,0.9943727,541.9711,172.46774,0.9939268,512.47186,175.2302,0.983779,557.61383,230.13521,0.95955783,522.5908,225.97609,0.9295006,0.81835251,-0.12159449,0.74995553,0.30410905
43,1433.3333333333333,487.83505,20.705315,0.97072136,491.7126,13.308678,0.96349883,483.26395,17.688492,0.8005003,508.73102,8.344101,0.924827,485.41718,19.690346,0.29084325,534.49524,31.636093,0.99785775,490.84644,47.268883,0.9774849,553.5491,64.648575,0.99419457,487.21198,85.662254,0.8969814,548.6105,108.61023,0.98724467,489.21976,115.94406,0.8913417,535.5751,112.91818,0.997924,506.94983,118.41358,0.9937429,542.33563,171.6073,0.99317306,513.2604,175.28827,0.9813964,558.13885,230.43602,0.95327973,522.46344,226.7378,0.9178347,0.90607365,-0.18497102,0.829299,0.31467181
44,1466.6666666666665,485.93698,21.265915,0.9646073,489.69885,13.891121,0.9593346,482.11514,18.109497,0.7462227,507.67532,7.9531326,0.9249111,485.83105,18.951126,0.23025495,534.4859,30.359146,0.99772936,491.2836,46.08896,0.970193,553.341,64.22039,0.99446565,488.1306,86.56685,0.8714766,547.30316,108.18712,0.98787993,490.41434,117.60029,0.8731877,535.21356,112.98532,0.99757344,507.06342,118.33133,0.9918487,541.9986,172.41733,0.9917312,514.1692,175.82767,0.97507834,556.568,231.44133,0.94139814,523.10724,227.54114,0.8915435,1.03744076,-0.17416262,0.97668627,0.30337212
45,1500.0,484.35858,21.509987,0.9574564,488.0695,14.355217,0.95873433,481.27847,18.251144,0.6785069,506.39453,8.207581,0.9332966,486.25455,18.507431,0.17152932,533.767,29.495407,0.9977099,492.20435,45.8442,0.9544013,552.97156,62.094246,0.9949714,490.33722,87.022095,0.8076902,543.6085,107.064606,0.9885005,491.62988,119.39177,0.8252253,535.09686,112.88011,0.99709296,508.04422,118.30011,0.9879601,541.86896,172.74495,0.99001265,514.8323,176.6475,0.96321005,555.5149,232.1236,0.92830586,523.23596,229.01256,0.8521853,1.07047336,-0.20781604,1.00665501,0.2989505
46,1533.3333333333335,483.04724,20.959953,0.9506921,486.86227,13.950897,0.9522142,480.6726,17.473793,0.6462922,505.7506,8.770874,0.92548335,486.4974,18.251099,0.16774032,533.54315,30.811882,0.99619836,491.8271,47.04093,0.9497666,551.8312,64.26582,0.9911913,492.16162,90.64848,0.7812265,538.6388,106.94577,0.9821394,495.5865,123.388885,0.79718494,537.3808,115.21581,0.99507105,509.74933,120.37053,0.9825943,542.89,175.29564,0.9852233,513.9067,180.28403,0.9538317,555.24554,232.10612,0.9086546,522.13324,232.15062,0.83214194,1.07047336,-0.20781604,1.00665501,0.2989505
47,1566.6666666666667,482.77667,23.776276,0.9421015,485.9178,16.677216,0.9516663,480.3437,20.30185,0.5678413,504.17007,9.446243,0.9356446,487.4238,19.153992,0.13608459,531.43427,29.062805,0.99656075,496.0534,44.80768,0.9335662,549.4422,64.38571,0.9930479,499.63348,89.41759,0.72376907,535.66534,109.99466,0.98508865,500.199,124.38754,0.76075363,537.1752,112.13822,0.99498606,513.39404,117.12557,0.97849566,541.7571,173.37128,0.9850985,515.29645,178.49757,0.94359004,556.025,232.54788,0.9042356,521.6439,232.03201,0.80522346,0.92396766,-0.16384551,0.86344372,0.28519436
48,1600.0,482.67975,27.210915,0.92150575,485.21292,20.427757,0.94424784,480.756,23.80185,0.4697454,502.39294,11.980896,0.938434,489.47,21.002045,0.10883618,529.6239,29.514397,0.9961934,498.69473,44.38997,0.90120274,547.1723,65.873924,0.99277073,503.16742,90.66322,0.61403865,532.86475,112.01569,0.9828788,501.35217,128.35254,0.6664706,536.1315,114.19514,0.9942743,515.319,118.80786,0.9711581,540.09235,175.62952,0.98412955,515.43567,180.07565,0.9299084,555.7125,233.75516,0.90597725,521.36365,232.09189,0.79099244,0.94658972,0.25719078,0.89881666,-0.14836985
49,1633.3333333333333,482.22665,29.116074,0.93051434,484.3865,22.204453,0.9464737,480.1497,25.874939,0.4878416,501.15704,13.6274185,0.9406921,489.27228,23.259605,0.11933243,528.4896,31.41407,0.996798,499.43762,45.911835,0.9249983,542.48694,68.25751,0.9943007,501.93835,91.09575,0.69753474,527.5061,111.70007,0.9866219,499.8742,126.70027,0.7401243,538.4338,116.20679,0.99473345,518.6205,120.79526,0.97505707,539.18146,179.77527,0.9813634,515.9887,183.90495,0.9215517,556.9116,236.5122,0.87122065,521.34064,233.59303,0.7324461,0.79530055,0.37534623,0.69910692,0.05355071
50,1666.6666666666667,481.82462,31.736755,0.89860636,483.5557,25.20337,0.9281948,480.25656,28.382523,0.35857317,498.9524,15.98732,0.9407469,490.82047,24.191818,0.09355757,526.4574,32.23993,0.9967031,501.8768,44.897713,0.90528363,539.3856,70.06579,0.9950871,507.7926,88.95759,0.65569514,518.6884,113.347,0.98766905,502.7766,123.51903,0.70915407,539.40686,119.69647,0.9945098,522.3463,123.49802,0.9710173,537.8023,182.19218,0.97830236,515.53265,185.26071,0.8988332,557.49615,236.73682,0.84616005,522.8359,232.68213,0.6731411,1.36717974,0.66029494,1.07961171,0.5173293
51,1700.0,481.07422,34.96776,0.9164969,482.5221,27.811996,0.9343276,479.70007,31.846855,0.4563978,496.16943,17.516174,0.93175274,489.82565,26.310013,0.117365226,522.84265,32.565536,0.9969797,504.80566,45.193512,0.9050597,535.12585,72.62158,0.99531144,511.4643,89.84364,0.69003665,516.6031,120.93164,0.98628056,505.7034,126.159744,0.722537,543.3836,114.16033,0.9931671,528.9427,118.77645,0.96666837,534.0797,181.756,0.965565,516.8778,186.72798,0.8539239,564.2018,239.94205,0.7355493,529.17365,237.70483,0.51456016,1.73761564,0.38394382,1.6536851,0.37043332
52,1733.3333333333335,479.88257,39.175842,0.8887392,480.90582,32.32077,0.91132957,479.5249,36.14778,0.37733126,493.6204,20.793762,0.9230216,491.21054,28.73565,0.10634864,520.4211,33.679543,0.9964797,505.42142,44.9693,0.89856696,531.70483,74.48825,0.99491394,511.14807,90.09867,0.6861973,512.9428,122.213135,0.9850058,505.5352,129.35297,0.71258837,543.61194,114.45674,0.9926483,531.4243,118.63682,0.9654485,529.88855,183.49272,0.9634371,516.1221,187.49432,0.84850806,565.1413,240.0,0.72583836,534.0395,237.52643,0.50663006,1.43496104,0.18890134,1.41663725,0.12871821
53,1766.6666666666665,478.30533,41.80921,0.87899536,479.81226,34.968758,0.9133772,477.0895,38.158955,0.36694315,493.0716,24.850605,0.9307179,486.97208,31.280685,0.10859449,517.2997,40.93265,0.9967907,502.7891,46.500885,0.89743924,521.1979,86.434944,0.9947373,509.6081,90.79054,0.64551497,505.4882,130.04599,0.98041373,505.505,129.37042,0.63920677,546.186,118.050026,0.99436074,533.43616,120.12822,0.9720783,531.6424,187.67557,0.9699677,515.8265,187.846,0.86657184,565.529,239.57724,0.7845445,534.60046,232.5269,0.57506543,0.37553942,-0.0162126,0.26627966,0.26431449
54,1800.0,475.87933,46.659336,0.83866614,477.02686,40.089653,0.8857128,475.41794,43.061,0.28273273,489.95956,29.720627,0.9245143,486.51828,35.49955,0.090077356,515.5725,44.58071,0.99661154,501.17245,49.167557,0.8883653,517.68506,89.94098,0.99500906,507.47028,93.40009,0.6401342,499.5561,133.02914,0.9803893,503.00073,133.06226,0.6269231,546.1949,120.766174,0.9946905,533.2966,122.20616,0.9732314,531.02563,189.3159,0.97133285,513.7578,186.98732,0.86926824,568.36865,238.8878,0.7957293,536.01416,228.20969,0.5893897,0.69061331,0.05895491,0.64506492,0.2395043
55,1833.3333333333333,150.85857,39.559566,0.78835183,150.9037,33.11353,0.8422952,150.9176,35.776604,0.17414403,165.09271,23.319305,0.9324527,168.14734,28.618748,0.09272626,192.30594,41.395287,0.9960069,186.12961,45.86508,0.93449914,193.63063,97.799736,0.99324423,186.96542,101.10707,0.71391344,168.17216,146.97011,0.97304183,165.2122,148.44379,0.6571485,231.85347,117.95932,0.9926035,228.35721,119.67642,0.9716608,212.62363,188.42401,0.9560558,209.43997,186.80795,0.84573025,245.6401,234.31601,0.70600945,234.43295,223.4939,0.5234431,0.79650154,-0.0648504,0.79122396,0.06460475
56,1866.6666666666667,148.59497,42.888935,0.8202904,148.68524,36.357147,0.8682194,148.83893,39.137783,0.19686896,163.40169,27.746525,0.9455869,166.90778,33.08881,0.10710293,190.065,45.97357,0.99705005,187.56412,51.35,0.95168203,191.07402,100.5264,0.99458694,190.72133,106.14431,0.76132697,162.54073,152.65994,0.9769131,168.86243,155.1529,0.696396,231.64856,120.72008,0.99492115,229.52966,122.63858,0.980738,211.2839,189.36665,0.97011316,205.56546,188.50356,0.89283234,244.70996,236.70917,0.783,228.92792,226.48718,0.62635356,0.62150107,-0.08155429,0.48343023,0.38197866
57,1900.0,470.2624,63.6911,0.8759198,472.1305,57.878258,0.9071389,468.86957,60.245216,0.32281792,485.01315,49.261017,0.9288189,478.27362,53.78263,0.10265733,506.2959,65.389244,0.9956364,493.03842,69.70263,0.91257286,505.43402,109.92262,0.99420506,497.61572,111.11118,0.68231773,482.03705,144.5922,0.98401606,486.55573,147.96384,0.7095714,544.50146,134.24893,0.9906543,534.46735,136.55405,0.95941824,525.4508,195.1152,0.96217674,511.71606,195.20644,0.8431406,570.04956,240.0,0.76427436,542.6853,234.83694,0.5650567,0.72015426,-0.09088881,0.47090231,0.53722658
58,1933.3333333333333,470.06494,71.11746,0.87967616,471.9903,65.7681,0.90929854,468.99445,67.362144,0.33891428,483.9072,57.61435,0.93158704,478.6489,59.983826,0.12042533,503.20935,73.92761,0.9956448,494.61002,74.907745,0.92240274,500.7137,120.54709,0.99368495,499.78198,116.50201,0.69674057,478.6581,150.55145,0.98197204,487.23035,152.03334,0.711878,546.1748,138.77745,0.9904426,538.7908,139.99864,0.96117425,524.4013,197.76807,0.9631824,510.73712,197.11356,0.85453486,569.77856,240.0,0.7808485,541.4855,235.67656,0.5987101,1.07676268,0.12970079,0.84059869,0.66029494
59,1966.6666666666665,467.09637,80.03459,0.8486227,468.4763,74.87717,0.8968029,466.78192,76.349335,0.2593715,479.01947,66.86398,0.9410003,478.2845,68.77343,0.10338638,498.05243,82.657394,0.99610776,495.4426,83.77948,0.9107599,493.70654,130.32626,0.99453944,498.04404,125.48453,0.6439876,473.20145,162.97603,0.9818215,479.9499,158.4122,0.65506333,546.5944,145.53807,0.99005145,543.3617,147.23381,0.95443356,522.9276,202.19034,0.95771843,512.0507,202.82837,0.81605303,570.199,240.0,0.75218374,543.31573,234.95432,0.53771687,1.07676268,0.12970079,0.84059869,0.66029494
60,2000.0,466.89185,88.48592,0.8498251,468.32166,83.4,0.902868,466.2909,84.775696,0.25593123,478.89584,75.54559,0.9482984,477.74753,77.129776,0.10944645,496.65338,90.16776,0.9964714,497.12027,91.17755,0.9140547,492.17346,135.28018,0.9948401,501.40073,131.51543,0.6334842,472.51132,167.51538,0.98170257,479.1409,164.99777,0.6383422,546.9982,149.51428,0.9898415,545.7457,151.07404,0.95214254,521.60425,204.48428,0.9553285,511.99384,204.603,0.80150235,568.63934,240.0,0.74318165,544.5116,233.89407,0.5203956,1.17771508,-0.39057625,1.02950004,0.41784289
61,2033.3333333333333,464.42236,97.602325,0.8034875,465.46704,92.55479,0.870417,464.0543,93.734436,0.20843309,475.04758,85.02148,0.9428963,476.34995,85.96515,0.112911925,491.80057,98.91321,0.9955278,498.47363,99.2919,0.9099733,488.30573,143.37172,0.99322826,503.15823,139.88457,0.6242901,472.31305,172.76273,0.97566366,475.92273,172.90752,0.6143096,547.6204,151.46135,0.9868173,550.52625,152.92906,0.9442621,520.08234,204.96814,0.9448944,512.9209,205.11618,0.78027683,567.36536,237.73547,0.71329594,545.77655,231.4595,0.49854535,1.39788743,-0.70426548,1.19113474,0.19823587
62,2066.666666666667,463.4377,107.0557,0.7147936,463.72058,102.44858,0.82575047,464.25052,103.15126,0.13330169,471.51746,94.70636,0.9422477,478.7655,94.456375,0.08684605,488.14017,107.15034,0.9948796,501.1499,105.046814,0.87170255,484.7543,152.01334,0.9929241,503.3558,144.17189,0.5333897,470.26257,178.6572,0.9728968,475.64178,176.75105,0.5314393,546.0405,155.30789,0.98683083,552.6742,155.80731,0.93776166,518.9204,206.01256,0.9524736,510.08768,206.04062,0.7871467,567.4756,236.55562,0.7673574,538.49695,231.12332,0.54953575,1.30998042,-0.64334541,1.08182252,0.36306396
63,2100.0,461.91516,117.487946,0.7405309,462.47437,113.11897,0.84849805,461.78287,113.38985,0.1594228,470.41803,105.05401,0.94295776,473.83096,103.8645,0.096025676,485.3927,117.06842,0.9947524,497.56006,111.13598,0.86910516,479.01898,164.7493,0.99224055,500.9557,149.23227,0.51680356,463.82373,193.96254,0.96929693,474.161,187.65952,0.51189125,545.2997,157.37914,0.9862899,550.6855,156.34048,0.93619,517.80695,208.11073,0.9565987,506.8478,206.11488,0.80432284,565.7456,237.71887,0.8040533,534.64734,230.67377,0.60430783,1.0228372,-0.29845921,0.91232716,0.35323814
64,2133.3333333333335,458.84424,124.209274,0.76082504,459.70633,119.98453,0.85895747,459.19446,120.215195,0.18890862,467.59805,113.45023,0.94025266,471.20645,111.95567,0.1023281,482.53296,126.024124,0.9934162,495.4987,120.8996,0.8622759,475.0403,172.75539,0.98971283,499.7175,157.40067,0.50858015,459.834,201.66965,0.9650097,476.76288,191.83322,0.52253306,544.9271,162.69609,0.98220634,550.46075,162.0452,0.92556465,516.5173,210.50784,0.95060307,504.82928,209.153,0.798549,563.8271,237.86,0.80968475,530.8303,231.70703,0.62950826,0.78644411,-0.43135339,0.54582417,0.36674864
65,2166.6666666666665,454.99036,130.0177,0.85920507,457.39905,125.73897,0.92479974,454.71393,126.02937,0.3170166,467.78525,121.33417,0.95722294,464.4689,119.99469,0.125048,480.94836,135.08763,0.9951131,488.7582,131.619,0.8888358,471.628,179.8589,0.9904901,491.42813,167.5769,0.51443577,456.61603,208.53474,0.9660863,468.65485,200.17992,0.5173603,542.5529,167.10587,0.9821362,544.6522,167.34067,0.92358166,513.3217,210.7985,0.95027685,501.38495,211.40652,0.792708,560.0193,234.9633,0.81612,531.6262,231.89159,0.633317,1.26240423,-0.543859,1.06757508,0.39769997
66,2200.0,451.0832,139.14508,0.71010745,452.7052,135.29086,0.8225219,452.1672,135.28656,0.16294794,462.07248,130.27463,0.9291206,463.9947,128.09958,0.087213956,476.25632,142.20776,0.9919201,487.23206,136.3449,0.85584974,466.98553,187.95352,0.9875717,488.9649,172.2054,0.52342916,453.77426,210.9069,0.9593243,467.12567,203.06908,0.5254709,538.3287,170.53098,0.982714,542.1258,169.57498,0.9337301,508.37888,212.50394,0.9595589,495.0267,211.49838,0.8426471,557.0096,237.37646,0.8587046,525.6451,233.69,0.71902645,1.23157241,-0.67822706,0.94598059,0.40236723
67,2233.3333333333335,447.98163,148.48026,0.6850309,449.1436,144.8396,0.8115572,448.8533,144.53,0.13863605,457.4554,138.49617,0.93823457,459.6336,136.21785,0.0847052,472.41302,148.03989,0.9950629,481.95187,142.45093,0.8868444,462.88318,192.97777,0.9925707,486.04773,179.6029,0.5791225,447.9534,216.96681,0.9688599,465.17047,212.15422,0.53963786,535.49097,172.78374,0.9911814,538.67444,171.80266,0.96142995,506.82886,213.78993,0.9785341,495.35794,211.71158,0.9020251,554.4499,234.97852,0.9126075,529.1194,229.8732,0.8010667,1.06891046,-0.67208592,0.54066561,0.63130878
68,2266.6666666666665,443.0957,155.86894,0.62269163,443.63498,152.47662,0.76283556,444.80487,152.0434,0.10874635,451.33716,146.65562,0.9310239,456.83505,144.21535,0.076277845,468.06165,154.26773,0.9944989,479.07364,150.45934,0.8837103,461.56726,196.46176,0.99256825,483.7156,188.45123,0.60475624,447.229,218.87383,0.97010213,461.9573,217.46738,0.5666893,532.10297,174.98938,0.99075866,535.98737,174.28618,0.9613082,504.64578,216.13568,0.9759631,490.69794,213.52266,0.8954899,549.34766,236.7208,0.8961515,520.40204,230.50739,0.77384317,1.1999648,-0.70868709,0.72219759,0.64506492
69,2300.0,438.75977,161.73093,0.7521873,440.39114,158.35411,0.8483285,439.84497,158.25633,0.19421898,450.33368,152.34975,0.9352654,450.26944,150.24274,0.09178198,465.54437,159.49603,0.9946344,473.62875,153.78825,0.8924428,459.17206,202.14563,0.9916469,476.26346,187.52089,0.61105597,446.22894,222.05534,0.9706523,459.56543,218.71706,0.5954897,530.4968,176.22656,0.98868936,532.9798,175.66061,0.9548768,500.906,215.54959,0.9721143,494.02402,214.83801,0.8849126,549.0729,236.5118,0.89262956,531.2336,233.67145,0.7736094,1.03916017,-0.50431009,0.07541315,0.90544909
70,2333.3333333333335,435.32684,167.22324,0.696502,435.6806,163.44347,0.8076213,435.2912,163.63391,0.1649248,443.91623,156.51797,0.9194232,444.85242,155.88857,0.09654765,459.5408,162.15976,0.99314934,467.01477,158.63445,0.8862912,458.2149,200.02252,0.9897455,475.6661,190.09584,0.6007238,447.5094,221.54285,0.96125567,459.13568,218.82988,0.54896355,518.81067,180.21564,0.9892212,521.298,179.99178,0.9579969,497.339,216.76234,0.975183,485.513,213.8479,0.8997211,541.90485,238.10667,0.9088357,515.8697,229.386,0.8073621,1.03916017,-0.50431009,0.07541315,0.90544909
71,2366.6666666666665,429.90103,167.61723,0.78890544,431.13037,163.29385,0.8736126,429.72098,164.36234,0.26056835,440.87134,157.06447,0.9284823,437.31384,157.99289,0.10320982,458.28394,164.90962,0.99435776,458.97168,163.30383,0.87681067,458.38312,203.20601,0.9910938,465.90375,195.38211,0.578305,445.18967,220.57658,0.96984863,452.867,220.6019,0.5729521,516.8283,178.73088,0.9875852,513.84216,179.52942,0.9480029,495.18506,218.0156,0.96895087,479.13968,216.71202,0.86820924,549.1179,238.92816,0.8851219,516.59625,232.77461,0.75240254,1.18318287,-0.45051374,-0.04519876,1.09312221
72,2400.0,426.07538,168.08167,0.8070295,427.58075,163.69992,0.88862437,425.70987,164.91827,0.29291874,437.80176,157.8501,0.9306362,432.4652,159.24573,0.10391109,455.66718,165.7645,0.9943944,453.58557,165.6567,0.8722654,456.4122,203.4977,0.99061686,461.29443,198.92401,0.5575859,444.8733,220.74518,0.9681898,451.3942,223.1528,0.55079544,513.3812,178.88152,0.98801976,508.3612,180.25488,0.9487592,492.42758,216.8093,0.9726529,474.00867,215.82039,0.8807448,546.07294,237.05261,0.9058251,511.817,230.95967,0.7891506,1.35399082,0.8455116,-0.14050919,1.04816909
73,2433.333333333333,424.4374,168.20424,0.84510833,426.10934,163.6966,0.9105807,423.8628,165.23833,0.36426184,436.4712,157.7158,0.93773293,430.29202,159.78923,0.12652956,453.5727,165.72234,0.99491715,451.68777,166.61148,0.88641924,455.72037,201.8259,0.990364,460.49905,197.96733,0.5664135,445.22406,221.31308,0.96704483,452.71436,223.05914,0.5539135,510.61716,179.51135,0.98700595,506.26773,181.75362,0.9454618,491.31946,216.14478,0.96863747,476.8909,217.38332,0.86815864,544.9177,234.30426,0.8927972,516.7993,231.33188,0.76614153,1.39495185,0.94180462,-0.32621714,0.97594933
74,2466.666666666667,423.17633,168.02126,0.84942037,424.98743,163.25139,0.91734767,422.5523,164.81433,0.37794203,435.96887,157.18973,0.9389984,429.41232,159.31264,0.12396248,453.17493,166.27924,0.9941413,451.24484,166.55795,0.86825424,454.1048,202.94205,0.98867095,459.9742,197.80957,0.52427703,444.0524,220.83936,0.9622181,451.9139,222.28494,0.51829815,508.45456,181.20589,0.9840768,503.3916,183.00243,0.93360996,490.8107,217.14328,0.96272755,471.17065,218.19185,0.8467541,544.11145,235.15096,0.879528,506.27002,232.54901,0.7414698,2.31187302,1.42695436,0.47483263,1.7558736
75,2500.0,423.74942,166.446,0.8613459,425.39197,161.42902,0.91847,422.77228,163.61066,0.43128052,436.13208,155.53006,0.9347657,429.4222,159.2413,0.15151224,452.7976,165.94244,0.99397707,449.4522,168.12408,0.8801923,453.80786,201.66219,0.98706347,458.55518,198.84845,0.5432131,444.93396,220.02554,0.9561417,451.57547,221.94418,0.521378,502.54013,185.3654,0.983074,496.72574,188.29822,0.9336394,493.35422,217.80527,0.9568517,473.256,220.6585,0.8385497,545.3109,230.70863,0.8682781,506.69754,230.46245,0.73119026,0.90586701,-0.20585088,0.21395718,0.85582871
76,2533.333333333333,427.85138,162.4819,0.90056247,430.08173,157.79529,0.9295837,425.60843,159.50871,0.58851683,440.3723,154.1559,0.9289935,429.1977,157.64902,0.25635418,454.77884,165.57704,0.99463475,444.1494,169.44266,0.9224749,455.7301,196.72217,0.9862379,455.98862,198.94362,0.6418306,448.17673,220.02148,0.94784313,453.31482,219.84853,0.570544,497.26593,191.0574,0.9802742,486.127,195.03029,0.9328427,510.10928,223.47655,0.9217134,482.7663,225.63647,0.76775825,552.3546,225.41542,0.7436651,509.88412,223.69966,0.5675327,0.76802476,-0.40015642,0.02309067,0.65513639
77,2566.666666666667,429.793,156.73181,0.8538746,431.4756,151.86801,0.87696695,426.76874,154.33688,0.53009754,440.0089,150.25839,0.88173324,428.38348,155.58383,0.26772976,453.7802,164.32208,0.9916055,441.65485,172.41895,0.90962166,460.58405,193.68846,0.97862166,455.66977,202.33824,0.62025267,450.81268,219.67671,0.92306,452.3295,219.24365,0.5413907,495.34973,193.16156,0.9724936,484.37607,199.84215,0.9172793,515.6794,225.28253,0.8865407,494.71597,232.26447,0.71583253,554.83594,222.41718,0.66584826,525.09515,226.2034,0.49378714,0.625912,-0.0243189,-0.1778473,0.59962052
78,2600.0,435.05008,159.03171,0.9019657,436.73892,153.113,0.90811354,430.76276,156.82211,0.6998261,444.2884,150.41037,0.8574037,429.02438,158.40155,0.3579375,459.32327,166.05936,0.988463,441.17575,176.51636,0.89908916,467.67352,193.13821,0.9557334,452.69882,202.8141,0.5443249,454.7738,216.57797,0.8740481,447.6133,218.1008,0.5037369,496.7793,195.29367,0.9534483,484.14923,203.6254,0.8841949,516.6788,215.32513,0.8978368,509.66547,224.7185,0.7776615,556.53735,216.17963,0.78647244,551.56384,224.54204,0.67673063,6.77522038,0.44510954,-2.70652145,6.19517799
79,2633.3333333333335,438.3327,157.78859,0.9240544,440.2663,152.1247,0.9202248,434.0277,156.2979,0.75854266,447.35138,151.0542,0.86421716,431.46133,159.66008,0.4214493,461.18726,166.32802,0.99161947,441.8731,178.28635,0.94048566,468.02786,190.87105,0.9667285,450.9255,202.83078,0.68286437,454.04562,211.46484,0.90604526,447.41116,213.88416,0.63260293,496.74786,191.49406,0.97671115,482.70703,200.50494,0.9464045,509.13498,204.37277,0.95421773,497.228,216.98282,0.9020685,551.94745,205.04922,0.90571946,540.5694,218.22269,0.8532398,6.77522038,0.44510954,-2.70652145,6.19517799
80,2666.6666666666665,443.4074,157.93013,0.9502484,445.3648,153.50731,0.91780114,438.9265,156.7769,0.8470432,450.72195,152.8675,0.81303966,433.81558,159.71936,0.58122504,455.44006,166.42978,0.9934628,440.9686,176.9271,0.97957885,463.53638,191.2783,0.97549075,449.37558,198.22562,0.8756722,449.48837,216.54128,0.9222148,449.21207,218.9352,0.77996814,493.56903,193.83806,0.98515886,484.1409,204.29468,0.97280633,514.6463,201.021,0.937965,510.60345,218.44336,0.8911471,559.0092,197.72878,0.84351933,556.87854,215.27011,0.78519964,1.67610627,1.0746988,-0.22820461,1.26581095
81,2700.0,443.09607,161.93231,0.8702636,444.91364,156.23439,0.85225934,439.36072,159.8917,0.7055899,449.25195,154.10518,0.7642778,434.78934,161.2937,0.42295223,459.1765,169.43689,0.97848743,441.76532,180.52226,0.9042544,467.01678,192.28238,0.9176691,449.1198,202.38506,0.58820873,452.6001,211.43379,0.81453216,451.08807,214.62036,0.54156446,496.16583,192.56903,0.95206535,484.30212,202.73679,0.91051674,510.01767,203.90027,0.92359114,503.3616,221.9249,0.86649704,553.83295,193.74396,0.8818418,550.2023,216.3262,0.8335342,1.11015787,0.15917824,-0.87572599,0.66348833
82,2733.3333333333335,440.14447,163.41595,0.8573368,441.909,157.98166,0.84402174,437.10623,161.85225,0.6542431,446.72244,155.15034,0.7805743,434.1086,162.67938,0.364738,457.06793,167.49689,0.9817322,439.74496,178.46985,0.9090913,463.9621,190.01411,0.9385013,441.37012,198.94847,0.6242645,452.6416,204.66898,0.8589258,445.957,205.77673,0.5898046,494.74945,188.71683,0.9672927,483.107,199.37546,0.9348505,507.42618,192.69986,0.9528024,500.95056,212.63742,0.91084474,553.23303,186.12216,0.9271723,550.4883,211.5746,0.89162946,1.14808327,-0.31614568,-0.8860431,0.65808413
83,2766.6666666666665,441.6664,162.75534,0.92932963,442.87592,157.85272,0.8730436,437.27588,161.64085,0.8679497,445.99048,157.4876,0.7325881,432.02185,165.42879,0.702891,457.427,171.47229,0.9813395,435.61176,183.6856,0.97224134,465.60345,187.22867,0.8989391,440.67657,204.4702,0.84885454,459.85284,192.82565,0.80829066,452.7771,207.40063,0.7863472,492.41486,193.76488,0.95678264,478.30237,203.96667,0.9530162,511.11444,206.06004,0.9201527,504.8974,218.55632,0.9175011,547.7413,206.11774,0.85577106,550.9237,219.41345,0.85593545,0.9727766,-0.33211263,-0.83003594,0.38345253
84,2800.0,441.88434,164.11035,0.9340345,442.0902,160.31624,0.8144151,437.68033,164.42838,0.9098953,443.99802,160.74823,0.60838455,432.45764,169.45903,0.84880996,453.80048,170.87659,0.98166156,434.06482,187.627,0.9930743,470.7288,176.31815,0.89940476,445.60654,205.64818,0.96745336,465.6507,180.62889,0.83086836,462.6568,213.37497,0.92812604,487.85382,187.8138,0.9856797,476.3164,200.21783,0.9912259,506.71985,196.38132,0.9726519,503.6455,213.50883,0.9838598,539.0303,201.9925,0.9443943,548.3552,221.41095,0.9606121,1.4121437,-0.50529267,-1.25377432,0.40850837
85,2833.3333333333335,442.2333,163.58203,0.9044111,442.13843,160.32564,0.7719166,438.07285,164.1785,0.8509102,443.4881,163.07928,0.60311,433.01483,171.42865,0.775931,455.05533,174.23264,0.98111147,435.81326,191.87129,0.98926675,471.3274,172.09355,0.9144789,449.3609,205.78574,0.9520457,464.32666,167.58588,0.859988,463.9295,208.63676,0.9114966,492.95193,188.14851,0.98715043,482.13074,200.20224,0.99031025,506.31122,190.4026,0.98007846,502.6404,204.99078,0.9853157,539.66113,200.373,0.9616915,548.59326,215.77885,0.96909654,1.4121437,-0.50529267,-1.25377432,0.40850837
86,2866.6666666666665,440.8667,163.95947,0.7597014,441.1508,160.8734,0.6475782,438.57776,163.9049,0.52263427,442.50623,164.40456,0.6165268,435.73187,170.73285,0.4004169,456.19785,174.2065,0.9780382,435.88947,188.37592,0.9419916,467.02258,177.26076,0.9396272,442.7545,205.52519,0.8021142,458.0542,174.83817,0.88855934,454.888,202.18092,0.7731107,489.02292,189.56345,0.98078096,476.052,199.14629,0.9711685,500.03546,191.95767,0.9773687,492.65897,200.70436,0.96709234,539.5029,206.31064,0.9611029,543.38007,213.02615,0.95235527,1.12025541,-0.23213494,-1.01427002,0.41514079
87,2900.0,440.62845,165.74588,0.7037696,439.14102,162.4581,0.499959,438.3144,165.86554,0.47155198,438.17914,163.46245,0.49518242,434.59583,170.72629,0.45042172,451.1471,172.87152,0.9821046,435.1284,187.73798,0.9703044,472.97702,169.28354,0.9628344,453.28183,193.6966,0.9178686,457.84872,165.7003,0.9324036,457.91556,185.39912,0.89039356,484.28125,185.34726,0.99249107,475.89413,195.50482,0.9902992,501.69824,178.51852,0.9876211,499.25003,190.30507,0.98459065,542.24146,184.82529,0.9737897,548.9232,196.86491,0.9702664,1.04005624,-0.09825818,-1.01672647,0.19577942
88,2933.333333333333,440.19717,167.80405,0.79021376,439.26163,164.5907,0.58198655,437.77704,168.13733,0.64071214,439.50214,165.404,0.5198882,434.71793,173.20923,0.6018448,452.4002,172.06273,0.9804677,432.77606,191.2084,0.98346657,471.79694,166.33646,0.9476397,443.10706,204.83087,0.94884586,461.30508,162.1488,0.9096381,452.75607,207.65408,0.91445,486.2732,183.70392,0.99017394,475.7509,196.27913,0.9907804,506.71417,179.77646,0.9814415,502.1814,194.1955,0.9830868,540.70135,185.0492,0.9600674,548.97864,200.05412,0.9629656,1.12318199,0.10096028,-1.10933481,0.14394823
89,2966.666666666667,441.01773,165.57913,0.73872423,439.7933,162.39337,0.49676052,438.6551,165.86996,0.56548446,439.7655,163.92003,0.4480698,435.46796,171.669,0.5499086,453.30246,171.39697,0.97638184,432.52628,191.28049,0.9801191,473.83096,164.9147,0.94649905,444.9948,206.11792,0.94804627,460.62125,161.46979,0.9154702,455.3138,210.4558,0.9202801,485.188,182.88498,0.98897904,473.97906,195.66472,0.9896488,508.1291,172.33235,0.98003584,502.49207,187.13902,0.9820019,538.6088,181.04272,0.95856637,546.6431,196.84596,0.9618151,1.14528326,-0.61362231,-0.96022802,-0.11447077
90,3000.0,440.7744,167.0672,0.83701736,439.9942,164.04944,0.64687485,437.39893,168.03052,0.67552376,441.94476,166.73752,0.5155803,435.0451,176.38727,0.5420121,454.6034,171.92477,0.9766866,436.48575,192.973,0.9802659,470.09174,163.39978,0.9474678,439.856,207.1338,0.94906574,458.56366,158.44403,0.9150788,456.35635,212.82205,0.920383,490.43457,183.63272,0.9798701,480.19473,197.29434,0.98074234,512.6266,166.36894,0.9440737,509.06815,185.21005,0.9474129,536.0422,175.97667,0.88442713,541.3458,194.88382,0.88931614,1.14528326,-0.61362231,-0.96022802,-0.11447077
91,3033.333333333333,443.5979,168.91505,0.79397386,442.1564,165.93332,0.516134,440.1698,169.69405,0.6741824,442.4983,168.24826,0.3816093,437.88965,177.50047,0.6251932,454.44064,173.71614,0.95978147,438.17444,191.41232,0.983493,463.32013,169.83025,0.90261424,438.5867,206.60025,0.96370393,457.43677,163.8764,0.85849166,452.46713,211.93387,0.9344675,488.72296,188.55042,0.97265446,479.58063,200.33463,0.981955,512.6037,173.56982,0.93235606,510.75247,186.55113,0.95565903,532.14374,189.56683,0.87183535,537.88586,200.66595,0.902729,1.00514935,-0.64604751,-0.72023243,-0.27242079
92,3066.666666666667,439.68488,172.2168,0.62185484,438.98508,170.5606,0.5548113,439.5356,170.97437,0.25275555,441.16077,170.90938,0.7012824,442.3639,171.02727,0.23322207,444.55655,177.8159,0.97964555,451.95404,178.76837,0.9047556,447.2636,181.45294,0.94309264,462.62842,184.30455,0.4832554,445.68582,168.91393,0.8907169,458.73276,170.71819,0.4943933,477.46445,195.19406,0.97103024,481.38913,197.84805,0.9337975,503.24747,174.92453,0.965054,508.55325,177.0846,0.9163437,534.7053,197.25911,0.95724106,539.84106,197.95422,0.91635144,0.94834526,-0.51880317,-0.73349728,-0.30361776
93,3100.0,441.06296,173.32591,0.73895013,440.41428,170.96884,0.66670084,439.8196,172.11041,0.38648638,443.01187,169.86148,0.70130485,440.33722,171.99503,0.28625646,447.59735,174.2915,0.9811567,450.53946,179.23409,0.91843474,452.82025,176.80244,0.9439998,460.79446,186.91727,0.52017987,449.14343,170.04425,0.89940554,457.65613,176.94533,0.53684455,482.65445,189.46782,0.97098756,483.54562,193.99115,0.9367622,504.32605,176.55824,0.96101385,507.66153,180.7244,0.91035944,534.40546,193.32321,0.9494171,537.0239,196.7467,0.904911,1.12952148,-0.54901756,-0.89316682,-0.42029935
94,3133.3333333333335,441.19916,172.96275,0.7852225,440.50635,170.6399,0.746554,440.2499,171.63281,0.4101935,443.5356,169.9131,0.8002368,442.0361,171.51389,0.28617576,448.55878,175.49461,0.98764825,454.67578,179.6039,0.9343216,454.29514,179.4983,0.9626139,469.27695,187.94507,0.53275603,450.5619,173.89046,0.92634827,461.39154,179.82495,0.5447087,482.7215,190.55139,0.97315997,485.88028,194.51935,0.934987,505.92126,177.53873,0.9577027,510.54703,181.30186,0.8928314,533.5706,191.33026,0.94097346,536.1753,194.12202,0.88168144,1.27518338,-0.54901756,-1.08501591,-0.38394382
95,3166.6666666666665,438.67868,172.14157,0.6565463,437.60275,171.01572,0.52528334,437.56543,171.19876,0.37580568,438.47467,174.12943,0.6062568,440.18616,174.90405,0.37025246,446.58386,184.22641,0.9732371,451.20557,180.96642,0.9555366,451.19757,200.91948,0.94049364,459.8708,187.38542,0.8884369,447.5386,205.01553,0.88476264,456.9933,187.50264,0.84326935,484.26425,190.11975,0.97829723,487.75226,191.96075,0.9735942,505.1374,176.00104,0.96387845,510.88785,178.1445,0.9586908,520.0034,190.44543,0.9312833,528.2128,194.05228,0.92789954,1.43758104,-0.80301494,-1.13856661,-0.35422072
96,3200.0,437.73187,177.42725,0.8254608,437.0959,175.60062,0.8253201,438.18805,176.04138,0.43892452,441.33453,175.27814,0.87451386,442.51108,175.07765,0.26858854,446.22302,180.63092,0.99139684,452.96735,181.92476,0.9616418,450.00708,188.63875,0.9774935,457.0341,192.82932,0.6709734,439.82855,195.45525,0.9535411,442.54556,205.7475,0.6568168,483.85245,191.032,0.98138154,487.4914,193.47482,0.95786434,500.24582,169.51195,0.96887064,503.3211,171.37485,0.9160027,536.27136,189.96423,0.9530263,537.8968,190.55266,0.9003275,1.42107851,-0.9346809,-0.99854871,-0.38566334
97,3233.3333333333335,436.29028,180.54942,0.85015345,435.8045,178.40997,0.856452,436.42288,178.97984,0.4709159,439.99408,177.10675,0.870526,439.40845,177.19702,0.22288363,445.87418,181.97403,0.99194884,449.14862,184.09653,0.95918477,449.78915,197.77518,0.98140854,451.22607,202.44164,0.6578086,438.8168,213.9639,0.96102834,439.3634,220.26387,0.65826833,486.4048,188.52148,0.98262906,487.79065,191.81052,0.9574839,502.85806,171.45786,0.97362536,505.15375,174.21085,0.9224792,540.6558,191.61078,0.9629323,541.73517,193.10925,0.9157438,1.39061934,-0.99953129,-0.81333205,-0.5227335
98,3266.6666666666665,435.6941,180.82828,0.66318005,434.81805,178.86693,0.6299259,435.42822,179.17206,0.31580654,438.04138,178.16812,0.7279267,440.86722,178.96552,0.25625008,446.9293,184.87695,0.9794296,453.58676,181.60632,0.93033457,447.1906,210.39307,0.95592076,459.08228,198.16882,0.79054344,439.91846,220.56914,0.89202327,448.55276,210.31897,0.722363,486.60983,191.00424,0.97554964,491.007,192.57547,0.9574223,506.1951,172.48036,0.9650065,510.01923,172.92781,0.94211817,528.4332,190.65025,0.94027793,532.0155,190.86522,0.92175,1.22605741,-0.63916943,-0.93640042,-0.46672634
99,3300.0,434.57834,183.99432,0.67338824,434.09625,181.87236,0.6861827,434.76675,182.17557,0.27359384,439.36075,179.33595,0.7888336,441.0482,180.19128,0.18416221,449.98642,183.1783,0.98545516,452.56534,181.82043,0.9180604,447.77448,207.75023,0.97322863,455.05978,199.57117,0.746004,437.16,222.8949,0.9232828,444.0193,212.89296,0.68017995,491.70544,189.33482,0.9815356,493.43784,191.57549,0.95779717,510.13153,174.99207,0.970072,511.04633,175.23157,0.9347045,533.662,189.90878,0.9428782,536.1327,188.36139,0.91152227,1.14863411,-0.60674424,-0.87891938,-0.4227558
100,3333.3333333333335,436.27844,185.95499,0.66311914,435.24576,183.52649,0.6493127,436.13614,184.01295,0.2717399,438.91406,180.0531,0.74174947,442.0362,181.55084,0.18513191,446.99332,183.90593,0.9819379,453.4228,181.52878,0.9025131,443.59692,209.54585,0.9714669,452.98608,198.03593,0.7456368,435.2617,217.71657,0.92932725,442.30844,208.59784,0.7085744,486.60275,189.90547,0.9728952,491.00323,192.47452,0.9395007,510.3998,174.20378,0.9446407,516.681,176.02222,0.88434356,532.1477,190.47795,0.89486057,535.6378,191.15088,0.8417514,1.15819897,-0.66201446,-0.88284971,-0.35176427
101,3366.6666666666665,437.39908,186.688,0.6747504,436.08835,183.91655,0.6345846,436.62744,184.92334,0.29772973,439.26505,179.87633,0.7104112,441.30646,182.7623,0.20760858,447.4335,183.10493,0.98132664,452.31,182.59096,0.9173923,443.1093,208.13081,0.9707305,450.91006,199.30846,0.78984296,434.45132,217.96024,0.9295904,440.54178,210.27211,0.750612,487.81308,189.12907,0.97624683,491.02356,192.66566,0.9516027,513.43634,173.16875,0.9529441,518.41223,175.99673,0.9092067,535.1114,192.01352,0.9104056,536.5194,193.27463,0.87135106,0.96835965,-0.75658795,-0.49718637,-0.34365797
102,3400.0,438.81073,187.31891,0.72185165,437.40585,184.16182,0.6607279,437.33157,185.9607,0.36561576,440.32684,179.6881,0.70909697,440.63077,184.50061,0.2568957,448.76062,182.40996,0.9832028,450.6396,185.1597,0.9407524,442.78683,206.46182,0.97161305,446.71686,202.74747,0.837383,433.48633,216.49684,0.929851,435.28412,212.52829,0.78738475,490.17722,187.81773,0.9789985,491.57098,192.91583,0.9613711,514.6763,176.84702,0.95193785,519.02356,181.1474,0.9148034,539.06335,191.21849,0.9008166,539.8412,192.93924,0.8652168,1.12933895,-1.03121956,-0.29649405,-0.35225556
103,3433.333333333333,438.9431,188.08003,0.7394215,437.53983,184.6001,0.6699467,437.02667,186.83414,0.38817328,440.61285,179.8087,0.7073283,439.89468,185.63266,0.27260974,448.5574,182.44148,0.98387134,450.43597,186.71301,0.9477552,441.1728,205.94188,0.972622,446.94052,204.44145,0.85445887,431.3385,215.74432,0.9315995,433.6475,212.57755,0.80362684,491.23798,190.42589,0.9800976,492.4884,196.34392,0.9646845,516.7536,177.56332,0.95400846,521.32214,182.51056,0.9208709,543.3165,194.91837,0.9025556,544.53876,196.84375,0.8702502,1.16459666,-1.03490424,-0.39057625,-0.36429219
104,3466.666666666667,439.03436,189.23088,0.766017,437.56674,185.63763,0.7042789,436.9841,187.97688,0.4064363,440.92593,180.00339,0.7377973,439.88458,186.14024,0.27933243,449.10495,181.9893,0.98745954,450.6276,186.76846,0.95392865,442.00635,205.02759,0.97867143,447.34598,204.1438,0.86367303,430.58398,216.39246,0.94168055,432.8075,213.5995,0.8099306,492.9763,189.47264,0.98372227,494.11432,195.77516,0.96907717,521.0115,180.93935,0.9564486,525.55383,186.09323,0.9202535,549.4964,195.78923,0.8968209,550.22546,197.52711,0.8580304,1.21275942,-1.0584862,-0.4659894,-0.36502912
105,3500.0,439.38843,189.39789,0.7135161,437.95816,185.98639,0.62981606,437.739,187.90881,0.34005275,441.01764,180.18015,0.7015161,441.0129,185.2428,0.26081827,448.51514,181.87587,0.9863235,451.4762,185.2518,0.9548657,440.675,205.50722,0.9785517,449.1917,202.61136,0.8784594,429.0254,216.56503,0.941147,432.85828,212.96915,0.82424116,494.0432,190.15627,0.9861248,496.01807,195.98172,0.97494215,523.4157,182.90565,0.96398956,527.8662,187.08615,0.9370409,553.6532,200.24808,0.91178066,554.90485,201.61081,0.88230366,1.1816148,-1.07519009,-0.40506933,-0.27585983
106,3533.333333333333,439.14474,190.19348,0.68217754,437.9102,186.92484,0.6040745,437.9032,188.5503,0.3010043,441.05157,180.64154,0.7089942,441.64224,184.9129,0.24539827,448.20264,181.98775,0.98723024,450.86368,184.87338,0.9531778,439.57056,206.09229,0.98029995,449.87244,202.98898,0.8704161,427.22418,216.9531,0.9404236,432.53058,212.77289,0.80435294,493.5039,190.83725,0.9880271,495.31,196.45837,0.97700274,525.0272,189.7715,0.96625996,527.80646,192.68684,0.93755287,559.08356,203.75919,0.91164786,558.901,203.61539,0.87837344,1.18131395,-1.08894623,-0.3070568,-0.33972764
107,3566.666666666667,439.04492,190.06213,0.63763255,437.96893,186.84744,0.5757654,438.0225,188.19923,0.24990997,441.40164,180.9278,0.7170227,442.25174,184.48969,0.21410288,447.94217,182.96037,0.9873087,451.54166,184.51158,0.9431007,439.1823,206.77516,0.9812619,452.55765,201.50507,0.84212,427.07983,216.83786,0.9387363,435.73666,211.28795,0.7641799,493.75806,191.1974,0.9881903,496.08807,196.34915,0.9747396,528.3769,194.02667,0.9652219,530.36584,195.42532,0.92905486,565.9954,207.6998,0.9046824,564.3422,205.50993,0.8615164,1.23020614,-1.10147415,-0.39131319,-0.38345253
108,3600.0,438.03885,190.10275,0.65100104,437.12106,187.14923,0.6168706,437.3325,188.2027,0.28080168,440.194,181.92921,0.7779895,441.3019,185.07481,0.24703343,449.31543,185.20682,0.9897125,451.5961,186.63785,0.9463805,439.0984,207.28676,0.98057324,450.71335,202.92325,0.82915807,426.07648,214.76236,0.93644166,432.39844,209.27441,0.7585915,496.44128,193.5916,0.9895377,497.40915,197.89842,0.9776603,529.96875,199.94638,0.9740078,532.3678,198.44505,0.94769984,562.86456,209.28107,0.933436,565.50037,204.67969,0.90312266,1.18626875,-1.12677563,-0.2557169,-0.26873611
109,3633.3333333333335,438.42786,190.58481,0.5172812,437.48734,187.52066,0.4799013,438.186,188.783,0.1843561,440.16855,182.41547,0.7085438,442.2434,185.56012,0.1856305,448.6859,185.55495,0.984504,451.55038,186.8656,0.92238396,439.5227,206.95639,0.9765672,452.4289,201.35638,0.7993124,425.45413,216.65889,0.9286506,434.9749,207.89398,0.73229283,494.98962,194.9933,0.9879671,496.2211,199.3915,0.9743937,524.22565,197.13779,0.9739382,526.59186,196.98483,0.9470567,562.5991,210.49988,0.93860674,565.411,207.95258,0.9094088,1.19635969,-1.06069701,-0.49620379,-0.2449085
110,3666.6666666666665,438.50226,190.91579,0.5656065,437.57416,187.96559,0.54052484,438.2215,188.94681,0.20347977,440.28638,182.70776,0.75775963,442.61725,185.28212,0.19981143,448.71423,185.77818,0.98851633,452.84903,185.85402,0.9298114,438.85638,207.21643,0.98170346,455.02298,199.4141,0.79921025,424.7292,217.61241,0.9369121,437.78583,206.5036,0.72312963,497.36792,195.39969,0.98908794,499.22446,199.27286,0.97442937,529.8224,201.77634,0.9717541,531.581,199.46106,0.9373272,570.2296,214.53545,0.92497545,571.3146,208.34189,0.88431674,1.59070642,-1.49941976,-0.35937928,-0.39106754
111,3700.0,438.36932,190.14355,0.5093439,437.4088,186.9451,0.47856987,437.9812,188.45937,0.17343786,440.43198,182.24521,0.7245167,442.33954,185.84125,0.18354665,448.83817,185.76639,0.98664343,452.1244,187.19392,0.92408204,439.9951,205.8978,0.9799825,454.87213,199.88124,0.79496866,425.02597,218.13385,0.9301536,437.18634,208.04352,0.71002,496.96613,195.78423,0.9895878,498.2302,200.4588,0.9761233,530.4369,202.30135,0.97364557,531.56067,201.0816,0.9425896,575.27606,215.90515,0.931195,575.535,210.5581,0.8948001,1.11518766,-1.04890603,-0.19651635,-0.32376069
112,3733.3333333333335,438.40164,189.87338,0.50554746,437.3728,187.04034,0.48988816,438.15466,187.97816,0.1600322,440.1054,182.89445,0.75501937,443.0648,185.22372,0.1808833,447.84293,187.35442,0.98966557,453.71713,185.39304,0.92305344,438.43634,208.82605,0.98427665,458.5795,196.49783,0.7833579,423.2936,218.45943,0.9400751,443.01862,204.18787,0.6989468,495.2225,196.28056,0.9917036,497.91327,199.48007,0.97843057,532.3448,206.53484,0.97747314,534.1014,203.2789,0.9455837,575.9402,217.84695,0.93644285,574.9901,210.45517,0.89653367,0.67046744,-0.60502472,-0.28838775,-0.01744083
113,3766.6666666666665,438.34467,190.75099,0.4384115,437.35825,187.50723,0.4218508,438.48276,189.11479,0.1382293,440.16998,182.79941,0.70598507,443.2868,186.61293,0.15539579,448.24326,186.37068,0.9834569,450.9662,189.17458,0.9000399,440.26694,207.54538,0.9758616,450.454,204.1044,0.7345491,424.59985,218.15387,0.9132066,430.81012,212.8305,0.63155746,496.17346,195.3267,0.98648876,497.78113,201.11757,0.96735805,532.4052,207.31488,0.96452045,535.1437,208.4639,0.9191182,580.3319,217.88634,0.9041755,582.1221,216.07072,0.85002244,0.75372684,-0.72268888,0.15524792,0.14738726
114,3800.0,438.46683,190.69725,0.4220174,437.42456,187.26462,0.39562276,438.35593,189.45483,0.1380262,439.89172,182.77457,0.68813366,442.53604,187.86838,0.16197969,447.4471,186.42688,0.98292637,449.46185,190.8881,0.9042864,440.4256,206.38074,0.9746415,448.5972,204.73907,0.74286485,426.11884,218.25882,0.9072884,429.33636,213.86708,0.6286474,494.12256,195.67776,0.98829144,495.4122,202.44614,0.9724373,530.7504,208.70984,0.96987027,533.7414,211.51315,0.93255246,582.1769,217.40428,0.919991,583.9325,217.25522,0.87493634,0.93065076,-0.84968758,0.15819566,0.34513184
115,3833.3333333333335,439.17227,192.15639,0.38471693,437.76907,188.5599,0.33831576,438.832,190.41833,0.103803486,440.7526,183.02441,0.6119729,443.63287,187.6164,0.12268268,447.5621,185.50099,0.97970366,449.23328,189.68967,0.8871353,441.31732,205.93707,0.9779879,449.29663,204.01248,0.7481216,427.3175,220.32805,0.9157727,432.48734,217.23581,0.62502825,495.81104,195.43056,0.9853592,497.39487,202.88533,0.96311927,540.879,210.27264,0.94285953,541.50964,214.60835,0.8675647,589.843,216.48761,0.8211811,585.34204,216.9205,0.72719896,1.06892776,-0.90692296,-0.07099153,0.56129983
116,3866.6666666666665,438.81647,191.48782,0.42601386,437.53503,187.93115,0.3836931,438.25464,189.80132,0.11487731,440.7447,182.75116,0.6548345,442.91968,187.39906,0.13036072,446.8929,185.3486,0.98434466,449.47403,189.75613,0.8991296,440.63312,205.54594,0.9825523,450.61176,204.25989,0.75776505,426.0598,220.60266,0.92906505,433.58224,217.98715,0.6373174,495.07095,195.4953,0.98816013,497.00888,203.071,0.9679118,541.28595,212.34412,0.9508996,542.1589,216.9935,0.8781469,589.8104,218.67415,0.8335185,585.3087,219.31143,0.73593754,1.23995192,-1.07543573,0.16237164,0.59544455
117,3900.0,438.94754,192.11034,0.40796062,437.5833,188.8029,0.37095845,438.59128,190.25018,0.102762446,440.46643,183.39273,0.66085124,443.57352,187.13817,0.12271592,446.33957,185.4596,0.98509014,450.75983,188.49951,0.89507025,439.83478,206.11998,0.98420376,452.47488,202.88614,0.75600046,425.74176,220.61919,0.93508756,435.70145,217.09393,0.64189386,495.58768,195.66626,0.9887537,498.553,202.63548,0.9682703,542.0742,214.15552,0.95143235,543.5236,218.24359,0.875501,588.2751,219.43634,0.8284169,584.09485,219.87291,0.72429734,0.98110032,-0.75192069,0.27266644,0.5681779
118,3933.333333333333,438.38293,191.68176,0.43781906,437.20773,188.43967,0.41055033,437.99512,189.71965,0.11175489,440.5936,183.2211,0.6912122,443.26956,186.56131,0.12649398,446.2469,185.68614,0.98630804,451.3999,187.98985,0.896905,439.65057,206.87704,0.9847713,453.82535,202.54897,0.74784213,425.55743,220.58897,0.9359714,437.0161,216.67987,0.63231164,496.0523,195.83093,0.9885252,499.374,202.50227,0.9667233,542.98395,215.39319,0.94929385,544.60254,219.22107,0.86766464,588.6353,219.89435,0.81913567,584.58466,220.2736,0.70833606,1.0200885,-0.85730258,0.13338547,0.53648964
119,3966.666666666667,438.55515,192.48497,0.41964623,437.22836,189.25758,0.3900277,438.19086,190.57492,0.10522179,440.24396,183.76826,0.67621416,443.20157,187.25424,0.12178297,446.2189,185.59714,0.9857568,450.64734,188.48454,0.89298993,439.72867,206.53813,0.98480886,452.82733,203.37799,0.746634,425.22464,220.58334,0.93651,436.01184,217.23476,0.6325675,495.96362,195.37057,0.98843515,498.90286,202.26361,0.96634257,542.80334,214.8083,0.94874084,544.24866,218.75656,0.86557823,588.19556,219.23557,0.81711924,584.2759,219.56009,0.7043998,1.06337244,-0.90987071,0.26750788,0.48097377
120,4000.0,438.14722,191.37418,0.4233062,437.0842,188.46417,0.42355168,438.27014,189.90292,0.120481804,439.5539,184.11835,0.74087286,443.17746,187.8305,0.14254059,446.80646,186.81754,0.98695403,451.91153,189.69377,0.8918847,439.50568,205.00452,0.98237693,452.1629,201.72873,0.7158373,425.98633,217.91473,0.9308599,433.26605,213.4124,0.61736643,495.17612,196.09349,0.98910344,498.17596,202.08969,0.96899444,535.12195,214.542,0.96556973,538.7569,216.77487,0.909694,579.9923,221.50845,0.8909819,581.5215,221.2395,0.81563675,1.08477485,-1.06511863,0.15745873,0.13215725
121,4033.333333333333,437.95584,190.71013,0.40631896,436.97516,187.77586,0.40466905,438.15848,189.2517,0.114251025,439.67157,183.83011,0.72871816,443.34955,187.51103,0.1375482,446.89984,187.02426,0.98568904,452.2833,189.4758,0.88805056,439.45477,205.47324,0.98101586,452.78873,201.15662,0.7164545,426.08832,217.89697,0.92820424,434.4154,212.20035,0.6212253,494.79214,196.76717,0.98875487,497.78775,202.54532,0.9689707,533.85846,212.73105,0.9667544,537.0941,214.93481,0.9151229,579.0941,221.54105,0.8989435,580.02704,221.48962,0.8309941,0.86265562,-0.85877646,-0.0621483,-0.05305941
122,4066.6666666666665,437.85794,190.31046,0.43243316,436.9047,187.25546,0.42728865,437.97028,188.83841,0.12733006,439.8697,183.33557,0.7336959,443.3224,187.27948,0.14642735,447.4301,186.9469,0.9854881,452.5199,189.6806,0.89414793,439.49518,206.03685,0.9798828,452.19675,202.09995,0.7252106,425.84772,217.5803,0.9256918,433.1901,212.03491,0.6306842,495.32718,197.20651,0.98764044,498.1253,203.05293,0.9672843,534.0905,211.74202,0.963698,537.35754,213.99792,0.9110337,578.55194,221.35667,0.8913285,579.44543,221.31982,0.8232076,0.86043037,-0.81480592,0.00786065,0.27635112
123,4100.0,438.08484,190.85294,0.44694972,437.07025,187.79004,0.44037887,438.1667,189.32217,0.13398822,439.91232,183.48462,0.73714596,443.3816,187.42355,0.15003712,447.55878,186.67807,0.9857432,452.48032,189.7786,0.89566207,439.71124,205.85033,0.9801247,451.85574,202.84416,0.7271321,426.0448,217.52277,0.92716694,432.90878,212.39143,0.635582,495.59427,196.97224,0.9870768,498.38635,202.96877,0.9657526,534.8697,211.88875,0.9611421,538.4951,214.35327,0.90500283,577.6546,221.45462,0.8819609,579.23096,221.64449,0.8089759,0.98767888,-0.93099622,-0.02382761,0.32891924
124,4133.333333333334,439.00226,191.73637,0.46394542,437.7935,188.3027,0.42733088,438.3528,189.80176,0.1286855,441.26843,182.95564,0.6810476,443.46454,186.78397,0.13839383,447.24713,185.79132,0.98449916,452.20114,188.31143,0.9013007,440.09464,207.50826,0.9820092,454.45343,203.20848,0.7604594,426.19968,220.24345,0.93075025,437.4499,215.92436,0.6533338,496.22266,196.56218,0.986259,499.40067,203.09523,0.96373546,540.037,211.44182,0.94483864,542.0459,215.30386,0.86764026,583.8824,218.65286,0.8180739,580.34607,219.14832,0.7186499,1.00681792,-0.95703463,-0.07860654,0.30263518
125,4166.666666666667,439.328,191.91714,0.4338406,437.97183,188.47913,0.39058864,438.61157,190.00351,0.11728146,441.14868,183.08865,0.6530628,443.39404,186.98508,0.1330989,447.39438,185.69208,0.98326844,451.66962,188.3096,0.89781797,440.6464,207.62114,0.9813829,454.17828,203.30402,0.7624628,426.0641,220.36975,0.9279643,436.66544,216.26349,0.65220463,497.15253,196.36896,0.98622143,499.89655,203.0725,0.96419996,542.45135,211.74452,0.94368166,543.8978,215.60709,0.8669688,587.1764,218.63722,0.813464,583.11414,219.04758,0.7146269,1.09394067,-1.08575284,-0.09285398,0.09604737
126,4200.0,439.4036,191.59055,0.43240538,438.1284,188.23949,0.38911614,438.713,189.55995,0.11582503,441.4049,182.93056,0.6546905,443.62955,186.37526,0.13298668,447.4692,185.69833,0.98314387,452.31567,187.62311,0.8983188,439.9746,208.48248,0.9811592,455.29953,203.14572,0.76451063,425.6746,220.54817,0.92686146,437.79633,215.86421,0.65365744,498.15054,196.91638,0.98580164,501.09866,203.35704,0.96350014,544.1481,212.42517,0.94079036,545.34686,215.9025,0.8622701,587.92554,218.47958,0.80408996,583.747,218.72247,0.70413995,1.20978384,-1.19973233,0.03930327,-0.15058065
127,4233.333333333333,439.4226,191.97949,0.43095204,438.07266,188.63867,0.386631,438.77777,189.93286,0.11495452,441.24863,183.1358,0.6530301,443.77313,186.5568,0.13285121,447.52576,185.57999,0.98297113,452.46915,187.72768,0.8982424,440.27832,208.03896,0.9811292,455.27063,203.2663,0.7659117,425.79706,220.5484,0.9268756,437.38614,216.09506,0.6555211,498.6591,196.99664,0.9853882,501.70352,203.51384,0.96261376,544.82684,213.10498,0.937532,546.0959,216.58867,0.85576874,588.1327,218.72911,0.79199034,584.09955,218.8678,0.6888242,1.11082891,-1.10540448,0.06804379,-0.0859759
128,4266.666666666667,439.44202,191.98512,0.4360065,438.14325,188.66743,0.39363024,438.81516,189.89862,0.11638319,441.40543,183.08414,0.65850955,443.86008,186.37776,0.13271764,447.61844,185.42628,0.9830657,452.68454,187.49512,0.89776486,440.01102,208.43747,0.9810901,455.3206,203.65497,0.76280004,425.51834,220.58492,0.92644936,437.36484,216.27559,0.6517081,499.2099,196.91339,0.98500746,502.286,203.42055,0.96148413,545.4395,213.70679,0.9355551,546.7209,217.23157,0.85096604,588.41187,219.14697,0.78476727,584.4643,219.42744,0.67884153,1.04463654,-1.04423876,0.02874052,0.00221081
129,4300.0,439.58276,191.85374,0.4224165,438.2476,188.5029,0.37594965,438.9662,189.78923,0.11335171,441.41983,183.05658,0.6425396,443.98804,186.43225,0.1327096,447.66803,185.60345,0.9817281,452.6004,187.65857,0.8963274,440.3709,208.16693,0.979738,455.22278,203.19223,0.7649304,425.8602,220.49591,0.9227804,436.8549,216.09113,0.6533981,498.7577,197.0928,0.9844811,501.8076,203.57681,0.9613233,544.8547,212.67593,0.93496346,546.0566,216.16574,0.85355026,588.23834,218.7343,0.7878144,584.2005,219.04404,0.6869718,1.04480133,-1.04399312,0.03660117,0.01866905
