frame_id,timestamp_ms,nose_x,nose_y,nose_conf,left_eye_x,left_eye_y,left_eye_conf,right_eye_x,right_eye_y,right_eye_conf,left_ear_x,left_ear_y,left_ear_conf,right_ear_x,right_ear_y,right_ear_conf,left_shoulder_x,left_shoulder_y,left_shoulder_conf,right_shoulder_x,right_shoulder_y,right_shoulder_conf,left_elbow_x,left_elbow_y,left_elbow_conf,right_elbow_x,right_elbow_y,right_elbow_conf,left_wrist_x,left_wrist_y,left_wrist_conf,right_wrist_x,right_wrist_y,right_wrist_conf,left_hip_x,left_hip_y,left_hip_conf,right_hip_x,right_hip_y,right_hip_conf,left_knee_x,left_knee_y,left_knee_conf,right_knee_x,right_knee_y,right_knee_conf,left_ankle_x,left_ankle_y,left_ankle_conf,right_ankle_x,right_ankle_y,right_ankle_conf,acc_x,acc_y,acc_z,acc_mag
0,0.0,520.37164,94.11618,0.91266453,522.48236,91.89622,0.87085277,518.5893,91.91763,0.8293982,526.00464,92.80775,0.7128872,515.74194,92.77941,0.576429,530.7953,105.70512,0.98918366,511.3004,105.75424,0.9894945,534.4397,122.638016,0.931833,507.59927,122.408844,0.9079953,531.7649,138.3872,0.87764204,507.5161,136.90909,0.8409768,526.6285,138.69232,0.9912697,514.2848,138.63657,0.9913186,525.9209,163.03183,0.9785583,513.0428,162.87799,0.97565323,524.5923,187.02617,0.9568863,514.2655,186.7121,0.95256656,0.98723438,0.1265074,0.937383,0.2827379
1,33.333333333333336,520.8892,94.04934,0.9153873,522.9792,91.82024,0.8688491,519.0513,91.83571,0.8401304,526.3967,92.71637,0.69821316,516.0496,92.65596,0.60329014,531.0657,105.64046,0.989207,511.458,105.645,0.99056375,534.58826,122.68085,0.9294496,507.69925,122.4485,0.91879493,531.9204,138.42776,0.87514144,507.57016,137.20662,0.85487014,526.87634,138.71458,0.9914397,514.4867,138.64844,0.9919619,525.9487,163.0838,0.9784908,513.1859,162.9128,0.9769657,524.3928,187.04645,0.95635873,514.3739,186.74857,0.9540116,0.94102369,0.07418492,0.87621728,0.33506038
2,66.66666666666667,521.19495,93.9599,0.919606,523.2736,91.716255,0.87197345,519.30414,91.74247,0.8504375,526.6591,92.591,0.69439983,516.20996,92.548134,0.6225105,531.3493,105.55556,0.98948574,511.5704,105.55127,0.99137455,534.8962,122.68552,0.9294512,507.8076,122.40433,0.92609775,532.39,138.56198,0.875764,507.59045,137.2333,0.8648148,527.1541,138.69786,0.9915548,514.67224,138.62494,0.9923454,526.13226,163.09264,0.9781109,513.2819,162.90656,0.9773865,524.4489,186.9972,0.9549967,514.4376,186.70674,0.9538323,0.94106733,0.02874052,0.89169295,0.29944179
3,100.0,521.19574,93.81543,0.92087454,523.2996,91.57219,0.8743913,519.30035,91.59743,0.852535,526.7171,92.500694,0.6978946,516.2172,92.4586,0.6239483,531.4124,105.54121,0.98953444,511.57092,105.54148,0.99140996,534.9355,122.6626,0.9293167,507.84717,122.3884,0.9257778,532.4721,138.47592,0.8755836,507.655,137.13574,0.864321,527.1724,138.6101,0.99146044,514.6454,138.53223,0.99226063,526.1186,162.97836,0.9779073,513.166,162.78186,0.97716796,524.4596,186.89177,0.9547643,514.3434,186.58682,0.9535819,0.96444254,0.04028585,0.92952234,0.25399738
4,133.33333333333334,521.19415,93.77382,0.92073214,523.311,91.531685,0.8742316,519.304,91.55995,0.852817,526.7639,92.48133,0.69625145,516.2634,92.45015,0.623809,531.4087,105.52733,0.98926044,511.7199,105.53484,0.99127793,534.9012,122.602936,0.92726564,508.08817,122.32965,0.92490774,532.72455,138.43173,0.8729197,507.77036,137.0107,0.8630996,527.1804,138.42554,0.9912354,514.7597,138.34528,0.9921111,526.07477,162.76181,0.9777157,513.2136,162.5584,0.97713405,524.53766,186.7164,0.9549929,514.373,186.3997,0.95405656,0.98087479,0.16482809,0.96047367,0.11152303
5,166.66666666666666,521.56165,93.88482,0.9197417,523.6401,91.62857,0.86832434,519.63055,91.66375,0.8564415,526.99036,92.53049,0.67801756,516.4606,92.494675,0.6400368,531.54694,105.567825,0.9885035,511.82022,105.53501,0.99134606,534.90674,122.78537,0.91942143,508.12595,122.36336,0.9267122,532.5029,138.69104,0.8615737,507.88797,137.02641,0.8640154,527.39557,138.46794,0.99065393,514.94214,138.39288,0.99193233,526.1831,162.83426,0.97632307,513.2873,162.64136,0.9767834,524.54944,186.7316,0.95281726,514.38654,186.4537,0.9533974,1.12416183,0.14640468,1.11449336,0.01449308
6,200.0,521.7286,93.92845,0.9195562,523.8326,91.6845,0.86916655,519.8284,91.69718,0.8551566,527.2151,92.58968,0.6818167,516.6973,92.491684,0.63641787,531.76385,105.61953,0.9885655,511.94565,105.47338,0.9912664,535.0123,122.90503,0.9204244,508.13916,122.20302,0.92587304,532.5275,138.74158,0.8628124,508.04514,136.63243,0.8629323,527.47687,138.46822,0.99059874,514.9704,138.34207,0.9918155,526.20575,162.8128,0.9760345,513.3273,162.57242,0.9762872,524.46844,186.67001,0.95198077,514.4417,186.32274,0.9522632,1.1298534,0.18841005,1.11400207,-0.00835194
7,233.33333333333334,521.98267,94.24989,0.92101246,524.09644,92.00176,0.87238437,520.0863,91.998985,0.8558026,527.4883,92.7925,0.68896335,516.9435,92.651886,0.63445014,531.98096,105.65727,0.98910296,512.1657,105.41715,0.9915344,535.14703,122.992935,0.92505133,508.313,122.08328,0.92767304,532.63635,138.8734,0.86985755,508.18466,136.46297,0.8664682,527.46857,138.40442,0.99110514,514.9994,138.22243,0.992176,525.9559,162.75404,0.9772584,513.34344,162.46451,0.97719425,523.9831,186.65054,0.95381963,514.4522,186.25128,0.9536518,1.09422584,0.16900406,1.08108558,-0.00466726
8,266.6666666666667,522.3062,94.439705,0.923468,524.42084,92.20596,0.87880915,520.4119,92.18492,0.855708,527.8019,92.925766,0.70549726,517.2392,92.750374,0.62668806,532.2862,105.59971,0.990008,512.4407,105.3187,0.99174666,535.4439,122.77783,0.93321294,508.49826,121.90251,0.92818546,532.5436,138.15189,0.8822377,508.29462,136.11334,0.8690149,527.45856,138.28006,0.9916795,514.9952,138.04222,0.9924096,525.7156,162.59671,0.97822064,513.32153,162.2554,0.9772489,523.4508,186.4452,0.95437217,514.4415,185.99199,0.9528503,1.00241009,0.15868695,0.98921419,0.03316213
9,300.0,522.6268,94.77217,0.9238549,524.72864,92.54668,0.88174397,520.7398,92.49662,0.8509242,528.0589,93.16475,0.71972686,517.4818,92.920555,0.6136167,532.5264,105.63501,0.99094725,512.5694,105.21929,0.99193853,535.52734,122.875046,0.9418053,508.49203,121.70166,0.9285673,531.37537,137.78122,0.8953256,508.52853,135.62337,0.87161714,527.3982,138.37158,0.9925597,514.81836,138.05351,0.9928974,525.56274,162.59897,0.9802453,513.00635,162.19223,0.97827154,523.11786,186.38144,0.9572299,514.2223,185.86021,0.9540918,0.98308514,0.18497102,0.96538658,-0.01645824
10,333.3333333333333,522.9938,95.24609,0.9239333,525.08673,93.008286,0.8834344,521.08765,92.93367,0.8488111,528.39386,93.39883,0.72557306,517.72473,93.09756,0.6056427,532.8811,105.45972,0.9913844,512.7481,105.034065,0.9919986,535.98663,122.42511,0.9464455,508.60074,121.48779,0.9289914,531.4309,136.60217,0.90310204,508.54288,135.30472,0.8738822,527.6756,138.11797,0.99315166,514.928,137.78195,0.993287,526.2301,162.3383,0.981974,513.06226,161.90544,0.9795756,523.8378,186.20003,0.9604813,514.11865,185.64198,0.9566542,0.97660104,0.20609652,0.95457818,0.00736936
11,366.66666666666663,522.7222,95.4105,0.9205275,524.83777,93.17952,0.8818782,520.88257,93.102516,0.83872306,528.2564,93.52724,0.7324098,517.6788,93.23991,0.58554536,532.8842,105.443886,0.99143827,512.7234,105.09573,0.9915759,536.0341,122.17021,0.9484169,508.52838,121.49242,0.92487216,531.0556,135.73029,0.9063438,508.55692,135.06058,0.8694343,527.5962,137.97955,0.99348867,514.82837,137.65578,0.99340665,526.11975,162.13239,0.9835661,512.93097,161.71053,0.980692,523.7031,186.11452,0.9643699,514.0586,185.54141,0.9598375,0.96814957,0.20806169,0.9454893,0.00859759
12,400.0,522.1737,95.37796,0.91833365,524.3552,93.16485,0.88670343,520.4494,93.07786,0.8251801,528.0384,93.52573,0.7555934,517.56384,93.25047,0.54845935,532.97314,105.380516,0.9917508,512.737,105.10956,0.9907143,536.33044,121.79614,0.9529901,508.5448,121.37395,0.9149677,531.0299,134.657,0.9131728,508.6653,134.52159,0.85827935,527.5532,137.81558,0.99369884,514.72314,137.48044,0.9931278,526.1891,161.87581,0.9845821,512.8074,161.43811,0.98038715,523.86444,185.88573,0.96672153,513.9974,185.22928,0.9602275,0.9683953,0.21174637,0.94475236,-0.01989728
13,433.33333333333337,521.7559,95.23458,0.9183452,523.9583,93.01197,0.8898805,520.0322,92.94265,0.82057077,527.7069,93.43062,0.7674003,517.19275,93.21602,0.5348387,532.77356,105.36696,0.99201643,512.45154,105.17496,0.99039686,536.2248,121.77406,0.95539314,508.3384,121.38672,0.9102266,530.43964,134.48271,0.9167136,508.77246,134.1958,0.8531347,527.3759,137.84668,0.9937651,514.48,137.5379,0.9929501,525.9286,161.8854,0.98475677,512.6169,161.4803,0.979841,523.4871,185.88287,0.9669611,513.95996,185.25757,0.95936733,0.96828849,0.21395718,0.94426107,0.01326485
14,466.6666666666667,521.3273,95.19264,0.9222032,523.5581,92.95834,0.8980641,519.5923,92.911316,0.8229151,527.42487,93.379166,0.78474313,516.8187,93.24742,0.5266498,532.65326,105.29385,0.9926059,512.2812,105.215836,0.9905786,536.20874,121.56575,0.9592051,508.27036,121.34476,0.9090232,529.9579,133.9306,0.92295086,508.7816,133.86273,0.8532516,527.277,137.76451,0.9940567,514.3093,137.47498,0.9930661,525.8979,161.84454,0.9853805,512.32184,161.45134,0.97995317,523.4743,185.95514,0.96801615,513.6792,185.33304,0.9596,0.98674571,0.27610547,0.94376978,-0.08204558
15,500.0,520.46594,95.02358,0.9254527,522.71594,92.764404,0.9053704,518.7179,92.777374,0.8243297,526.737,93.25242,0.8004862,516.07355,93.2946,0.5169796,532.1981,105.30982,0.9930205,511.87445,105.38327,0.9905882,535.9941,121.595184,0.96181744,508.0685,121.267654,0.90639657,529.53564,133.9879,0.92715424,508.98798,132.95871,0.85143566,527.01483,137.90092,0.9941829,514.0261,137.66382,0.9930235,525.63306,162.07411,0.9855698,511.87122,161.74141,0.9795908,523.24036,186.33176,0.9683233,513.16174,185.7774,0.9590713,1.08319648,0.37976785,1.00739195,-0.11938368
16,533.3333333333334,520.19244,95.18504,0.9233423,522.36395,92.90433,0.9020902,518.4165,92.964645,0.8202025,526.3076,93.25525,0.7954159,515.737,93.42773,0.5131909,531.8994,105.12807,0.9929317,511.68805,105.41688,0.99047756,535.9044,121.37393,0.961831,508.09885,121.533325,0.90678614,529.32434,133.98137,0.92720425,508.7697,133.69977,0.85196036,526.9293,137.76581,0.99431556,513.98145,137.62051,0.9931873,525.7143,162.00522,0.9860724,511.68506,161.759,0.9803202,523.66254,186.37909,0.9694736,513.0547,185.94876,0.9605641,1.17916262,0.39352399,1.11007174,-0.05748103
17,566.6666666666666,518.8639,95.76993,0.9258205,521.11707,93.57379,0.9111417,517.3411,93.514534,0.80813205,525.19025,93.913635,0.8165562,515.23486,94.0138,0.44599807,531.5758,105.90558,0.9921703,511.53778,106.12332,0.9876846,536.1752,122.03801,0.9717561,507.89276,121.58368,0.9129643,528.31366,134.4245,0.9517599,508.2412,134.14943,0.88163406,526.33075,138.10333,0.9945051,513.642,137.87552,0.99274147,525.1706,161.682,0.9895349,512.4683,161.24577,0.9835632,524.533,185.16745,0.97581327,514.8737,184.3317,0.9660515,1.29674599,0.33800812,1.23166623,0.22427429
18,600.0,517.94525,95.69318,0.90763533,520.1454,93.45859,0.89945394,516.5795,93.48615,0.7500828,524.60767,93.53576,0.8297857,514.78296,93.74216,0.3819711,531.19507,105.215485,0.99262744,510.97098,105.6523,0.98542273,535.28656,121.34761,0.9705354,507.3932,121.80983,0.87060297,528.6703,134.6352,0.94406885,507.27448,135.22784,0.82391095,525.9904,138.05815,0.9941281,513.19464,137.90588,0.9912805,524.94293,161.45264,0.98811394,511.75806,161.17267,0.9790004,524.63617,185.59135,0.9722483,514.521,184.87189,0.9575753,1.31280581,0.14050919,1.24296592,0.3984369
19,633.3333333333333,517.14044,95.05653,0.89902914,519.27765,92.79234,0.8890525,515.80664,92.86955,0.74078166,523.78937,93.003174,0.81183803,514.1334,93.244606,0.38621148,530.1934,104.93315,0.9919807,510.54456,105.19714,0.9848973,534.16113,121.82039,0.9636839,507.1199,121.554535,0.85703135,528.4045,136.30887,0.92722815,507.68524,134.34488,0.79499894,525.42896,138.18176,0.9940122,512.8262,137.98462,0.9914262,524.51654,162.28577,0.98691934,510.21146,162.04108,0.9778282,523.4254,186.86307,0.97252953,511.52686,186.25479,0.95932937,0.95168972,-0.00393033,0.90716861,0.28765081
20,666.6666666666666,517.0739,94.789665,0.9099678,519.1832,92.50523,0.89661473,515.5371,92.64173,0.7740279,523.4392,92.79454,0.80957454,513.49536,93.15799,0.42863536,529.654,104.83372,0.9923248,509.94266,105.194435,0.98675275,533.9026,121.728714,0.96261674,506.6453,121.254654,0.87153673,528.67694,136.6315,0.9253493,507.47467,133.37881,0.80941546,525.31934,138.00742,0.99388486,512.5637,137.91016,0.99167913,524.6255,162.18588,0.98588485,509.4698,162.03757,0.9773622,523.9722,186.65363,0.9699495,510.57043,186.22946,0.9573044,0.94253105,0.16802148,0.89218424,0.25326045
21,700.0,515.2979,95.61106,0.8852902,517.3299,93.30516,0.8805276,514.0505,93.47034,0.7015444,521.97345,93.23848,0.8132309,512.6623,93.70126,0.3394133,528.9344,104.924255,0.9915269,509.35257,105.38275,0.9819375,533.29364,121.96857,0.96485096,506.01956,121.60536,0.8366225,528.241,137.45218,0.9280124,506.611,134.02827,0.77373964,524.622,138.51994,0.99408394,511.9881,138.41747,0.9909768,524.18195,162.73148,0.98746616,508.9238,162.61505,0.9773627,523.6258,187.36787,0.9738541,509.84628,186.87616,0.9594023,1.09300915,0.07271105,1.0395715,0.32965618
22,733.3333333333333,514.1892,95.64923,0.8880198,516.24536,93.294815,0.8860143,512.89514,93.52657,0.7020535,521.0106,93.2905,0.823207,511.61942,93.95795,0.33282375,528.21686,105.16344,0.9916031,508.75327,106.01659,0.9812139,532.71246,122.23509,0.9643235,505.89233,122.8065,0.82393515,528.0544,138.26291,0.92584354,505.6817,136.21234,0.75817066,524.14764,138.61143,0.9938446,511.6852,138.64806,0.9903852,523.3562,162.77435,0.9872486,508.6928,162.77841,0.97638977,522.8281,187.33813,0.973859,509.98276,186.96759,0.95863277,0.93263671,-0.04839215,0.87302389,0.32449763
23,766.6666666666667,511.76657,96.033165,0.8687201,513.90936,93.62604,0.876589,510.58286,93.88719,0.63598263,519.14795,93.48416,0.83171594,509.75568,94.36218,0.25919476,527.2614,105.24695,0.990446,507.17114,106.52851,0.9737071,532.1315,122.08211,0.9681675,504.72955,123.299515,0.7906283,528.2135,138.5361,0.9365846,504.008,137.11794,0.74157387,523.3553,138.77817,0.9932128,510.5446,138.9932,0.9880927,523.47064,162.82724,0.9878991,508.78247,162.92589,0.9750395,524.29584,187.60693,0.97355247,510.91263,187.14964,0.95466393,0.91435598,0.05379635,0.89316682,0.18816441
24,800.0,510.1738,95.76204,0.87941456,512.31,93.34695,0.8905741,509.02466,93.67537,0.64675903,517.7223,93.302986,0.8504284,508.46152,94.38043,0.2544199,526.1791,105.21101,0.99151015,506.25217,106.75981,0.97500926,531.48846,121.8985,0.971901,503.77637,123.379974,0.7922424,528.4928,138.78036,0.9426385,503.09653,137.02457,0.7448936,522.8701,138.62573,0.9936139,510.17764,138.97021,0.98842317,523.42,162.85318,0.9882832,508.77332,163.0723,0.97496337,524.3577,187.84409,0.9738491,510.9142,187.49176,0.9540176,1.0500114,0.10980351,1.03072826,0.16753019
25,833.3333333333334,509.2591,96.13946,0.88253844,511.39792,93.63864,0.8897976,507.94293,94.004135,0.6596886,516.7708,93.26468,0.84251404,507.1512,94.401405,0.26715928,525.5053,104.94404,0.991384,504.85303,106.40175,0.97605556,531.2133,122.08458,0.9706067,502.74927,122.84801,0.8026136,528.2676,139.68478,0.94062376,503.2571,135.76765,0.7547281,522.47107,138.65895,0.9935923,509.33212,139.02757,0.98880273,523.4557,163.0209,0.98807716,508.37585,163.23605,0.9756368,524.33356,188.07602,0.97313505,511.00015,187.71347,0.95430714,1.05114439,0.0243189,1.02139374,0.24711931
26,866.6666666666667,508.37906,95.62966,0.8765345,510.38718,93.11821,0.869235,506.96634,93.55798,0.6748715,515.4946,92.71742,0.80142003,506.09958,94.0108,0.3107264,524.40173,104.44328,0.99024874,503.73993,106.06553,0.9798157,530.42926,121.72279,0.9647039,501.81433,122.612305,0.8501768,528.3545,139.85161,0.93209004,502.51868,135.80333,0.7994482,522.14154,138.47743,0.9934856,509.0729,138.98547,0.99040574,523.0701,162.97476,0.98712397,508.34125,163.28476,0.9781237,523.8964,187.74176,0.9704094,511.06003,187.54062,0.95610607,0.99009515,0.07074589,0.96071931,0.2286959
27,900.0,508.50397,95.50988,0.89688504,510.46786,92.98773,0.87912315,506.83075,93.50183,0.7376104,515.2386,92.52736,0.78981495,505.45914,93.939255,0.38478392,523.30304,104.09362,0.9906799,503.0846,105.63784,0.98411167,529.2506,121.139465,0.9607488,500.31982,121.1474,0.87724465,527.6797,138.8478,0.926773,503.0452,132.37914,0.826789,521.65186,138.11394,0.9934068,508.7791,138.736,0.9912949,522.9765,162.97334,0.9863029,508.4171,163.40869,0.9793032,523.7854,187.80031,0.968082,510.89374,187.8259,0.95653605,0.99029987,0.09309962,0.95801721,0.23287188
28,933.3333333333334,507.20273,95.85098,0.8705125,509.09277,93.32526,0.85501397,505.6715,93.865295,0.67604554,513.9408,92.59417,0.7751309,504.60822,94.06772,0.32669067,522.3461,103.72188,0.98886406,502.42578,105.19281,0.9789044,528.6833,120.64838,0.9585369,499.91934,119.918945,0.8527861,527.5531,138.21292,0.9232365,503.11484,129.2812,0.80278975,520.9095,137.9232,0.99292564,508.19952,138.53072,0.9901467,522.3662,162.91214,0.9861221,507.66357,163.36646,0.9779821,523.66205,187.72697,0.9680696,510.03018,187.73012,0.954943,1.02050012,0.05551587,0.99044241,0.2395043
29,966.6666666666666,506.5828,95.57213,0.86320865,508.30148,92.97426,0.8510804,504.9467,93.60709,0.6616283,513.08673,92.20538,0.7594873,503.7078,93.77441,0.3112805,521.539,103.46874,0.98650825,502.13892,104.78585,0.97188425,528.90594,120.20401,0.9517965,500.0359,119.19375,0.79874676,527.5967,137.01674,0.91446334,503.63617,125.915924,0.7506045,520.4344,137.60425,0.99131197,508.01367,138.09406,0.98683494,521.54706,162.90916,0.9845553,507.09723,163.28685,0.9733748,523.1997,187.61584,0.96745247,509.557,187.62662,0.9518842,1.07812395,0.04397053,1.01402437,0.36355525
30,1000.0,504.36115,94.70832,0.86038935,506.4615,92.09442,0.8745158,502.9345,92.54982,0.6150655,511.81104,91.4624,0.8158153,502.0978,92.77289,0.22414778,520.1372,103.0596,0.9857597,501.0179,104.84097,0.9548706,528.00757,119.00873,0.96072775,500.03433,120.44977,0.6993983,527.5937,136.096,0.93110704,502.4616,130.63959,0.6793255,519.09265,137.25394,0.9911272,506.99628,137.93504,0.982856,520.29395,162.88039,0.9883888,507.07034,163.37898,0.97378844,524.07837,187.9119,0.97733134,511.1188,187.85197,0.9588138,0.8678716,0.00294775,0.81284076,0.30410905
31,1033.3333333333335,504.84567,93.95821,0.8893899,506.97443,91.31717,0.88563156,503.0218,91.795265,0.7063601,511.61044,90.96276,0.7998844,501.1418,92.25685,0.31547543,518.8448,103.058624,0.9878857,499.61475,104.89055,0.97079146,526.96277,119.18684,0.95960647,498.6042,120.485306,0.78341115,526.9012,136.30293,0.9306155,501.16412,130.19026,0.74991256,518.37775,137.67696,0.9924465,506.3004,138.57448,0.9874836,518.5941,163.32603,0.9894252,506.80753,164.04431,0.9795098,523.3017,188.23288,0.97868115,512.56396,188.57445,0.9652543,0.92312033,0.0513399,0.90176441,0.19062086
32,1066.6666666666667,503.45352,93.7231,0.8996756,505.6386,91.09346,0.90416306,501.77902,91.521515,0.7053631,510.64847,90.68592,0.83792716,500.3091,91.94932,0.28881183,518.20856,102.885254,0.99018574,499.15134,104.80946,0.9724734,526.00903,119.12194,0.96946746,498.32645,121.216644,0.7835842,525.5362,136.36087,0.9453838,500.01392,132.93488,0.7550164,517.3232,137.98161,0.99331576,505.4092,138.8004,0.98794335,517.8675,163.6889,0.9900399,506.32098,164.29921,0.9787637,521.9963,188.56409,0.97872055,511.58047,188.69221,0.9628385,0.99785356,0.09924076,0.98430128,0.13043773
33,1100.0,502.16525,93.41925,0.90031564,504.3949,90.889496,0.8885358,500.49988,91.2933,0.7303811,509.62988,90.83949,0.81302214,499.51038,92.04372,0.35770044,517.5197,103.4183,0.98904,498.39307,104.86208,0.9785301,524.21075,120.520096,0.95006377,496.52292,120.9389,0.822498,521.93774,136.98921,0.90748733,499.5224,132.86176,0.7648526,516.49097,138.34326,0.9898599,504.5755,138.91582,0.985706,516.7628,163.75908,0.97939336,505.68762,164.09366,0.9670318,518.31494,187.98242,0.954069,510.0714,187.6702,0.93472373,1.01780015,0.06460475,0.98454692,0.24982141
34,1133.3333333333333,501.55185,92.854004,0.90641934,503.77264,90.369316,0.8957116,499.87634,90.73839,0.7514902,508.97372,90.57734,0.81770563,498.86374,91.67648,0.38092843,516.94836,103.090614,0.98860234,497.6656,104.93246,0.9783562,523.22906,119.86692,0.9374854,495.9139,122.88782,0.7950569,519.79297,135.68307,0.87735087,497.04086,138.34866,0.7136346,515.83246,137.44197,0.98699594,503.8569,138.0291,0.9820889,515.8521,163.56186,0.96906114,504.3161,163.93866,0.9515103,515.8449,188.68135,0.9365153,508.05246,188.50082,0.9114985,0.98319657,0.05576151,0.94082203,0.2800358
35,1166.6666666666667,500.4802,92.780396,0.89072835,502.731,90.30353,0.88159746,498.96796,90.62223,0.7134046,508.114,90.55676,0.80928844,498.2939,91.51832,0.3444463,516.4055,103.26489,0.9867988,496.90692,104.89632,0.9738477,522.7018,120.37317,0.93099236,494.46216,123.20819,0.76763624,519.53687,137.11838,0.8645283,495.02405,140.38968,0.6818144,515.06714,137.66101,0.9854616,503.15408,138.11057,0.97951525,514.3971,163.51398,0.9667742,503.80792,163.7396,0.946769,514.28687,188.55142,0.93349135,508.33997,188.12082,0.90569776,0.94505483,0.02652971,0.89439505,0.30410905
36,1200.0,499.17853,92.92572,0.89456797,501.36014,90.42697,0.89616233,498.0733,90.759384,0.71551174,507.25552,90.470215,0.8221834,497.99896,91.42246,0.32691365,515.5954,103.105316,0.98723465,496.56015,104.63527,0.97326887,521.2513,119.987144,0.9381293,493.09277,122.99463,0.74717003,519.78436,136.66975,0.8805739,492.50018,139.67744,0.6697626,514.3157,137.00894,0.98743385,502.82556,137.39394,0.98107994,514.1403,162.52235,0.9761524,504.3609,162.67633,0.95848334,513.76044,188.58148,0.95739794,508.8873,188.02383,0.9361249,0.97405188,-0.05576151,0.92583766,0.29747663
37,1233.3333333333335,498.74988,92.919,0.8966348,500.9422,90.50223,0.88439393,497.38644,90.748184,0.7123228,506.4629,90.42354,0.81175274,497.09888,91.26352,0.33354548,515.00305,102.93747,0.9890561,495.79337,104.183525,0.9805142,521.3324,120.41554,0.9549396,492.61127,122.08406,0.8542248,519.6542,136.80182,0.9172967,492.53177,139.02246,0.8011771,513.71344,137.85931,0.9902339,502.3773,138.15532,0.9869686,511.42926,164.25508,0.9780115,503.83453,164.2472,0.96602297,511.2249,189.54994,0.94645303,508.91257,188.75279,0.9259381,1.05915323,-0.07958912,1.0152526,0.29108985
38,1266.6666666666665,498.4312,93.41573,0.91044664,500.65305,90.96881,0.89762914,496.8685,91.22789,0.74492556,506.04037,90.7691,0.82124716,496.20355,91.61582,0.3601014,514.3795,103.17566,0.9904089,494.80988,104.296104,0.98319894,520.7463,120.69986,0.95842016,491.36865,121.78325,0.86703455,519.3318,137.03642,0.9229066,491.53995,137.71138,0.8157748,512.85657,138.16068,0.9910452,501.30295,138.41476,0.98816943,510.3594,164.5485,0.97888774,502.58255,164.51321,0.96759653,509.84433,189.96434,0.94702744,507.38873,189.17984,0.9270768,1.22511826,-0.12454224,1.03908021,0.63695862
39,1300.0,498.78674,94.06525,0.9203809,500.9503,91.57092,0.89578784,496.85895,91.81674,0.7904976,505.7831,91.140144,0.79193246,495.32004,91.901985,0.43981034,513.74554,103.18437,0.9912655,493.2979,104.38547,0.9881976,520.55975,120.616196,0.95840013,490.02454,122.28406,0.90859777,519.2369,136.97426,0.9252306,490.05716,138.90814,0.8625365,512.40967,138.17438,0.9928671,500.3112,138.56865,0.991816,509.90933,164.9806,0.982637,501.90482,165.08005,0.97682106,509.08347,190.93121,0.9551348,506.58878,190.44482,0.9440229,1.17851563,-0.13068337,1.01869164,0.57800372
40,1333.3333333333333,498.2958,94.649345,0.92942643,500.59225,91.94363,0.90566385,496.16434,92.285706,0.83035994,505.43842,91.15901,0.7793832,494.01724,92.21894,0.50655305,513.4939,102.99867,0.9919011,491.36203,104.99632,0.99077386,520.6488,120.24278,0.9651531,489.328,123.73093,0.93530285,519.88495,137.26086,0.94200647,488.86838,140.28711,0.901895,512.0176,138.08304,0.99485934,498.77234,138.8929,0.99443984,509.84857,164.67139,0.98953164,501.0008,165.13269,0.9868073,509.262,190.75783,0.97290176,505.95642,190.83568,0.9678527,1.11073702,-0.03561859,0.79343477,0.77648523
41,1366.6666666666667,497.4975,95.56844,0.9218394,499.63016,92.765686,0.8887917,495.29538,93.21214,0.8208192,504.41202,91.36977,0.7430396,493.15283,92.67828,0.51510996,512.8336,102.45759,0.9915496,490.4092,104.8176,0.9915609,520.2688,119.722984,0.964469,488.5732,123.773026,0.9464589,519.8475,137.69101,0.942518,488.67923,140.79443,0.91671705,511.9517,137.56978,0.9956512,498.58286,138.61739,0.9956352,509.8601,164.01462,0.99150157,501.02322,164.72296,0.99010825,508.52325,190.0252,0.9778651,505.48846,190.44455,0.9752475,0.52866112,0.19725329,0.36429219,0.32842795
42,1400.0,496.21414,96.378,0.9305736,498.3834,93.61803,0.904565,494.07242,94.03013,0.8306597,503.38123,92.128174,0.77403307,492.15408,93.340355,0.5105153,511.7068,102.94669,0.99247473,489.62173,105.04439,0.99189633,518.8604,119.96916,0.96803135,486.9569,123.294205,0.9449163,518.68823,138.0241,0.9472365,488.19562,140.06104,0.9156659,511.37064,137.584,0.9956768,498.26044,138.55696,0.99547654,509.51944,163.93524,0.9912832,501.26495,164.5613,0.9893686,507.7611,189.77377,0.9767298,505.56485,189.99988,0.97306335,1.16379107,0.19111215,1.13242548,0.18841005
43,1433.3333333333333,494.81534,98.049515,0.92277205,496.90002,95.24884,0.89694124,492.80087,95.68585,0.80554485,502.10583,93.03673,0.7686622,491.20984,94.33102,0.4661585,510.99432,102.78399,0.9922416,488.62817,105.09213,0.99126995,518.54333,119.57672,0.9713021,486.1981,123.537155,0.9458794,518.5989,137.80675,0.9530012,487.77283,140.9404,0.919306,511.15067,137.33513,0.9958431,497.96783,138.41637,0.99554944,509.17838,163.78181,0.99146396,501.0894,164.48595,0.98929906,508.1315,189.45059,0.9761267,506.4974,189.72083,0.9718255,1.05043212,0.08916929,0.94033074,0.45960262
44,1466.6666666666665,493.40555,99.14164,0.9141044,495.41165,96.39789,0.8898429,491.66302,96.81064,0.7740076,500.95367,93.92793,0.7717062,490.63474,95.17747,0.4156128,510.31134,103.283165,0.9916957,488.26404,105.21673,0.99000823,517.37085,120.29277,0.97212225,485.47977,123.23898,0.941624,516.63354,138.70186,0.9542746,487.00586,140.90332,0.91553223,510.06522,137.9293,0.9955243,497.10693,138.73618,0.9950458,508.01187,164.47354,0.9905467,499.92322,164.89014,0.9877202,507.52832,190.18457,0.97275835,505.95047,190.03777,0.9669776,0.97651354,0.05870926,0.81799931,0.53010286
45,1500.0,490.5211,98.32572,0.8044929,492.31873,95.70917,0.7620111,489.49374,96.17825,0.5645664,498.0919,94.21477,0.66480935,489.6517,95.63005,0.2752226,508.70712,104.380974,0.9856048,487.0189,106.63549,0.98196054,516.699,121.203186,0.96764654,485.17908,124.64877,0.9316486,515.5499,139.73143,0.9494488,487.60132,142.22067,0.90687674,509.09637,139.78091,0.9951391,496.1669,140.65979,0.9945884,506.6118,165.29451,0.9903352,497.80685,165.79774,0.9875066,507.55328,190.17834,0.973375,505.12115,190.14606,0.9678674,1.00183848,0.11103174,0.83175546,0.54729804
46,1533.3333333333335,487.69635,99.6446,0.61556894,489.27313,97.195984,0.61413294,487.53644,97.59546,0.28449702,495.63193,96.15517,0.6326178,489.37955,97.343475,0.11884458,507.19534,106.217354,0.9753671,487.3122,107.579895,0.9486197,515.2263,122.71446,0.9641739,483.75446,123.06076,0.8438857,513.08746,140.90475,0.94260114,487.3074,137.07468,0.82485354,508.35666,141.23294,0.9937669,496.37787,141.68445,0.99079305,506.128,165.96066,0.9900581,497.4685,166.21616,0.98290217,507.1428,190.46288,0.975037,503.66885,189.89468,0.9627691,1.08566706,0.11692723,0.95285866,0.50701219
47,1566.6666666666667,487.1483,104.091705,0.8613715,489.04214,101.30973,0.86700034,485.96375,101.797,0.5802522,495.72238,98.356476,0.8152171,486.46234,99.88844,0.20257206,507.46164,106.58983,0.98989874,485.7638,108.55766,0.97618073,515.72504,122.90817,0.97747314,483.75735,125.25232,0.86836255,513.43475,142.22093,0.9605819,485.81903,142.59366,0.8468079,508.19598,140.29204,0.994718,495.39462,140.84381,0.99162453,505.24496,165.79666,0.99023926,496.58688,165.94821,0.9815485,505.6841,190.85655,0.97277653,503.8042,190.12024,0.95653456,0.80341585,0.07172847,0.69689611,0.39327835
48,1600.0,486.5,107.11287,0.8742196,488.25317,104.29338,0.8763267,484.84262,104.83309,0.6260309,494.32437,101.09597,0.7995425,484.6425,102.78918,0.21915486,505.4121,108.60831,0.98704416,484.8272,110.63156,0.97318697,513.6136,125.31287,0.9724186,482.82965,126.94212,0.8697823,511.90625,144.71576,0.955569,483.49478,143.12779,0.8535379,507.62878,139.12924,0.9925965,495.60056,139.86171,0.98904616,504.13934,164.98009,0.9874507,496.9745,165.32898,0.9778436,503.96957,190.25359,0.9680979,502.85464,189.81601,0.9515634,0.98662833,0.31540874,0.83028159,0.42963387
49,1633.3333333333333,485.64883,110.79382,0.8348595,487.01282,107.943436,0.8500874,484.16733,108.59543,0.5420273,492.69885,104.212715,0.790516,484.15036,105.94174,0.18886091,504.05667,111.077194,0.9867452,483.7786,113.12715,0.9619897,512.9835,127.41113,0.9684171,481.68964,130.11298,0.7658321,511.07166,146.85965,0.94126886,481.21753,145.42285,0.7361919,504.49512,141.81198,0.9917042,492.53116,142.46391,0.9849268,503.94235,166.10834,0.9849119,494.60632,166.56699,0.9680511,501.0022,189.90388,0.9641379,497.7835,189.7579,0.93891305,1.40582997,0.25792771,1.24296592,0.60404214
50,1666.6666666666667,484.037,113.66406,0.80150306,485.31427,110.950554,0.83766663,482.7017,111.5633,0.45746696,490.74982,107.65801,0.80686986,482.62668,109.18236,0.13902509,502.44955,114.20973,0.9877538,481.81934,115.4491,0.9565295,512.1705,131.14803,0.97831285,478.216,130.49628,0.762526,509.8952,151.3517,0.9579302,478.92267,142.89072,0.7460064,504.24368,141.72467,0.9933524,491.84637,142.15482,0.9864269,502.62677,165.56792,0.9882267,492.66702,165.89804,0.9710305,501.1395,189.71225,0.97084975,497.4446,189.42859,0.94413286,1.06596157,0.18276021,1.01869164,0.25522561
51,1700.0,482.6049,118.65132,0.7893441,483.81277,115.859146,0.8334555,481.14362,116.47185,0.43388146,489.39014,111.71477,0.8078071,481.15082,113.23103,0.12666398,501.98294,116.935844,0.9861789,481.01794,118.093506,0.9490566,511.31216,134.29999,0.97635186,478.4924,133.82805,0.73548794,508.281,154.43956,0.95402706,478.31808,146.94162,0.7217138,504.21793,142.60196,0.9924159,491.63614,142.89986,0.9842569,502.8029,166.13467,0.9872387,492.32056,166.2682,0.9681473,500.53983,190.11844,0.9689792,496.4019,189.47162,0.93999296,1.05959237,0.19848152,1.03736069,0.08499332
52,1733.3333333333335,482.95218,122.49133,0.91171324,484.19235,119.732445,0.9268408,480.7659,120.47012,0.6997071,488.95004,115.88815,0.8712505,479.53244,117.68576,0.2490908,500.20288,120.915726,0.9920433,480.2475,123.00105,0.97560126,509.8689,137.41415,0.9799715,477.27267,139.57692,0.81308407,506.89597,156.909,0.95870245,474.50412,154.56778,0.779752,505.23,143.74686,0.99147284,492.9774,144.60196,0.9840607,502.99982,166.95422,0.9810512,491.44397,167.56865,0.95664114,503.39456,190.21387,0.95054173,496.3659,190.29704,0.9107586,0.98828451,-0.06656991,0.8671284,0.46942844
53,1766.6666666666665,480.00348,126.32463,0.9066623,481.17764,123.29219,0.9046355,477.37958,124.39996,0.71143395,485.89444,118.88232,0.80102074,476.22223,121.8963,0.2765526,497.93243,122.82199,0.9885421,477.8489,127.27316,0.9785123,508.8532,137.53839,0.9748983,477.34152,143.72076,0.88630706,506.2484,157.33864,0.96236175,474.85757,158.9166,0.87752765,505.82718,143.62897,0.9929253,493.71124,145.73022,0.9898595,500.17355,166.82893,0.98932767,492.73395,168.58847,0.9811974,498.9737,190.62799,0.9773058,497.3085,192.1514,0.96584195,1.3232257,0.06853508,1.08427897,0.75535973
54,1800.0,479.00287,131.54062,0.8997258,480.16257,128.51514,0.89781433,476.20853,129.65016,0.69494337,484.80264,124.0336,0.79466826,475.1228,126.99373,0.27147472,496.72058,126.63641,0.9862714,477.5567,131.37907,0.9738593,506.952,141.06563,0.9666531,478.11005,148.9299,0.85182405,504.41718,160.11649,0.95101374,476.69495,165.45792,0.8440597,507.51288,142.04732,0.9912668,495.65802,144.33797,0.9873931,500.0577,165.27026,0.9893121,492.19247,167.14406,0.98089325,499.87436,189.29927,0.98061854,496.9803,190.81609,0.9704039,1.39743537,-0.09924076,1.13832097,0.80448881
55,1833.3333333333333,477.61148,135.8168,0.8768995,478.3441,132.90874,0.84625787,474.77808,133.86647,0.66693115,482.10645,129.1033,0.73003435,473.73996,131.49799,0.3269802,492.62924,131.41931,0.98559487,476.65674,135.62881,0.9782347,500.49283,149.676,0.9571406,481.38736,156.34535,0.8820649,496.52698,170.85945,0.93498755,485.49805,173.64658,0.8620723,506.68506,140.93298,0.9905137,496.657,143.42044,0.98844403,500.11755,164.52615,0.9882637,493.86462,166.79665,0.9828091,499.7607,188.23668,0.97787136,498.10275,190.3021,0.97046846,1.47779888,-0.10169721,1.33483732,0.62590458
56,1866.6666666666667,477.04498,142.71954,0.8761362,477.61142,139.75609,0.8493691,474.01498,140.57684,0.6463567,480.8579,135.11009,0.75128436,473.3,136.92554,0.32130355,489.7306,135.32095,0.9857314,476.95905,138.46802,0.9757116,495.38422,155.6984,0.9577345,482.16263,160.39964,0.8584008,492.08524,176.48929,0.9323702,486.258,175.85524,0.8357253,505.00006,139.44215,0.98829913,497.0352,141.5643,0.9848798,497.26505,165.73466,0.98603314,492.7689,167.76288,0.97812814,498.83997,192.09952,0.9713542,498.0171,193.91,0.95993817,1.16938776,0.21493976,1.12628434,0.22967849
57,1900.0,473.29355,146.66241,0.7317645,473.54352,143.83182,0.73909074,470.9054,144.31976,0.3864133,475.99585,139.87639,0.76950246,471.77115,140.09134,0.21087825,483.98483,140.5344,0.97938854,476.31058,140.38701,0.94759476,486.59598,162.3774,0.9491681,477.0327,161.66765,0.7228019,480.8683,183.44424,0.89193904,476.24228,180.146,0.65645945,502.6425,142.04039,0.9818995,497.3557,142.4193,0.97129697,493.4836,167.98364,0.9771737,487.44324,168.21844,0.9545417,499.82874,193.42972,0.9461734,495.15735,192.94443,0.91054946,0.96628667,0.38885673,0.83298369,0.29772227
58,1933.3333333333333,471.2755,151.8665,0.7370843,471.86572,149.1735,0.77659893,468.84485,149.67479,0.3873832,475.05063,144.94905,0.811696,468.86337,145.43448,0.17501499,483.8534,144.28308,0.9806326,472.3813,144.76257,0.9393943,485.92975,162.40451,0.95661265,471.3808,162.81436,0.678442,477.28555,178.24982,0.9102818,469.33298,177.1604,0.6350661,501.01846,143.00696,0.98648363,492.867,143.55714,0.9757243,494.8991,168.04971,0.9858602,484.87268,168.41351,0.9672368,501.58823,192.98466,0.96967804,490.89316,192.50899,0.9427865,0.58628774,0.03389907,0.4767978,0.339482
59,1966.6666666666665,471.52393,157.86226,0.7253204,471.87933,155.302,0.6923829,468.66782,155.77307,0.44285452,474.31464,150.33669,0.6031437,466.93567,150.99681,0.20582612,483.091,146.36739,0.9697547,468.15704,147.81961,0.95103467,486.23495,164.10031,0.9391683,463.14838,166.84445,0.81423473,479.9841,178.52588,0.90990657,455.94165,183.81113,0.7958645,497.891,139.43256,0.9883371,488.50916,140.71742,0.98450536,493.52405,163.92499,0.9906061,485.52307,165.1489,0.9843956,497.78564,190.6889,0.98397726,491.1996,191.30948,0.9760735,0.27753728,0.12478788,0.24392592,0.04421618
60,2000.0,469.7152,157.71124,0.65565443,470.82034,155.69487,0.68990135,468.0482,155.74539,0.32886854,474.5547,153.14612,0.7166674,467.92258,152.73962,0.14047523,482.71832,152.55255,0.9695024,469.23962,151.44823,0.9219067,482.6829,170.94731,0.9473075,465.67645,167.55495,0.71300346,474.811,181.59486,0.90616554,464.09583,177.77615,0.6878449,494.27127,147.70059,0.981753,485.16495,147.48973,0.9697639,492.84396,170.12894,0.9808313,482.0473,169.69637,0.9611359,499.99356,193.09482,0.961949,490.09155,191.42801,0.93471706,0.36744329,-0.11201432,0.10882093,-0.33260393
61,2033.3333333333333,25.33332,114.31723,0.31426248,26.05038,111.26962,0.21824579,27.552767,111.61174,0.1404515,28.216377,114.63889,0.54180676,39.739075,114.603424,0.31986797,24.943909,132.22076,0.89808387,48.776,132.06516,0.9058986,9.656563,151.63554,0.7815497,55.72649,150.32845,0.78357375,8.050707,162.34978,0.6766956,59.448883,155.98004,0.6749054,25.692547,176.91212,0.93747294,39.72499,176.34348,0.9382671,14.670559,203.96616,0.87599957,23.328867,204.75511,0.8802985,12.925711,224.59903,0.73598665,17.497705,225.67816,0.7465581,0.45768993,-0.06337652,-0.4173516,0.17686472
62,2066.666666666667,29.960083,113.96596,0.31361866,30.217243,111.17285,0.16935696,31.091,111.26547,0.1685901,28.08451,114.77946,0.46656317,39.217648,114.61957,0.44317427,22.804344,132.39255,0.9059919,46.67391,132.18213,0.9424879,8.291336,152.78752,0.789343,58.567978,147.9798,0.8751588,4.5648384,172.2045,0.6909043,66.069885,154.92517,0.7810321,25.022957,174.92265,0.95317173,39.087936,174.80916,0.9622182,19.632347,204.86237,0.89341706,29.428532,205.84067,0.91532254,15.437639,224.36298,0.7523654,23.47887,225.78882,0.78608525,2.61281873,0.34021893,-2.22431946,1.32795925
63,2100.0,35.718422,114.970345,0.6233322,36.203255,112.23901,0.42381057,34.526993,112.20469,0.51854944,31.060692,114.64494,0.5282461,35.16118,114.602005,0.6742402,23.263266,130.95102,0.9138954,41.279907,130.03023,0.94530135,8.997049,149.38054,0.7066966,55.032063,139.43939,0.81920695,4.2672615,166.40453,0.58247,65.645195,140.94325,0.6945123,24.783695,172.02756,0.92101353,34.901897,171.74939,0.9339214,19.444845,202.75415,0.8615686,27.345623,202.47816,0.88439584,15.434452,225.52328,0.74695253,21.546352,223.97974,0.77394694,2.84577655,0.02923181,-2.53260448,1.29749921
64,2133.3333333333335,449.73352,187.76018,0.6708604,449.23068,184.54877,0.5461133,447.65198,185.89694,0.4130567,454.8256,178.45389,0.49398673,445.81418,182.02682,0.27791098,469.85126,176.09595,0.9468407,447.70316,179.9824,0.9291158,484.01678,204.57733,0.9221199,439.21936,209.93954,0.8715036,476.44968,231.28992,0.880612,429.53116,231.33456,0.83373517,486.23843,166.22922,0.95047444,471.8238,167.35301,0.9423366,482.1221,206.61295,0.8910681,465.7566,204.74948,0.87140054,486.07037,234.38379,0.6956762,470.42856,227.0863,0.6799485,2.26086044,0.47237618,-1.97769143,0.98847725
65,2166.6666666666665,31.956348,114.06787,0.3639888,32.902702,111.21242,0.2538003,33.088573,111.45598,0.20320755,31.43636,115.08876,0.52257293,40.776,115.17592,0.388234,25.18766,133.14302,0.891037,45.93658,133.77246,0.88574964,8.897625,150.51642,0.7410167,51.971874,150.1388,0.7038217,4.46813,149.11108,0.6152341,56.563454,146.98529,0.5762991,24.045097,180.2367,0.9175033,36.39496,180.39629,0.9108767,15.0967655,211.10905,0.84932286,25.507128,212.263,0.8397133,17.985321,231.60977,0.69997454,25.424778,232.9065,0.69291455,1.38725195,0.83249239,-1.10417625,0.11054045
66,2200.0,445.89383,198.29794,0.75954217,446.88406,195.81754,0.7080157,443.73697,196.31732,0.49083525,453.98566,190.68405,0.63238204,441.2598,192.52563,0.2552144,467.33075,187.41597,0.96192384,441.086,190.42796,0.9073738,478.64188,207.71733,0.9459022,432.66553,216.09306,0.81182796,480.26593,218.4281,0.916847,427.79916,233.37932,0.79055095,481.21826,179.41927,0.9469592,463.66464,180.3467,0.9165026,480.10632,218.37733,0.8489754,457.54303,213.9774,0.7681364,489.4876,233.61806,0.61436856,465.48267,223.10626,0.5404416,0.8559744,0.70721322,-0.36306396,-0.31737391
67,2233.3333333333335,409.57114,168.60002,0.7444981,409.77377,166.66974,0.46998158,407.54337,166.70284,0.7439047,408.5675,168.28052,0.23617545,402.22638,168.12279,0.7670722,405.5143,179.04314,0.91977066,398.9455,179.66756,0.9531659,407.66632,193.2822,0.5406096,400.6958,195.28165,0.7979564,412.3551,203.42279,0.40010798,407.40564,205.1226,0.6255,405.91785,204.4533,0.7016944,401.92816,205.45488,0.7569283,409.13702,210.32349,0.2296088,406.38824,210.8641,0.29789397,405.9616,214.00552,0.1093918,405.0625,215.34106,0.13884044,0.80204003,0.53968303,-0.53501577,0.25645384
68,2266.6666666666665,367.93118,120.97221,0.81599814,368.81586,118.54526,0.5048086,365.55988,118.21306,0.8357098,367.2112,120.599915,0.1820772,359.40765,119.30336,0.81606895,364.668,137.4749,0.8767024,353.80048,135.08786,0.9594044,367.3287,160.40677,0.3485469,350.5885,156.82565,0.81838185,368.99686,180.46147,0.2818228,355.25043,176.37357,0.6579993,355.35028,178.6626,0.7912648,348.22946,177.57909,0.88084716,352.48788,205.28989,0.5205414,345.13367,204.5149,0.6908864,347.24988,230.1418,0.36956695,338.11838,230.21796,0.5038598,1.2175119,0.63229136,-0.6654535,0.79982155
69,2300.0,31.659342,116.142715,0.21360317,31.563581,113.32445,0.18383367,32.42134,113.60449,0.08303399,28.300985,114.4319,0.7514186,39.14556,115.26696,0.36804578,21.161356,131.34221,0.94996834,45.705444,132.03302,0.9182797,7.953246,150.5875,0.7975463,47.408127,150.21089,0.54885525,2.9419923,160.84987,0.57592744,40.89147,160.00697,0.33582124,23.770023,177.46016,0.9263701,39.128075,177.37306,0.8993645,12.993517,205.85956,0.80704993,27.820248,206.0187,0.7101722,16.877707,232.44083,0.61956656,26.857523,232.57098,0.52484185,1.24900353,0.79515429,-0.89979925,0.34365797
70,2333.3333333333335,28.984524,113.11063,0.050436378,29.180485,110.5405,0.032924265,31.745272,110.589806,0.02584499,28.99358,114.01108,0.5764814,42.810284,114.08206,0.4930349,22.293184,132.88776,0.9691733,45.982693,132.81053,0.98169786,6.5697136,152.5668,0.9052509,53.569557,149.6913,0.948266,3.3335342,161.88882,0.7487851,68.368835,151.28351,0.8182202,24.36602,177.29529,0.9845371,38.253986,177.35594,0.9889608,20.24939,199.90105,0.8966892,32.513176,200.58842,0.91609883,19.177618,220.54022,0.69284886,26.452309,221.33421,0.7317583,1.90122247,1.53430142,-1.114739,-0.13387676
71,2366.6666666666665,28.546385,114.060165,0.3022919,29.227457,111.20688,0.19339046,30.114399,111.2995,0.15221387,28.879467,114.37988,0.5226999,40.114914,113.94789,0.39838445,23.516996,132.08543,0.9035625,47.568108,131.965,0.9223297,6.9653816,152.29674,0.76150197,55.760773,150.46913,0.79355186,1.0420723,167.62932,0.6250693,56.935917,156.93863,0.65822035,23.525278,177.65417,0.93865514,39.358917,177.1554,0.9426434,12.808886,209.83018,0.8711662,31.821712,209.0485,0.8819077,8.751625,228.86461,0.72172153,33.332043,227.4328,0.7401398,1.38490572,0.83986176,-1.08477026,0.18939263
72,2400.0,410.17163,168.33798,0.8455757,410.20425,166.42368,0.5136412,408.02646,166.58873,0.85858923,408.28568,167.64519,0.1840207,402.5362,167.7261,0.86950725,407.00626,178.38698,0.92674893,398.53644,179.64232,0.9731103,414.32547,193.29767,0.58158046,403.26035,198.16223,0.90631676,424.64996,202.93506,0.49261612,419.47903,206.67725,0.80387586,409.6569,208.35037,0.7005999,404.0432,210.31226,0.80914235,427.2697,216.97244,0.17755516,423.91632,218.97592,0.31909826,426.15314,226.17287,0.065640934,424.15863,228.83853,0.11460968,0.97863716,0.28347484,-0.90864248,0.22746768
73,2433.333333333333,409.63535,168.74072,0.7268712,409.62106,167.03911,0.46492055,407.83444,167.01144,0.748309,408.09808,168.37332,0.2191881,402.7071,168.00764,0.7700283,407.26053,178.98488,0.9324826,398.10257,179.32303,0.9619307,412.0026,192.75266,0.6186179,398.08905,194.3603,0.8656056,419.09137,204.70575,0.47471708,404.3816,206.02118,0.7230719,407.2884,206.15105,0.78067523,402.0515,206.8906,0.8294886,408.1296,219.04594,0.20907824,404.38623,219.36359,0.28150004,404.7645,222.59915,0.06937101,402.09467,223.78093,0.092090294,9.76446704,8.00976085,-0.0432336,5.58450342
74,2466.666666666667,34.634018,114.789055,0.2400602,33.935135,112.34913,0.08011715,35.755955,112.40904,0.1559552,27.676052,117.14268,0.3145448,42.784805,117.2921,0.5624172,21.220211,135.34674,0.8808174,48.493988,134.36104,0.9674229,4.8180847,152.6414,0.74745023,67.66319,143.31165,0.9497071,3.58535,162.14839,0.6807632,86.48206,138.17911,0.8902195,20.718697,179.20172,0.95942336,36.37204,178.64801,0.9783773,17.802948,205.5362,0.8958202,28.712128,204.36372,0.9442682,10.932985,226.49045,0.7388374,19.151762,225.48267,0.81789565,5.84622541,3.53139884,-1.10073721,-4.52724545
75,2500.0,29.522747,112.62372,0.3179382,31.18785,109.87721,0.12591106,30.982815,109.833015,0.18793353,27.47675,115.72113,0.41950223,37.411484,115.18173,0.48287883,19.212585,137.34787,0.9016842,46.74582,133.02513,0.93592304,0.0,149.72997,0.7813761,67.12604,140.93802,0.8952128,0.112831116,153.41452,0.6919397,86.075005,142.60045,0.8148927,20.154526,186.57773,0.90547514,33.654167,183.4036,0.9329056,16.127151,209.8923,0.7018119,24.08934,206.72827,0.7842471,16.62181,222.16608,0.41137695,22.683876,222.5447,0.47683915,7.44487961,5.45725909,-1.43604324,-4.8561647
76,2533.333333333333,493.2383,200.44496,0.23806044,493.5757,198.31961,0.047714766,492.71613,198.38022,0.26870027,487.6536,198.30353,0.060246907,489.5556,198.78503,0.65020233,478.4755,204.59846,0.8471539,481.02505,204.57582,0.94799125,478.04263,204.77457,0.5812223,479.8544,204.05536,0.93158615,491.288,192.89276,0.591691,489.6581,192.29095,0.8785926,448.5113,221.95581,0.94188863,450.58887,221.31361,0.9680187,451.7904,226.319,0.864133,459.29715,226.45767,0.9308756,417.5598,227.87677,0.78982544,429.24203,229.91237,0.8711686,1.50515015,-0.36723993,-1.24812448,-0.7568336
77,2566.666666666667,493.61124,196.65529,0.5939424,495.04593,194.80515,0.21029583,492.44168,193.97368,0.5854419,493.0752,196.57542,0.11165854,487.4252,194.23068,0.7159376,482.82,205.28947,0.9269426,476.13306,201.59569,0.9627841,481.32053,206.73447,0.72988766,469.91656,203.08621,0.9143114,488.67758,192.37169,0.73206955,485.18353,191.40294,0.87522954,451.82306,223.2729,0.94933534,446.85764,221.46587,0.9632813,462.44174,224.28174,0.8858673,461.51968,223.62996,0.9254809,430.81778,229.66103,0.8226252,432.5357,230.33719,0.8717303,0.92413672,-0.29723098,0.23876737,0.84182692
78,2600.0,492.55206,198.8351,0.26852325,493.54532,196.7811,0.06877435,491.85873,196.47551,0.2651882,489.5252,198.66644,0.063466676,487.83337,197.92819,0.50557035,479.5148,206.65312,0.83022916,477.2951,205.1669,0.9082682,476.4574,208.01367,0.6615588,472.65488,206.255,0.89070725,486.81857,193.26474,0.68477416,485.0929,192.69666,0.8523349,448.9924,222.40149,0.9188332,447.06567,221.23764,0.94161385,453.6656,225.94269,0.8145243,453.87662,225.76433,0.87510985,422.88834,227.1468,0.70572084,425.02692,228.733,0.7777626,1.57740897,0.67773577,0.36773122,1.37610575
79,2633.3333333333335,410.39096,168.57593,0.8390542,410.3656,166.47792,0.4703475,408.54663,166.60497,0.8499729,406.50516,167.27342,0.17281641,403.38263,167.5965,0.8794891,404.39453,178.05072,0.93754303,400.2495,179.9998,0.9796743,411.9536,194.32332,0.5797964,405.8886,199.12823,0.9184826,420.14066,204.82935,0.49524754,417.25693,207.30524,0.8244187,407.757,205.61255,0.7960136,405.1662,208.11899,0.88179904,431.09964,204.69217,0.38731387,430.14404,207.09543,0.5908399,431.42654,215.85484,0.220323,431.72318,218.89745,0.34747055,2.04218967,0.53747222,-0.67773577,1.84995581
80,2666.6666666666665,435.8509,211.33882,0.15067683,433.9143,210.49197,0.049581293,436.39346,210.89468,0.13452327,428.68307,211.41278,0.09399547,438.76025,211.24083,0.39914238,429.423,212.15686,0.8269902,443.77628,212.16832,0.84807485,448.97192,208.76735,0.71536636,468.8919,209.41214,0.8303945,480.34198,197.20457,0.6943828,488.58575,194.98221,0.7856935,442.92645,216.89929,0.9246913,450.95816,218.50305,0.9327788,470.65854,220.23547,0.8436112,475.0477,221.26312,0.87949646,476.65076,224.44458,0.76493156,479.85178,225.22186,0.80017424,2.43361611,1.7774904,-1.25672207,-1.08796365
81,2700.0,408.4368,168.09355,0.30751327,406.28986,165.56586,0.12248901,406.69702,166.06804,0.28048408,398.89993,168.07193,0.15364353,400.89526,170.6155,0.42065498,406.64044,184.88934,0.7572268,398.24847,187.72762,0.85670084,420.09396,205.11581,0.53507185,407.8219,208.24734,0.7757871,438.52878,202.73232,0.47936442,423.81747,213.71254,0.7028044,432.7959,211.95354,0.8592675,428.2748,216.98637,0.9008917,469.36407,216.37607,0.8180889,465.4299,218.41936,0.8797943,481.38583,218.98871,0.78066516,480.17828,222.45953,0.8302221,1.83660711,1.62617281,-0.67994658,-0.51610107
82,2733.3333333333335,409.3376,166.20114,0.4626249,408.15442,163.38351,0.17643924,407.431,163.85397,0.45000702,402.5017,164.37895,0.16432485,402.16843,166.33786,0.59562874,406.1416,179.8331,0.82729924,397.61115,182.00883,0.9291757,412.75574,204.05408,0.5992275,406.1255,205.73773,0.86934894,425.635,207.40738,0.5187245,422.30054,213.50693,0.7844332,425.46283,211.6734,0.8785583,420.65286,216.24951,0.9239811,461.14117,216.97775,0.7875798,458.28687,219.62119,0.87084466,469.66342,226.12546,0.7065886,470.9213,229.50081,0.7795578,1.45133315,1.44807987,-0.01866905,-0.09531043
83,2766.6666666666665,24.629433,114.35983,0.3287426,25.232897,111.93374,0.15651564,26.69864,112.00566,0.17661266,26.790556,117.14646,0.42345616,38.270523,116.50906,0.44336468,22.766842,136.4506,0.87935203,47.617043,133.58904,0.9541575,5.584297,149.76173,0.75340325,66.368164,142.10956,0.9234465,4.35598,145.65465,0.70296866,85.859146,138.53096,0.8600658,23.427477,180.27486,0.93306375,37.10931,178.88539,0.95833683,14.68697,202.10605,0.8292889,24.994936,201.15172,0.8917807,12.106911,221.85114,0.6130523,19.118345,222.54352,0.6967741,0.97073101,0.9639127,0.07909783,0.0832738
84,2800.0,29.445688,113.965836,0.3726399,29.568264,111.57493,0.15827711,30.730604,111.56917,0.23656163,26.37326,116.35501,0.42647746,39.03821,115.83694,0.58681136,20.84971,135.04997,0.9048914,47.078537,133.5122,0.97191614,5.298731,151.79303,0.7718046,66.97071,141.8767,0.9483342,1.8891869,162.37009,0.7042259,85.95505,137.88596,0.88907343,23.299387,179.37201,0.94974816,38.090675,178.71416,0.97201824,15.1355915,206.39554,0.850924,26.064747,206.31235,0.9144398,10.8732605,223.89555,0.63526773,19.938694,224.42508,0.72827274,1.13077104,0.93443525,0.61804393,0.15328275
