frame_id,timestamp_ms,nose_x,nose_y,nose_conf,left_eye_x,left_eye_y,left_eye_conf,right_eye_x,right_eye_y,right_eye_conf,left_ear_x,left_ear_y,left_ear_conf,right_ear_x,right_ear_y,right_ear_conf,left_shoulder_x,left_shoulder_y,left_shoulder_conf,right_shoulder_x,right_shoulder_y,right_shoulder_conf,left_elbow_x,left_elbow_y,left_elbow_conf,right_elbow_x,right_elbow_y,right_elbow_conf,left_wrist_x,left_wrist_y,left_wrist_conf,right_wrist_x,right_wrist_y,right_wrist_conf,left_hip_x,left_hip_y,left_hip_conf,right_hip_x,right_hip_y,right_hip_conf,left_knee_x,left_knee_y,left_knee_conf,right_knee_x,right_knee_y,right_knee_conf,left_ankle_x,left_ankle_y,left_ankle_conf,right_ankle_x,right_ankle_y,right_ankle_conf,acc_x,acc_y,acc_z,acc_mag
0,0.0,493.3153,97.44808,0.95641035,495.03268,95.13844,0.9245574,490.95328,95.51863,0.9153388,498.1791,95.46552,0.74206257,487.38583,96.374176,0.7113844,502.94604,106.587845,0.9943382,484.32645,108.10563,0.9959604,510.0342,120.64049,0.96321094,479.61325,123.4895,0.9649697,512.7122,135.57002,0.93521875,474.66922,137.51276,0.93247736,500.88437,135.71487,0.99533635,489.45322,136.39267,0.996033,501.15152,159.41132,0.985899,489.67548,159.9528,0.98605365,500.97345,182.34644,0.96626204,491.4969,183.16635,0.96671116,0.95585666,-0.22894155,0.91748572,0.13952661
1,33.333333333333336,493.09695,97.27633,0.95595354,494.85236,94.955986,0.92412734,490.72803,95.320145,0.9146441,498.04675,95.304596,0.74175566,487.14474,96.17369,0.7090519,502.85394,106.51603,0.99423075,484.01898,107.987076,0.99588156,509.85272,120.70474,0.96232784,479.175,123.53128,0.96418047,512.2973,135.68144,0.9336073,474.11804,137.93927,0.9309129,500.7054,135.76637,0.9952506,489.1377,136.41295,0.99595803,500.98926,159.51425,0.9857684,489.36465,160.0144,0.9859093,500.79276,182.55307,0.96622175,491.29196,183.30746,0.96661705,1.00725112,-0.30533728,0.9400851,0.19381425
2,66.66666666666667,492.73157,97.18197,0.9573474,494.5564,94.89,0.9273153,490.40292,95.21781,0.91618586,497.86832,95.347916,0.75116086,486.95465,96.136024,0.708058,502.6384,106.69194,0.99450535,483.87106,108.02041,0.99609923,509.36743,120.9429,0.9642847,478.88876,123.51959,0.96599436,511.84738,135.82954,0.9367945,473.60373,138.09831,0.9340922,500.35806,135.88138,0.99546283,488.8155,136.43967,0.9961533,500.75412,159.51233,0.9862482,488.9482,159.90643,0.9863832,500.6256,182.49948,0.9671234,490.70523,183.09058,0.9674849,1.03648198,-0.32130423,0.97668627,0.13092902
3,100.0,492.5541,97.18386,0.9559618,494.4548,94.89798,0.92747635,490.2623,95.17203,0.9116899,497.86502,95.321655,0.75901705,486.85812,95.97833,0.6922065,502.55112,106.647484,0.9944608,483.69733,107.74846,0.995795,509.10986,121.00021,0.9648626,478.7153,123.1631,0.9628513,511.3529,135.86429,0.93732345,473.71436,137.74509,0.9293981,499.67953,135.99768,0.9953934,488.0935,136.41669,0.9959473,499.9461,159.64224,0.9862816,488.22543,159.90045,0.98589593,499.5031,182.72296,0.9673374,489.87302,183.12927,0.9667839,1.07288865,-0.30951325,1.02311326,0.09236269
4,133.33333333333334,492.33563,97.15371,0.9540288,494.31015,94.88534,0.92649776,490.1013,95.1068,0.9064314,497.82315,95.3212,0.7641532,486.79733,95.845856,0.67710996,502.47012,106.69635,0.99428684,483.57898,107.546524,0.99542576,508.8218,121.21843,0.964262,478.6478,122.85661,0.9591622,510.8507,136.06616,0.93592304,474.01022,137.30997,0.9236839,499.0897,136.15793,0.99519926,487.51633,136.43185,0.99565387,499.1327,159.83281,0.9859772,487.7303,159.94397,0.9851762,498.46085,183.02463,0.9669025,489.4941,183.22069,0.96563387,1.05724453,-0.30288083,1.00960276,0.08204558
5,166.66666666666666,492.20535,96.95912,0.953013,494.2317,94.69861,0.9264255,490.0036,94.88483,0.90338516,497.80026,95.14156,0.76880556,486.73224,95.57566,0.66779345,502.48764,106.56082,0.9942246,483.30783,107.28321,0.99517655,508.77246,121.20094,0.9642433,478.33545,122.63484,0.95649254,510.48328,135.98093,0.9354587,474.15475,137.08978,0.9195115,498.73,136.19115,0.99503726,486.98657,136.38986,0.9954014,498.59952,159.97946,0.98548955,487.24716,160.01738,0.98430717,497.606,183.28876,0.9656722,489.10458,183.38257,0.96375585,1.0437334,-0.38296124,0.96587787,0.09899511
6,200.0,492.05673,96.83536,0.953247,494.1048,94.584816,0.9260123,489.86545,94.75275,0.90447944,497.69547,95.053764,0.7666864,486.60315,95.432304,0.67284966,502.37186,106.47774,0.9942697,483.04086,107.14569,0.9953185,508.4571,121.17848,0.96418077,478.04758,122.60466,0.9579386,510.29404,135.81284,0.93550795,474.2013,137.10231,0.92162126,498.62488,136.04446,0.9951231,486.8101,136.22815,0.99553776,498.56406,159.86154,0.98572785,487.29803,159.87375,0.98477083,497.4475,183.27776,0.96615744,489.28937,183.3224,0.9646127,0.98096611,-0.34267539,0.91478362,0.08966059
7,233.33333333333334,492.10712,96.63192,0.95259535,494.19437,94.402916,0.923871,489.9303,94.517,0.9048895,497.75354,94.96409,0.75959486,486.6144,95.19195,0.6789479,502.28723,106.55227,0.9939737,482.7894,107.07173,0.9951816,508.18698,121.34924,0.96152604,477.8009,122.712555,0.9568613,510.04044,135.78552,0.93111205,474.43918,137.3698,0.91914076,498.41357,136.47537,0.994669,486.55798,136.61302,0.99518013,498.2245,160.41904,0.9839702,487.52768,160.38019,0.9831859,496.81274,183.74435,0.9618514,489.77356,183.70686,0.9606314,0.97715354,-0.27610547,0.93517219,0.06362217
8,266.6666666666667,492.19592,96.507996,0.95213205,494.28915,94.28966,0.9213073,490.02432,94.37304,0.9057635,497.7958,94.89894,0.7503314,486.6472,95.03218,0.6870622,502.22638,106.63129,0.99372417,482.64462,107.021835,0.995181,507.87207,121.64107,0.9588853,477.64276,122.81352,0.9571099,509.60736,136.05301,0.9269283,474.5021,137.56036,0.9187705,498.32938,136.9032,0.9943973,486.47583,137.00485,0.99504566,497.9724,161.01865,0.9829032,487.77856,160.94267,0.98251814,496.4587,184.41618,0.9593192,490.35034,184.32364,0.9587916,0.94990787,-0.29133549,0.90176441,0.06534169
9,300.0,492.14233,96.44174,0.95217234,494.2733,94.21124,0.9209174,489.9474,94.28228,0.9065182,497.7968,94.8652,0.74745816,486.5192,94.96232,0.6899321,502.09998,106.72108,0.9935214,482.51807,107.053,0.9951013,507.5514,121.91464,0.9572342,477.6453,122.930756,0.95658463,509.24075,136.40717,0.92443246,474.80942,137.58383,0.91770947,498.23035,137.24153,0.99402136,486.39297,137.33221,0.9947635,497.69803,161.4729,0.98138934,487.88348,161.38617,0.98118263,496.0348,184.81854,0.9556616,490.55267,184.70624,0.9554722,0.96845025,-0.31442616,0.91232716,0.08179993
10,333.3333333333333,492.0548,96.43885,0.9509771,494.21884,94.20574,0.91924894,489.86166,94.26155,0.90461284,497.76785,94.89182,0.7446818,486.42615,94.94555,0.6869456,501.9686,106.80282,0.99322516,482.41013,107.08662,0.99484706,507.25436,122.04059,0.95516926,477.62405,122.9807,0.9543102,508.98706,136.41223,0.92120713,475.06406,137.43904,0.9140317,498.09988,137.39432,0.993686,486.2959,137.47496,0.99445575,497.43945,161.66093,0.98056525,487.92676,161.56538,0.98032814,495.69003,185.0189,0.9542733,490.6737,184.87949,0.9540433,0.94013686,-0.30828503,0.88407794,0.08499332
11,366.66666666666663,491.95526,96.512215,0.950663,494.14212,94.27092,0.9196219,489.76822,94.315796,0.90337974,497.7369,94.92753,0.7472201,486.34833,94.95546,0.6816971,501.97922,106.840675,0.99314743,482.34512,107.056244,0.9947049,507.24847,122.20906,0.9549605,477.57782,122.95813,0.9529264,508.7156,136.57639,0.92072654,474.97028,137.3565,0.91195303,498.0261,137.42383,0.9935515,486.151,137.4638,0.99428976,497.37128,161.6994,0.98025954,487.6573,161.56155,0.97983253,495.75897,185.06354,0.9537631,490.48312,184.86375,0.9531961,0.92156354,-0.30189825,0.86688276,0.08155429
12,400.0,491.80075,96.60422,0.9506714,494.00208,94.35411,0.92066735,489.6208,94.394936,0.902077,497.65982,94.94848,0.7513262,486.2305,94.97363,0.6744816,501.90726,106.81211,0.99320203,482.34277,107.00013,0.99461335,507.16608,122.290405,0.95585376,477.618,122.91612,0.9518671,508.4947,136.64749,0.92198586,474.91937,137.17279,0.91066986,497.95273,137.68309,0.9936504,486.0858,137.70445,0.99429977,497.41614,162.31114,0.9805382,487.53873,162.15916,0.97981745,496.02307,186.04596,0.9542734,490.30786,185.81628,0.95320195,0.97786439,-0.374118,0.8995536,0.08401074
13,433.33333333333337,491.87238,96.61007,0.9509829,494.06586,94.35266,0.91984445,489.67377,94.39522,0.9037927,497.6897,94.9252,0.74623984,486.2328,94.94857,0.6815059,501.89297,106.76976,0.9932079,482.29224,106.9639,0.99478215,507.14432,122.27243,0.9553578,477.53293,122.94829,0.95367867,508.58456,136.72461,0.92144614,474.8313,137.37625,0.91322917,497.93176,137.6915,0.99375993,486.06897,137.72107,0.99449253,497.271,162.35593,0.9808648,487.5735,162.21227,0.9804993,495.77316,186.16946,0.95499116,490.39468,185.9626,0.9545172,0.93613501,-0.4146495,0.83322933,0.10071463
14,466.6666666666667,491.91287,96.5808,0.95202875,494.08307,94.32266,0.92036563,489.6909,94.375,0.9062601,497.66327,94.89221,0.7441052,486.19522,94.93517,0.68840194,501.80887,106.709564,0.99337775,482.27023,106.91669,0.99502784,507.08765,122.206024,0.95627904,477.46045,122.86229,0.9561307,508.67194,136.74416,0.92320234,474.71487,137.2601,0.9171884,497.9096,137.66669,0.9939785,486.0982,137.71152,0.99475205,497.18512,162.40515,0.9812856,487.66046,162.28497,0.9811607,495.63544,186.29431,0.95549047,490.4481,186.1349,0.95542777,1.07686551,-0.21051814,1.03097391,0.22894155
15,500.0,491.84875,96.7317,0.9535566,494.203,94.58336,0.9241377,489.72815,94.41794,0.8986125,497.9261,95.37541,0.7635866,486.36813,95.00609,0.6337593,502.5886,107.54083,0.99305445,481.80063,107.36409,0.9939839,507.52927,123.07539,0.96784896,476.39792,122.535645,0.9626459,508.10962,136.3852,0.9486843,474.62994,136.3069,0.939558,498.36853,138.0705,0.9943446,485.85556,138.05064,0.9947655,496.6862,162.62732,0.9857795,488.0126,162.44919,0.98465216,495.6787,185.10376,0.9633353,490.782,184.62112,0.9607293,1.04033616,-0.33702554,0.9508935,0.25399738
16,533.3333333333334,491.8759,96.64507,0.953664,494.24878,94.49681,0.92516196,489.75644,94.317856,0.89786255,498.0065,95.294495,0.7671146,486.4051,94.88938,0.62833464,502.6729,107.527596,0.99297595,481.87912,107.20309,0.9938258,507.56543,123.32388,0.96775,476.3775,122.27614,0.96158785,507.95496,136.915,0.948463,474.53235,135.95445,0.938248,498.4018,138.04868,0.9941326,485.90128,137.9627,0.9945262,496.57755,162.68665,0.9851562,488.07913,162.44783,0.98383176,495.7103,185.23347,0.96159935,491.0825,184.66792,0.9585783,1.02423427,-0.31196971,0.89267553,0.39352399
17,566.6666666666666,491.9449,96.32648,0.9540591,494.29373,94.172554,0.9254653,489.80594,94.01013,0.89940333,498.01337,94.9984,0.76514983,486.39136,94.618576,0.63083464,502.7196,107.31338,0.9928981,481.80603,106.97088,0.9938046,507.68256,123.243835,0.96733975,476.16077,122.10341,0.9616462,508.43787,137.01144,0.94783664,474.30334,135.81564,0.9381417,498.4149,137.90762,0.9940316,485.84286,137.79842,0.9944581,496.38705,162.67969,0.9848797,487.5864,162.41342,0.98359805,495.77435,185.52235,0.960853,490.77444,184.95033,0.95789146,0.92522559,-0.1129969,0.90201005,0.17219745
18,600.0,492.08893,95.710175,0.95429564,494.37897,93.550026,0.92384565,489.91803,93.41379,0.90220916,497.96164,94.5009,0.7568048,486.36765,94.16574,0.6435216,502.69528,107.091415,0.992857,481.71384,106.80157,0.9939892,507.74338,123.18103,0.96644753,476.1607,122.15364,0.96308917,508.804,137.172,0.94649273,474.14908,136.04755,0.9395564,498.41415,138.0173,0.9940474,485.7892,137.92026,0.9945844,496.16888,162.85048,0.9847473,487.05945,162.59853,0.9838172,495.7502,185.80699,0.96041363,490.33005,185.30356,0.95809954,1.06108608,-0.13387676,1.04694086,0.10906658
19,633.3333333333333,492.2608,95.0083,0.9549236,494.56067,92.85368,0.92419547,490.10486,92.69993,0.90371794,498.0829,93.919716,0.7564385,486.48413,93.537506,0.6479011,502.73013,106.7675,0.9930455,481.7233,106.42292,0.99416566,507.85806,122.992325,0.96724886,476.3185,121.867096,0.96411276,508.75443,137.01552,0.94762206,473.89575,135.80588,0.9409539,498.19946,138.03078,0.9942399,485.53226,137.90428,0.9947654,495.87195,162.77022,0.98508644,486.5987,162.49954,0.9841797,495.99112,185.62717,0.96111625,490.24866,185.12701,0.95881313,1.12025907,-0.31000454,1.04964296,0.23901301
20,666.6666666666666,492.04645,95.02443,0.9541706,494.33957,92.82808,0.9229528,489.85904,92.69774,0.9025875,497.9084,93.70587,0.7517157,486.1955,93.38808,0.6436423,502.73077,106.356415,0.99283034,481.52777,106.128784,0.9940706,508.01337,122.532196,0.96661705,476.32242,121.74356,0.9641974,508.93024,136.23639,0.94696105,473.6524,135.65685,0.9411008,498.30768,137.82448,0.99424875,485.50458,137.71451,0.9948179,495.60513,162.51483,0.9854167,485.7344,162.23128,0.98462415,496.27472,185.56412,0.96227914,489.68497,185.05815,0.96020705,0.94375207,-0.24269769,0.90176441,0.13633322
21,700.0,491.71097,94.68243,0.95518625,493.99985,92.45061,0.9247338,489.4823,92.35181,0.90399265,497.6404,93.22142,0.7536907,485.83136,92.98456,0.64219177,502.6577,105.847015,0.99294454,481.22638,105.69507,0.9941579,508.1615,122.186035,0.96734303,476.04895,121.48578,0.96483094,509.35248,136.18279,0.9480643,473.4763,135.51466,0.9421187,498.2084,137.66116,0.9944147,485.2585,137.56819,0.99497014,495.53732,162.83047,0.9858832,485.31665,162.55403,0.98511755,496.21347,186.4161,0.9629818,489.17816,185.92401,0.96096385,0.91615241,-0.23262623,0.88432358,0.05649845
22,733.3333333333333,491.51376,94.49405,0.95990115,493.86044,92.15755,0.9337245,489.15543,92.151184,0.9184627,497.4263,92.756546,0.76549774,485.39545,92.79086,0.6820474,502.54105,105.1709,0.99367046,481.02206,105.465195,0.9952577,508.83517,121.31525,0.9711585,476.66977,121.746155,0.9713117,509.06622,134.88902,0.955188,474.24496,135.48445,0.95137453,498.06424,137.43309,0.9951449,484.82288,137.41951,0.9957581,496.24713,162.72333,0.98688483,484.7701,162.47658,0.98648596,496.20834,186.18419,0.96448696,487.74844,185.8677,0.9636679,0.917914,-0.23385446,0.88727133,0.02505583
23,766.6666666666667,491.154,94.16493,0.9589267,493.48154,91.82378,0.93373644,488.784,91.83576,0.9153184,497.1207,92.4288,0.7691429,485.10965,92.53341,0.66806835,502.53506,104.972115,0.9933948,480.87076,105.37094,0.99476504,509.11102,121.209595,0.97019243,476.58923,121.97496,0.96794003,509.4037,134.59949,0.9532836,474.24792,135.78079,0.9462917,497.84628,137.79745,0.9948264,484.48798,137.78549,0.99534273,496.35516,163.92606,0.9862277,484.43472,163.67384,0.9854424,495.98117,188.16118,0.9623246,486.7202,187.82028,0.96077144,0.95199778,-0.22501122,0.92485508,0.01768647
24,800.0,490.87152,93.600555,0.96210986,493.2398,91.30348,0.92956746,488.49683,91.280785,0.92282563,496.94275,91.95157,0.757082,485.03836,91.89036,0.718674,502.17554,104.54597,0.99479204,480.3647,104.9588,0.99653184,509.01093,120.53691,0.966023,475.83765,121.667694,0.9737231,511.29688,135.44716,0.9427591,473.18613,137.45343,0.9494964,497.57486,137.13066,0.9955194,484.19662,137.26434,0.9964766,496.26532,163.20926,0.98564607,484.67468,163.18575,0.9869257,494.57446,188.16867,0.9598571,485.7423,188.0681,0.9621336,0.95304713,-0.24245205,0.92043346,0.04814651
25,833.3333333333334,490.46625,93.3423,0.96221626,492.89023,91.02147,0.93223006,488.09018,91.001175,0.9209011,496.74573,91.630936,0.7682532,484.71396,91.59541,0.70381594,502.1353,104.244576,0.99490356,480.148,104.69729,0.99640745,509.09973,120.299805,0.96750647,475.6116,121.54048,0.9723098,511.3507,135.05676,0.94473106,472.9223,137.29977,0.94756156,497.4151,137.00247,0.99567884,483.8267,137.11389,0.9964946,496.2253,163.34909,0.9864911,483.59833,163.29033,0.98725057,494.77145,188.73503,0.962448,484.26083,188.57007,0.96363884,0.91365232,-0.2692274,0.87105873,-0.0594462
26,866.6666666666667,490.02847,93.1246,0.962219,492.49652,90.79785,0.933345,487.67035,90.79387,0.920274,496.47626,91.45851,0.7738127,484.4066,91.47926,0.6986366,501.92368,104.1496,0.9949379,479.9673,104.67085,0.99637324,508.91776,120.03075,0.96785754,475.50366,121.36853,0.9719274,511.29266,134.5742,0.945156,472.8705,136.8687,0.94701034,497.16843,136.84262,0.99571204,483.48773,136.95502,0.996496,496.2094,162.82498,0.98675764,482.54526,162.74936,0.9873956,495.14258,187.89177,0.96364945,482.84467,187.69322,0.96457213,0.94964103,-0.18423408,0.92780283,-0.08401074
27,900.0,489.87268,92.91673,0.96161366,492.31305,90.56745,0.93072945,487.4775,90.58542,0.9214222,496.2515,91.24818,0.76353097,484.1437,91.322685,0.70836663,501.7633,104.055786,0.9946779,479.64624,104.75312,0.996349,508.76358,119.888214,0.96508837,475.3569,121.81616,0.97191757,510.9355,134.29213,0.94079584,473.08655,137.6619,0.9461829,497.1893,137.11053,0.9954905,483.29773,137.29547,0.9964049,496.32733,163.09377,0.9859964,481.71304,163.08014,0.98704857,495.15222,188.03183,0.9620487,481.38705,187.92944,0.96380746,0.93308465,-0.27119257,0.89267553,0.01523002
28,933.3333333333334,489.57104,92.84586,0.9617272,492.0191,90.505844,0.9303888,487.18735,90.51207,0.9223577,495.95435,91.2249,0.76138544,483.85748,91.279045,0.7126222,501.4624,104.06743,0.9945931,479.3238,104.84469,0.9963432,508.56653,119.70257,0.96416813,475.22833,122.02524,0.9719615,510.463,133.86537,0.93939084,473.24237,138.12401,0.9459702,497.0013,137.40921,0.99531096,483.02402,137.62654,0.9962935,496.1982,163.40164,0.98507524,481.14362,163.40833,0.98633677,495.1157,188.17905,0.9594566,480.6475,188.10583,0.9616413,1.05466519,-0.27487725,1.01820035,-0.0054042
29,966.6666666666666,489.0752,92.88339,0.9604719,491.56897,90.53554,0.9296942,486.70322,90.510185,0.91879624,495.57187,91.25206,0.76379305,483.37173,91.21756,0.69981545,501.18243,104.15012,0.99438596,478.681,104.808495,0.99600804,508.36652,119.89892,0.9632062,474.25412,122.039566,0.9690169,510.06625,133.8987,0.9373546,472.6379,138.11588,0.94114244,496.80466,137.74875,0.9950487,482.59756,137.92484,0.9959751,496.07062,163.87993,0.98432446,480.84427,163.83865,0.98523533,495.13937,188.75082,0.9576584,480.67807,188.57254,0.9590647,1.22735851,-0.081063,1.21422541,0.15966954
30,1000.0,488.54428,93.12897,0.9608671,491.04822,90.76141,0.9311284,486.1649,90.72999,0.91798675,495.11487,91.34407,0.7683657,482.85532,91.301956,0.6925111,500.78577,104.12134,0.99448,478.23987,104.76417,0.99595743,508.19858,119.90578,0.96446335,473.84448,121.99095,0.96848565,509.71686,134.04959,0.9393339,472.4217,138.15411,0.94078076,496.5067,137.97662,0.9951141,482.27292,138.16205,0.9959643,495.9816,164.38327,0.9844114,480.87915,164.35362,0.98506343,495.12518,189.38861,0.9574522,480.86954,189.20416,0.95834476,1.40109427,-0.40899966,1.28030403,0.3957348
31,1033.3333333333335,488.57715,93.10567,0.96122205,490.956,90.721466,0.9279439,486.13068,90.708916,0.9214572,494.76666,91.21263,0.75030464,482.50806,91.18256,0.7107558,500.3078,103.85485,0.99450964,477.62408,104.58133,0.99624735,507.83557,119.64667,0.9639915,473.09253,121.97371,0.9713397,509.39108,133.78539,0.9393284,471.65363,138.16849,0.9452866,496.43735,137.81062,0.99545455,482.1403,138.10822,0.9963798,495.93054,164.44719,0.98564714,481.0435,164.56525,0.98673475,495.34396,189.82587,0.960702,481.40875,189.88275,0.9624882,1.07979912,-0.15672179,1.03220214,0.27561418
32,1066.6666666666667,488.207,93.05852,0.96277285,490.56723,90.69391,0.9301718,485.7855,90.68582,0.9239838,494.37695,91.23248,0.7540095,482.21017,91.2192,0.7158264,499.90732,103.91527,0.99476504,477.30508,104.631615,0.9964773,507.52145,119.794205,0.9657669,472.60284,121.95598,0.97321486,508.83344,133.84204,0.94229215,471.02988,137.96405,0.94860214,496.06232,137.7752,0.9955811,481.85373,138.09328,0.99651045,495.73627,164.4909,0.9856178,481.378,164.64565,0.98679906,495.25928,189.94975,0.9597782,482.17163,190.05731,0.96177113,1.0618552,-0.1886557,0.99289887,0.32572585
33,1100.0,487.6356,92.089874,0.9635102,489.9984,89.75998,0.9319894,485.29205,89.74243,0.9244404,493.8416,90.504326,0.7592003,481.86783,90.45822,0.7127999,499.3568,103.56865,0.9949321,476.87976,104.21175,0.9965581,506.92685,119.735695,0.96727115,471.8299,121.69255,0.97388214,508.89093,134.03214,0.94441736,469.71994,137.86023,0.94976807,495.4434,137.64499,0.995688,481.36115,137.93329,0.9965783,495.02826,164.44951,0.9857308,480.8645,164.59053,0.9867937,494.8397,190.09662,0.9596296,481.77832,190.18112,0.9613658,1.03926155,-0.33776248,0.8941494,0.40801708
34,1133.3333333333333,486.995,91.24394,0.9645145,489.25317,88.925964,0.9331773,484.68262,88.97057,0.92629254,493.0354,89.632065,0.75991327,481.40228,89.74655,0.7160284,498.58948,102.760025,0.995048,476.73935,103.54896,0.99674714,506.10376,118.981,0.9682349,471.6745,121.02295,0.97583777,508.80865,134.15775,0.9461128,468.49942,137.89868,0.95300126,494.96054,136.99847,0.99582505,481.31815,137.3355,0.9967525,494.42743,163.8203,0.9859869,480.33423,164.00198,0.98725235,494.73508,189.48987,0.95986897,481.1937,189.6536,0.96206516,1.05296808,-0.46205907,0.88088455,0.34537749
35,1166.6666666666667,486.15732,90.85302,0.9667472,488.36377,88.50343,0.9385359,483.83054,88.58804,0.92852515,492.2347,88.9274,0.7726362,480.64005,89.14963,0.7089707,498.00027,101.86992,0.99532557,476.23413,102.69246,0.9968713,505.75247,118.28724,0.9711368,470.88943,120.20271,0.9769957,508.5593,134.07303,0.95072466,467.30093,137.60321,0.95546055,494.64938,136.57709,0.9959073,481.06802,136.91069,0.9967853,494.01855,163.73505,0.9855664,479.60825,163.89664,0.9866498,494.887,189.48053,0.9569775,480.6711,189.61823,0.9588278,1.06040704,-0.37853962,0.94450672,0.29845921
36,1200.0,486.17847,90.21223,0.97017336,488.43326,87.85292,0.942491,483.7621,87.90314,0.9370735,492.2455,88.39319,0.7707021,480.28513,88.50933,0.7325622,497.6767,101.54719,0.9955479,475.62906,102.198006,0.9971922,505.4921,118.23324,0.9717819,470.1059,119.74698,0.9794714,508.40677,134.01038,0.9522812,466.8479,136.89865,0.9596225,494.09714,136.56812,0.9958566,480.34592,136.86731,0.9968502,493.5011,164.21542,0.98432237,479.47073,164.36612,0.98598844,494.24646,190.26416,0.95172834,480.77756,190.43579,0.9549446,1.12260538,-0.25006706,1.08329639,0.15549356
37,1233.3333333333335,486.15308,89.842545,0.97102195,488.40936,87.48964,0.94314235,483.7128,87.520325,0.93921626,492.1997,88.01071,0.7689295,480.16333,88.064926,0.73966295,497.50644,101.13329,0.99562484,475.43158,101.625946,0.99734855,505.05402,117.91936,0.9720891,469.46588,119.07586,0.98084396,507.92072,133.86902,0.95313936,466.31952,136.47075,0.9620155,493.87518,136.19814,0.9959836,480.14746,136.42305,0.9970113,493.00732,164.05873,0.98464775,479.33585,164.13263,0.9865368,493.4107,190.50119,0.95216703,480.53513,190.58846,0.9559609,1.09124588,-0.2264851,1.06045136,0.12233143
38,1266.6666666666665,485.2283,90.13806,0.96267074,487.84454,87.484245,0.9273213,482.5617,87.53009,0.9352124,491.82077,88.17834,0.68912816,478.4093,88.334595,0.74305904,497.3834,101.97183,0.9915454,473.13248,102.929855,0.9956441,505.538,118.534615,0.95463,468.21567,121.009155,0.9751346,506.77737,134.00081,0.9364407,465.8967,137.04591,0.9551955,492.93555,138.12433,0.9948716,477.90598,138.47192,0.9963231,492.17587,166.29965,0.98765475,478.37012,166.40808,0.9896814,490.87067,192.51355,0.9682414,479.77838,192.74536,0.9724258,1.05153034,-0.18497102,1.02458713,0.14738726
39,1300.0,485.2629,89.62915,0.9655943,487.67834,87.13138,0.93834394,482.70422,87.17318,0.9220018,491.76248,87.574104,0.7724251,478.8751,87.66931,0.6691084,497.46588,100.79678,0.99504083,474.09805,101.20828,0.9963213,504.48438,118.20726,0.97516465,467.5153,118.75209,0.9762889,507.12387,133.16315,0.9595989,464.752,134.48508,0.95821744,493.41183,136.58174,0.9963433,479.29327,136.73119,0.9969399,490.55365,165.56575,0.9893713,479.3212,165.52834,0.98934525,490.81122,193.48935,0.9662229,482.82175,193.34749,0.9655794,0.9330623,-0.10243415,0.90741425,0.19160344
40,1333.3333333333333,484.77368,89.261604,0.9650728,487.20074,86.71684,0.93786174,482.18405,86.80633,0.9206024,491.3647,87.15488,0.772567,478.39163,87.37756,0.6651923,497.22617,100.5732,0.9948973,473.7882,101.16831,0.99619776,504.2756,118.233444,0.9744459,467.4318,119.00487,0.9755642,506.7865,133.61949,0.9583728,464.77533,134.85492,0.9569386,493.33066,137.0857,0.99614125,479.20453,137.29343,0.99677074,489.641,166.38585,0.9884262,478.6604,166.40784,0.98839146,489.71884,194.34605,0.9627576,482.19135,194.29474,0.96208215,0.78965626,-0.19848152,0.71335436,0.27438596
41,1366.6666666666667,484.51764,89.51318,0.9632302,486.90085,86.900925,0.9340232,481.7897,87.03375,0.9175827,490.9825,87.205574,0.76119614,477.76526,87.54204,0.66136384,496.89072,100.515434,0.9944617,473.35916,101.22873,0.99583036,504.1426,118.18317,0.97217125,467.1784,119.018845,0.9734524,506.6707,133.8049,0.95495754,464.3275,134.55061,0.9537048,492.93536,137.10757,0.99582964,478.7727,137.3614,0.9964953,488.93643,166.30841,0.98771393,478.13287,166.4107,0.9876787,488.34097,194.27182,0.9610231,480.98453,194.3583,0.96034104,0.65364207,-0.04077714,0.57702114,0.3043547
42,1400.0,484.10635,89.214264,0.9676349,486.6059,86.51982,0.93723035,481.28885,86.72843,0.9411661,490.7763,86.974915,0.73630315,477.21848,87.4983,0.76762766,496.6049,100.70757,0.99491876,472.45352,101.91627,0.9974292,504.75745,118.04222,0.9657875,467.13382,120.52496,0.9814596,505.8447,133.3075,0.94560164,464.68793,136.58522,0.96228766,492.548,137.99347,0.99625516,477.69525,138.48553,0.9974183,489.92368,166.76878,0.9876652,478.31467,167.10774,0.9900283,487.0895,195.00357,0.96463317,479.9176,195.52814,0.96968126,0.81363684,-0.07688702,0.72146066,0.36822251
43,1433.3333333333333,483.6945,89.4073,0.9674388,486.19904,86.70363,0.937123,480.86566,86.931046,0.9411506,490.4045,87.19842,0.7353971,476.8195,87.78107,0.7665961,496.35425,100.963554,0.994745,472.11002,102.27736,0.997317,504.70416,118.26741,0.9644065,466.92764,120.973404,0.98059756,505.85153,133.66147,0.94326127,464.6851,137.2461,0.96051973,492.4459,138.19417,0.99600166,477.4377,138.73553,0.99723285,490.61865,167.01672,0.98672456,478.0962,167.38101,0.9892786,488.10583,195.25143,0.9624001,479.62955,195.79453,0.9677894,1.01943526,-0.21076379,0.87228696,0.48367587
44,1466.6666666666665,483.44766,89.97436,0.9674607,486.1152,87.219955,0.93895215,480.6146,87.41663,0.9397555,490.4066,87.84958,0.7300703,476.289,88.33544,0.74514925,495.78433,101.627365,0.9936469,471.22348,102.82674,0.99647707,503.9828,118.56273,0.96444535,465.76324,120.97763,0.9768991,505.51544,134.3419,0.9475717,464.65497,136.51472,0.95761514,491.68274,138.28899,0.99543977,476.44153,138.77429,0.99660814,490.53647,166.94592,0.9869457,476.74637,167.21176,0.9885493,489.6889,193.84915,0.96275514,479.5795,194.32542,0.96646,1.09318121,0.01424744,1.07715525,0.1859536
45,1500.0,482.99207,90.81323,0.9671578,485.62216,88.03466,0.93928957,480.17746,88.26748,0.9385839,489.95273,88.386055,0.73356867,475.93677,88.96476,0.73999417,495.59625,101.872696,0.9937285,470.68076,103.286995,0.996394,504.01553,118.827194,0.96528405,465.22305,121.6797,0.97615266,505.5583,134.98666,0.94808686,464.54745,137.40929,0.95625854,491.64676,138.93456,0.99541616,476.15564,139.54802,0.9965217,490.69882,167.8251,0.98651785,476.40717,168.23303,0.9879568,489.7081,194.73656,0.9606887,479.02042,195.37778,0.96415085,1.09759204,-0.35348379,1.00493549,0.26431449
46,1533.3333333333335,482.21548,92.30844,0.9589349,484.84433,89.43056,0.9231814,479.34885,89.59578,0.92793226,489.3116,89.23363,0.6641942,475.3037,89.70451,0.7014589,496.43054,102.4355,0.988847,470.14874,103.62779,0.99376595,505.73923,119.77663,0.94679946,464.9407,122.57182,0.9688119,505.97427,134.84058,0.9277216,463.97537,138.63171,0.9474234,491.96094,140.51494,0.9938067,475.79407,140.90884,0.995359,490.65735,169.35266,0.9862278,476.59406,169.38896,0.98817015,488.09497,196.29468,0.9660402,479.0042,196.30792,0.9699509,0.98805598,-0.33579732,0.90937942,0.19111215
47,1566.6666666666667,481.62262,93.276115,0.9676379,484.21722,90.4175,0.94265395,478.75037,90.67701,0.93445885,488.80594,89.7799,0.76958805,474.9512,90.53901,0.7216728,495.8269,102.35869,0.9954631,470.05695,103.80849,0.9972856,504.12268,119.844986,0.97568524,464.68692,122.27739,0.98242307,505.23145,136.15219,0.9610725,463.3065,138.65317,0.9665168,491.70596,139.91876,0.9972045,475.72922,140.49574,0.9978817,490.735,169.22504,0.9920415,475.81705,169.50487,0.99286145,488.78976,197.90051,0.97482,477.4107,198.19505,0.9766615,0.88195194,-0.21887009,0.85312661,0.0459357
48,1600.0,481.21896,94.0712,0.96648973,483.76465,91.19362,0.940758,478.32272,91.53961,0.9327664,488.3478,90.67532,0.76652217,474.53525,91.664154,0.72184134,495.618,103.32031,0.9953055,469.74222,105.1013,0.9971264,504.3527,120.51671,0.9744502,464.54962,123.29669,0.9811809,505.07626,136.6596,0.9588206,463.33072,138.7871,0.9642281,491.70627,140.49101,0.99698573,475.61847,141.23027,0.99769235,490.84335,169.27649,0.99131536,475.75772,169.7506,0.99217457,488.6932,197.28117,0.97286993,477.3267,197.85062,0.9747788,0.84423849,-0.00958017,0.84403773,-0.01572131
49,1633.3333333333333,480.36578,95.41901,0.9661682,482.97827,92.46789,0.9422093,477.3982,92.84624,0.9308233,487.7055,91.86233,0.7764986,473.63083,92.95419,0.71067613,495.35165,104.53319,0.99536043,468.8762,106.474014,0.99701643,504.10696,121.95587,0.9745301,463.46542,125.05351,0.9796627,504.63577,138.42432,0.95824754,461.70517,141.27039,0.9615455,491.46805,141.42671,0.99698997,475.04373,142.21027,0.9976319,490.86383,170.04291,0.9915291,475.35828,170.52892,0.99213797,488.4416,198.00497,0.97407997,477.1536,198.54205,0.9753469,0.93633623,0.09285398,0.92903105,-0.07074589
50,1666.6666666666667,478.9559,97.82031,0.96217686,481.43533,94.794754,0.93881017,475.9678,95.29937,0.9234852,486.41116,94.01406,0.75448656,472.29678,95.33705,0.6811305,494.5015,106.31028,0.99357784,468.19965,108.28785,0.9953766,504.7403,124.3497,0.9604912,463.18732,127.47856,0.9623985,504.93,141.20682,0.93305546,461.19373,142.5473,0.9297492,490.4441,142.73663,0.99433064,474.07718,143.4039,0.995168,490.55768,171.93951,0.98118055,474.2715,172.3521,0.98156667,487.55594,200.01103,0.94825864,476.10928,200.57669,0.9497328,1.12529626,-0.02800358,1.09115704,0.27364902
51,1700.0,478.49182,99.70001,0.964273,480.87857,96.664024,0.9364239,475.368,97.14136,0.9324698,485.56564,95.472984,0.7249352,471.3217,96.68624,0.72146744,493.22333,106.95436,0.99368906,467.00537,108.81153,0.9961414,503.76038,124.87781,0.9598185,462.20065,127.72519,0.9706166,504.92377,142.67616,0.9334192,460.2309,143.07193,0.9425799,489.43277,142.69073,0.9946795,473.20718,143.44138,0.9958616,490.21375,172.13199,0.9813772,474.76028,172.66566,0.9835044,486.9382,200.07298,0.9470037,476.44977,200.85266,0.95214146,1.08445153,-0.12699869,1.03908021,0.28322919
52,1733.3333333333335,477.38162,101.40656,0.9659981,479.86563,98.40411,0.9425846,474.31213,98.84797,0.93229896,484.80267,97.24449,0.7526038,470.525,98.41193,0.7076955,492.63202,108.54336,0.9942678,466.69647,110.210106,0.9962218,503.54932,126.07538,0.9650406,461.8864,128.37717,0.9708181,504.6333,143.01668,0.94114417,459.94727,142.8302,0.94399345,488.77545,143.8399,0.9947924,472.79172,144.44208,0.9957885,489.73572,173.09552,0.9805132,474.88995,173.43439,0.98201066,486.65067,200.68433,0.9426745,477.2307,201.16888,0.9466559,1.06030096,-0.14763291,1.00247904,0.31221535
53,1766.6666666666665,476.1444,103.23415,0.9650494,478.6725,100.20388,0.9474537,473.106,100.75243,0.9249049,483.86102,99.190216,0.7889688,469.6157,100.66937,0.66718775,492.3918,110.59535,0.9944654,466.37555,112.465195,0.99566597,503.6696,127.64926,0.9679037,461.07562,129.68028,0.9644159,503.98828,144.57596,0.943942,458.49426,143.54807,0.93450004,488.7998,145.10596,0.9945247,472.7464,145.69089,0.9951438,489.4864,173.29407,0.97981185,474.17233,173.564,0.9793513,486.59674,200.20502,0.9424575,477.23947,200.55197,0.9422396,1.02294872,0.04004021,0.94671752,0.38541769
54,1800.0,474.73242,105.55486,0.9657646,477.33707,102.512314,0.9505202,471.76068,103.04995,0.92422074,482.8583,101.423676,0.80327487,468.5501,102.888756,0.65658104,491.93457,112.592636,0.99487275,465.4441,114.51259,0.99588,503.51352,129.17624,0.97057897,460.24603,131.73586,0.96541125,503.9592,145.03246,0.94832546,457.96527,145.7156,0.93680674,488.53622,146.22159,0.9951351,472.26367,146.77045,0.995637,489.513,173.77832,0.98282856,474.0423,173.93561,0.98213595,486.4321,200.51999,0.95238024,477.74158,200.63876,0.9515676,0.97896097,0.06706121,0.89537763,0.39008496
55,1833.3333333333333,475.00763,107.020615,0.96686137,477.4165,103.97951,0.9433674,471.84665,104.53909,0.9359922,482.29987,102.72908,0.75236094,467.99246,104.18045,0.7262598,490.78082,113.406,0.99467397,464.09497,115.44399,0.99677545,502.55164,130.03789,0.9659529,458.42462,132.87735,0.97490716,503.22705,146.94736,0.942386,456.00555,147.90341,0.9502791,487.73218,145.71753,0.9954946,471.43137,146.52643,0.9965373,489.2434,173.14296,0.9842998,474.86386,173.63908,0.98614305,485.4003,200.0995,0.956811,478.60162,200.78728,0.960959,0.99562988,-0.05084861,0.89242988,0.43847711
56,1866.6666666666667,473.8382,108.747955,0.965719,476.34335,105.64876,0.9452942,470.7619,106.19263,0.9305959,481.598,104.04584,0.7683827,467.27448,105.487526,0.69634694,490.35382,114.50704,0.9943382,463.68997,116.537155,0.99626154,501.918,131.53294,0.9647535,457.34628,134.44727,0.97005,502.48676,149.62843,0.9391348,454.1495,151.4911,0.9418676,487.56815,146.98416,0.99493945,471.44894,147.7851,0.99591297,489.28067,174.74976,0.98247796,475.87537,175.2036,0.98368526,485.05902,201.56216,0.95231766,479.99362,202.06755,0.9551331,0.98378058,-0.115699,0.8725326,0.43945969
57,1900.0,472.80554,111.32216,0.96455306,475.38245,108.20308,0.94978154,469.8266,108.73555,0.92109185,481.05902,106.27628,0.79909754,466.69568,107.670715,0.6407233,490.11905,116.09584,0.99450386,463.49164,117.89975,0.9955427,501.55646,133.2674,0.96912104,456.26215,135.73904,0.9629615,503.09,151.41785,0.94478923,452.49222,153.04395,0.93213433,487.46558,147.1867,0.99504,471.43124,147.81337,0.9955083,488.7067,174.59077,0.98401076,475.07065,174.84616,0.9830497,485.2424,201.59872,0.9570372,479.8273,201.74686,0.9554582,1.05085775,-0.19455119,0.937383,0.43331856
58,1933.3333333333333,473.38162,114.58158,0.96968204,475.9005,111.513756,0.94916874,470.27545,111.981964,0.9410785,481.14017,109.48649,0.7632776,466.61368,110.62772,0.73020434,489.52023,118.6959,0.9948131,462.51746,120.2952,0.996931,501.17053,135.71938,0.96773994,454.32706,138.21504,0.97668695,503.0511,154.0289,0.9437393,449.99026,156.80505,0.9524474,486.97046,148.11731,0.9952237,470.78973,148.80518,0.99635077,488.65485,174.50803,0.98250246,475.66095,174.84396,0.98444647,485.31107,200.55522,0.95056695,481.58224,200.93303,0.9548042,0.98924889,-0.23311752,0.90372957,0.32793666
59,1966.6666666666665,473.4589,117.2046,0.9712663,475.89346,113.972244,0.94796,470.0972,114.582825,0.94849014,480.8275,111.71185,0.73529416,465.59232,113.132126,0.7659608,488.4065,120.47055,0.99425644,460.78204,122.86072,0.99681336,499.759,137.46228,0.96335995,451.9004,141.83296,0.97647095,502.69315,157.06827,0.9361124,448.4916,161.87569,0.9505507,487.36337,149.49188,0.9935539,470.68982,150.78902,0.9952291,489.16064,174.29352,0.97349656,475.76376,175.30707,0.97723615,486.72656,198.97299,0.92477775,483.06033,200.2941,0.932739,0.9944944,-0.19848152,0.94205026,0.24933012
60,2000.0,471.93692,120.41467,0.97297454,474.57837,117.08403,0.95625955,468.57608,117.85867,0.9473712,480.30713,114.492004,0.778861,464.68085,116.41063,0.7381709,488.6468,122.43312,0.9946444,460.8228,125.71866,0.9967359,500.28864,138.18004,0.96854246,451.31964,144.95341,0.97579396,502.9635,156.46513,0.9443875,447.3535,166.38242,0.9505412,488.6036,150.85353,0.99355423,471.7939,152.34816,0.9949883,488.29294,174.96922,0.9723169,474.25027,176.0149,0.97440344,487.48184,198.65805,0.9198605,483.5315,199.91023,0.92440647,1.02897597,-0.18153198,0.82021012,0.59421632
61,2033.3333333333333,471.60306,123.77786,0.9733599,474.10294,120.497894,0.955754,468.08505,121.11359,0.94658726,479.603,117.45573,0.77893525,464.20038,119.04962,0.73232484,488.75015,124.79869,0.99521446,459.95206,127.24805,0.9974674,500.0566,141.13173,0.9742535,449.49887,145.74995,0.9836211,500.80954,159.12672,0.95753455,445.96475,167.33603,0.967005,488.03366,151.32437,0.9950158,470.86758,152.4205,0.99640036,489.1084,176.27687,0.98066485,475.3755,176.89255,0.9834062,483.98196,199.88104,0.9366492,480.70865,200.53693,0.9434192,1.0535411,-0.24638238,0.88235842,0.52027704
62,2066.666666666667,471.35483,126.56998,0.9738273,473.85944,123.324356,0.9521998,467.87695,123.84024,0.95272756,479.08798,120.11131,0.74644023,463.83868,121.43437,0.7726962,487.7711,127.04166,0.99494416,459.21924,129.31409,0.9978223,499.56445,142.76248,0.970564,448.54117,147.42953,0.9868003,500.86517,159.715,0.9528478,443.11496,168.83884,0.97186637,486.87006,153.05118,0.99506396,469.99084,154.1472,0.99682045,488.79907,177.38045,0.98045784,475.6843,178.00711,0.98516536,484.36627,200.08737,0.9368603,481.59412,200.79169,0.94824976,1.07073624,-0.23729349,0.92976799,0.47507828
63,2100.0,470.8093,130.52525,0.96599203,473.27545,127.121506,0.94841313,467.2058,127.74327,0.932156,478.61316,123.20119,0.76435745,462.9488,124.71622,0.68177664,487.9956,129.08627,0.99356467,458.31277,131.40666,0.9958307,499.4265,146.27736,0.96753883,447.38623,150.00676,0.97240555,501.4011,164.4847,0.9450245,441.2614,169.482,0.9480096,487.64685,152.4394,0.99344254,470.1479,153.63765,0.99470514,488.63644,175.03531,0.9800275,475.02097,175.86176,0.9807865,484.89114,199.62427,0.9424245,482.2803,200.48544,0.94378185,1.02148879,-0.19283167,0.90053618,0.44191615
64,2133.3333333333335,469.48407,133.9803,0.9681419,472.24973,130.68567,0.9619919,466.20523,131.12576,0.92271096,477.9079,127.41867,0.8427373,462.50424,128.48157,0.59481674,487.04364,133.9969,0.9946313,458.2262,135.65143,0.9944299,498.6659,152.19405,0.977029,446.10895,154.57986,0.95741665,502.30118,173.13608,0.95521194,438.22116,176.76154,0.92483675,486.92435,155.31259,0.9920968,470.10593,156.20842,0.9917019,487.92477,177.94696,0.9722844,475.63605,178.46057,0.9647288,485.88522,199.77594,0.9158873,484.89795,200.05698,0.89971876,0.74446874,-0.10882093,0.63695862,0.36969639
65,2166.6666666666665,468.39975,136.9219,0.9641285,471.09723,133.734,0.948798,465.09155,134.09854,0.91817063,476.5348,130.4843,0.76107395,461.27847,131.22688,0.60239,486.83,136.62027,0.98933315,456.15375,138.00438,0.9907504,499.00446,154.51549,0.9506649,444.39966,156.56723,0.93593234,501.2384,174.29552,0.91739184,438.486,176.07668,0.8939464,489.56555,158.24133,0.9788163,470.57327,159.03099,0.9792991,489.02008,173.27408,0.9315922,469.1558,173.48071,0.922401,488.98495,199.72862,0.83175313,477.17807,199.5684,0.8190685,0.54272573,-0.03070568,0.39499787,0.37092461
66,2200.0,50.71463,134.63426,0.21307345,48.515915,131.89441,0.03888257,50.74685,132.2729,0.21074736,34.99162,129.42447,0.104473084,46.736538,130.76984,0.67551136,23.868778,134.75188,0.8068947,45.18009,137.90826,0.9694531,9.553869,147.75824,0.67854655,66.17844,144.44942,0.9698027,9.845036,164.1364,0.6603569,87.33445,145.75952,0.9324329,22.53916,176.50676,0.9619556,33.35193,178.00446,0.98455715,19.269035,204.9671,0.9108088,25.64468,206.22719,0.9621508,14.267052,227.78712,0.78382814,18.369226,228.27518,0.86742544,0.50080479,-0.01154534,0.45346148,0.21223766
67,2233.3333333333335,466.72766,145.0763,0.9668368,469.20468,142.07896,0.93023646,463.8678,142.94751,0.925221,474.89877,138.6388,0.76084214,459.432,140.54605,0.72048944,483.8876,144.63747,0.9862809,456.0407,147.9878,0.9868715,498.57016,161.28983,0.9464133,441.70767,164.79083,0.94631517,502.55823,188.51495,0.91245586,434.28058,191.79913,0.9135135,488.50592,162.09877,0.9748873,471.34238,164.40897,0.9749117,490.05624,176.42409,0.92834747,471.05432,179.92114,0.9304465,496.036,195.18225,0.8286258,479.142,197.97635,0.83652747,0.5844271,-0.24417157,0.43405549,-0.30582857
68,2266.6666666666665,466.13162,151.02219,0.9687271,468.76135,147.46854,0.9318531,462.47888,148.24408,0.93680537,475.29538,143.51039,0.7532937,456.72202,145.40784,0.7535223,484.21848,150.5501,0.9852668,452.94147,152.90768,0.9876736,497.40967,170.25122,0.94015247,438.34882,172.47826,0.95114297,500.25507,199.7562,0.8961429,433.585,201.06725,0.9132478,490.27017,163.70226,0.9713163,470.00452,165.79298,0.97429454,494.31372,185.00903,0.90535396,467.4278,188.15541,0.9129859,500.9775,198.91971,0.7662581,473.98068,201.97247,0.77707195,0.29351773,-0.08818671,0.06853508,-0.27143821
69,2300.0,36.807293,131.46977,0.10055074,35.06283,128.99934,0.023129277,37.91321,129.32301,0.078786895,26.943737,128.81194,0.10492016,41.243057,129.40523,0.43064252,20.758911,137.07442,0.6802973,44.226303,137.33063,0.9326901,7.338627,146.89612,0.601,65.719666,142.4712,0.9485759,6.9296474,149.4341,0.60301334,87.657616,142.70403,0.90117824,21.843487,178.98842,0.9318195,34.15918,179.16939,0.9706999,14.638486,203.83185,0.8451492,23.389313,204.92426,0.93021053,8.284885,224.03653,0.6658115,14.2510805,226.91328,0.7815694,0.1975052,0.0675525,-0.1778473,-0.05305941
70,2333.3333333333335,462.56497,160.81245,0.96213436,465.863,157.44838,0.9294696,459.4095,157.27475,0.91531825,473.30405,154.21465,0.7664615,454.09985,154.10791,0.6780158,484.22104,160.5487,0.98315537,447.38092,162.76688,0.98247105,494.50278,186.85472,0.9414937,431.42206,193.37567,0.93257993,493.96918,208.48615,0.8940513,423.8677,221.92322,0.88055986,488.4003,172.76392,0.958871,462.9276,173.52112,0.9567807,496.04144,203.71162,0.8467948,451.5572,200.44525,0.83936995,502.20956,222.96805,0.60338736,452.16077,215.93083,0.6045434,0.75733967,-0.15966954,-0.49472992,0.55073708
71,2366.6666666666665,461.4555,166.73378,0.8506858,462.66724,163.20567,0.7478461,457.89944,164.1833,0.74557996,466.77667,158.88431,0.50456274,454.308,160.98253,0.51328635,477.1986,161.54709,0.97098184,452.59918,163.743,0.9778334,484.8881,185.82265,0.889828,455.64816,187.22353,0.91974217,484.6808,208.05817,0.82266736,467.91788,202.70468,0.861311,485.1495,168.0463,0.9638825,468.7242,169.6098,0.9710589,492.30157,190.25957,0.90692115,469.29462,191.39993,0.92063856,496.64227,205.88518,0.7913037,477.7027,206.96408,0.810147,2.37509343,0.18693618,-1.70477935,1.64312235
73,2433.333333333333,467.7284,182.89493,0.1364113,471.749,179.25914,0.074678935,466.40723,177.87436,0.11536429,474.3714,177.26218,0.039495688,464.3598,173.96552,0.10087041,472.18753,187.29544,0.15697266,456.0998,184.34288,0.1978136,478.86673,212.00017,0.07365863,447.49673,213.26515,0.12723401,487.10175,212.80925,0.10171222,450.27783,226.99576,0.14410855,455.52634,215.11871,0.18569367,446.0574,213.9441,0.21171254,465.51407,172.79141,0.50230825,459.06372,171.30196,0.56003267,459.18222,231.5067,0.75314337,461.95328,229.20229,0.7813844,1.75613005,1.24247463,-1.12481047,0.52445301
74,2466.666666666667,458.9058,196.51552,0.61493,463.05743,192.15923,0.6084847,454.65643,191.89949,0.6028008,468.6967,191.5677,0.31075877,446.4074,190.9,0.3055383,477.60196,203.9878,0.6754146,434.98178,204.40561,0.6368653,493.79126,223.03603,0.47183117,424.61426,225.44066,0.41630197,489.4715,212.5192,0.38984498,426.79593,217.94814,0.34453487,471.02658,232.72672,0.1967474,442.10342,233.22452,0.18328099,486.1094,220.03824,0.04328189,440.6765,220.24164,0.040581208,485.9654,229.20546,0.028173093,441.274,229.22435,0.026929043,1.3437033,0.97865143,-0.31909343,0.86368937
75,2500.0,453.14713,209.07957,0.8416017,458.1504,204.33678,0.87638396,448.627,204.64043,0.8221527,466.60165,198.60368,0.5797145,441.92548,199.11398,0.41973302,479.31744,201.11404,0.87462753,429.35095,204.06468,0.86061656,499.90732,215.46764,0.7936517,417.97098,222.04268,0.7272378,499.95538,221.26086,0.7107177,420.26227,226.75275,0.6428137,475.21362,220.06339,0.4935825,442.093,221.79202,0.48441988,482.01935,224.85367,0.091033734,437.14038,226.17859,0.08198219,481.4608,228.47385,0.031952012,444.60342,229.92761,0.029740795,1.41967156,0.95605205,-0.38345253,0.97693191
76,2533.333333333333,35.404045,126.16611,0.05890949,33.553715,123.47034,0.024082126,37.31898,123.94151,0.0361073,26.677784,124.04468,0.13988543,43.60112,125.15436,0.22117457,21.68411,133.83987,0.628726,46.02827,135.26958,0.7728168,7.4075336,149.31082,0.5562282,53.666977,146.6216,0.75175166,4.8050995,158.74524,0.49668273,58.467945,145.07982,0.6536827,21.235752,175.28448,0.90667385,35.446625,175.75954,0.9291713,18.134657,199.87872,0.87101436,27.741467,201.58197,0.90359914,12.041519,222.44696,0.78001004,18.03722,224.78741,0.81603724,2.03024911,1.29995567,-0.0940822,1.55665515
77,2566.666666666667,45.41079,114.37295,0.7011362,46.84567,112.65251,0.5366761,43.428036,111.63335,0.56334627,45.870193,117.45419,0.31277242,37.300163,115.197235,0.3862024,47.53602,134.50136,0.85622025,25.158772,129.93573,0.8106586,54.002716,149.05069,0.7231411,8.641052,138.45273,0.6165116,59.939896,155.44392,0.6846544,9.453452,142.56311,0.61248785,35.32804,174.3753,0.83418876,21.623371,172.80678,0.7976461,34.387424,183.48073,0.7724819,23.763065,182.71494,0.7356994,23.781025,216.10306,0.65639,15.337488,214.808,0.62701005,1.06307882,0.83347498,-0.05502458,0.65759284
78,2600.0,32.20235,121.82503,0.07086893,30.744349,119.14133,0.026546909,34.223198,119.487724,0.044683963,25.30054,120.79355,0.1522638,42.10544,121.37372,0.27189663,21.372686,134.01633,0.62779886,45.377766,134.0775,0.8276354,7.1912365,149.629,0.52029854,55.921345,149.17241,0.8040575,6.5317593,151.95724,0.46856648,65.23634,155.1497,0.6966278,22.022068,180.18822,0.8605479,36.600933,179.87796,0.9087021,15.181749,208.1626,0.74251133,29.930965,206.772,0.82463646,12.158287,226.24176,0.55401456,26.296883,224.61124,0.63377297,1.45489199,0.91232716,-0.01768647,1.13316241
79,2633.3333333333335,49.63453,125.085434,0.20620011,47.65799,122.3338,0.048064653,49.85209,123.24106,0.18249182,34.799686,123.86893,0.14369556,48.623264,126.3295,0.6145496,24.002628,134.07814,0.8135839,47.255577,138.79988,0.9548017,9.565907,144.12025,0.6819244,58.55161,147.31648,0.942902,6.67704,145.75897,0.641401,70.690056,144.0598,0.88569736,21.212946,176.19212,0.94990015,33.91446,178.36522,0.97440505,17.286139,204.95773,0.88664603,25.203543,208.68088,0.9391736,16.98129,225.66995,0.7334607,18.137833,229.63985,0.8090198,4.15357701,1.42032193,-0.41833418,3.88070665
80,2666.6666666666665,29.02666,126.487015,0.10875309,27.677551,124.15662,0.03421724,30.54412,124.29697,0.064025216,23.886017,125.48335,0.15792504,38.046234,125.49472,0.32173097,21.617453,136.36546,0.7390828,43.3471,134.58955,0.91854453,8.773376,148.67186,0.67343765,58.354908,142.88322,0.9279715,7.947708,147.62633,0.649511,72.11892,142.01884,0.8751535,23.805141,177.8311,0.94514084,35.48651,176.80966,0.9709942,17.679314,203.98746,0.88260955,24.955322,203.22794,0.9379406,8.87916,225.61134,0.73229504,12.567753,226.47453,0.81488985,5.88556816,2.17494472,-1.10196544,5.3567901
81,2700.0,403.82104,190.0801,0.0958491,400.73877,188.0521,0.043646395,406.6668,186.78578,0.078260824,390.643,194.09494,0.23688415,415.1425,192.06361,0.36673614,398.0696,216.81271,0.5841019,425.72757,213.61041,0.765245,432.04388,230.78702,0.30694005,458.6832,225.21265,0.6551999,484.32288,225.61884,0.26298836,486.14197,224.741,0.5047139,434.3589,223.64029,0.42641246,455.5639,225.30128,0.54967844,463.05072,224.77133,0.23949844,476.70383,221.61899,0.35675177,485.80048,223.53835,0.16053863,490.68372,220.96722,0.21786763,3.51609895,2.52670899,-0.7784504,2.31791037
82,2733.3333333333335,47.23519,131.32664,0.013665702,44.774918,128.44357,0.0037902277,47.468094,129.33691,0.016025703,32.127773,126.10605,0.08535712,44.96637,128.75067,0.4421435,23.954487,134.73943,0.82916945,45.089592,137.71321,0.935454,10.447235,146.89671,0.6934007,55.708176,146.58928,0.93724006,12.287245,153.85954,0.5519813,68.0433,144.35739,0.8168858,22.247662,174.70699,0.9812728,34.7016,175.7466,0.9896058,17.050663,200.91634,0.9397989,26.322536,201.69678,0.9643186,13.361893,221.79158,0.8429463,17.023964,224.1745,0.8896687,1.41578066,1.04276489,-0.62148296,0.72858437
83,2766.6666666666665,404.50687,193.28207,0.05072761,402.5423,190.19186,0.04236725,405.69308,189.68642,0.028665015,391.4282,194.20473,0.7883565,415.40262,193.59581,0.6864355,382.0001,220.06598,0.8338351,426.0664,219.85335,0.8130693,375.82205,233.80804,0.2406236,437.91742,234.37679,0.18774462,378.95667,220.26468,0.06970526,430.5158,220.27847,0.052377414,394.17154,240.0,0.11944395,424.59082,240.0,0.11241911,392.9388,226.45439,0.021639347,429.24847,227.42438,0.018340847,391.72882,238.07217,0.020370912,427.19986,238.50117,0.018093798,0.15681205,0.09039752,-0.11913804,0.04716392
89,2966.666666666667,39.922146,117.884705,0.03555187,38.469498,114.77295,0.02003898,39.53774,115.401215,0.020937452,30.39938,115.452194,0.29571012,41.103096,117.19354,0.29552805,22.40987,131.08308,0.89612305,44.857204,133.00366,0.8807941,4.6637306,150.30165,0.7787297,48.85653,153.07356,0.7215402,3.5201988,156.29005,0.5684519,48.65779,157.02452,0.49937636,23.615778,177.13873,0.9605995,37.34803,177.51772,0.9574337,17.533962,205.6182,0.86756337,26.725285,206.0892,0.84638757,17.26839,227.39166,0.6841853,19.0214,228.65878,0.65872353,0.65577,0.57702114,-0.14296565,0.27684241
90,3000.0,424.71542,223.48473,0.20735475,423.7207,222.44441,0.10994347,426.40704,222.6766,0.16550843,419.77283,223.93774,0.14590442,430.32376,223.66812,0.265373,422.54596,225.10944,0.60187835,436.55746,226.50195,0.58716613,442.98032,227.44554,0.45736519,458.04745,231.10857,0.50666,470.67902,225.978,0.4714385,479.0184,225.07706,0.5050162,447.90128,221.6142,0.5184246,455.82407,223.77338,0.5307373,460.90878,225.38326,0.2880314,465.7648,226.19685,0.31552196,484.76172,221.2959,0.23122856,489.01883,221.59372,0.2453525,0.55258131,0.23532833,-0.00884324,0.49988847
91,3033.333333333333,37.56852,120.62077,0.08406763,35.425446,118.33806,0.020076808,38.82976,118.57538,0.06373972,25.967718,121.26483,0.10134082,42.471214,121.81177,0.39926443,20.11392,134.36632,0.6568072,44.971237,134.08784,0.9143387,6.6052246,148.66359,0.5683215,63.76925,141.29585,0.9283264,5.0780563,154.85228,0.5645252,82.3029,139.51694,0.8711043,21.91705,176.45366,0.91686743,35.51368,176.40257,0.96123904,15.802129,197.15802,0.83635825,24.96887,197.85248,0.9201814,9.598324,219.33298,0.6757809,14.953205,221.22382,0.7804624,0.66712612,0.30926761,0.03119697,0.59028599
