frame_id,timestamp_ms,nose_x,nose_y,nose_conf,left_eye_x,left_eye_y,left_eye_conf,right_eye_x,right_eye_y,right_eye_conf,left_ear_x,left_ear_y,left_ear_conf,right_ear_x,right_ear_y,right_ear_conf,left_shoulder_x,left_shoulder_y,left_shoulder_conf,right_shoulder_x,right_shoulder_y,right_shoulder_conf,left_elbow_x,left_elbow_y,left_elbow_conf,right_elbow_x,right_elbow_y,right_elbow_conf,left_wrist_x,left_wrist_y,left_wrist_conf,right_wrist_x,right_wrist_y,right_wrist_conf,left_hip_x,left_hip_y,left_hip_conf,right_hip_x,right_hip_y,right_hip_conf,left_knee_x,left_knee_y,left_knee_conf,right_knee_x,right_knee_y,right_knee_conf,left_ankle_x,left_ankle_y,left_ankle_conf,right_ankle_x,right_ankle_y,right_ankle_conf,acc_x,acc_y,acc_z,acc_mag
0,0.0,497.03625,94.52039,0.9358175,499.4632,92.31372,0.92327774,495.45547,92.37498,0.8314213,504.08582,93.50306,0.83197916,493.7329,93.74939,0.48161167,509.32004,106.49738,0.9932561,491.51553,106.86716,0.98979247,513.2631,123.55493,0.96348244,489.23517,123.35605,0.89606375,511.75824,140.04108,0.9270856,487.8368,137.67291,0.8372663,506.27844,138.86514,0.99290633,494.8016,138.85707,0.9911601,507.35788,163.24248,0.9806507,493.75638,163.08311,0.9717693,509.54553,186.89021,0.9572294,496.13095,186.28636,0.94328403,1.0239081,-0.24368028,0.99191629,0.07148282
1,33.333333333333336,496.37802,94.541595,0.9324567,498.8104,92.35628,0.922271,494.9166,92.39877,0.8171511,503.5864,93.52743,0.83814126,493.4412,93.73672,0.45318526,509.0313,106.47343,0.9931821,491.2331,106.837616,0.98868525,513.0713,123.40808,0.9644127,488.83588,123.339035,0.8841577,511.52023,139.60248,0.92808676,487.57544,137.65279,0.823637,506.00677,138.95879,0.99283713,494.5641,138.93753,0.9906094,507.2662,163.32002,0.9808349,493.81546,163.15327,0.9705803,509.53806,186.98138,0.9577533,496.38837,186.30867,0.9418511,1.00243341,-0.26284062,0.96489529,0.06902637
2,66.66666666666667,495.80655,94.664055,0.93050265,498.18393,92.49613,0.9206438,494.3887,92.541145,0.810622,502.9089,93.53582,0.83838946,492.97903,93.74549,0.4440005,508.55365,106.23537,0.9932215,490.67242,106.65194,0.98833966,512.9192,122.99562,0.9653638,488.22253,123.11041,0.8815515,511.54306,139.13571,0.9294608,487.14597,137.42506,0.82090014,505.70114,138.71037,0.99298793,494.2378,138.73196,0.9906282,507.21582,163.18259,0.9812344,493.84766,163.06349,0.97067845,509.521,186.96259,0.9581578,496.59265,186.32838,0.9416574,1.04955503,-0.28863339,1.00739195,0.05846361
3,100.0,495.85315,94.63814,0.9323413,498.18912,92.473465,0.9191567,494.3241,92.534164,0.8221148,502.696,93.56176,0.8286414,492.6671,93.79957,0.47105443,508.18832,106.22184,0.9932528,490.2777,106.75195,0.98935014,512.74963,122.75638,0.9642251,487.78485,123.21854,0.89282197,511.5057,138.52863,0.92815435,486.70636,137.49313,0.83378375,505.63583,138.55363,0.9932681,494.12552,138.66618,0.9914152,507.35858,163.11009,0.98195285,493.80054,163.07318,0.9731312,509.75162,187.05115,0.9597846,496.4545,186.55597,0.94581944,1.11739888,-0.25891029,1.08575284,0.05183119
4,133.33333333333334,495.2966,94.72061,0.93163943,497.6002,92.56197,0.91921127,493.82043,92.64104,0.8176841,502.17337,93.584274,0.831605,492.3196,93.88231,0.46185696,507.88315,106.119644,0.9933831,490.02502,106.76072,0.98931515,512.64026,122.51056,0.96564454,487.54547,123.259,0.8931777,511.46402,138.2182,0.93060255,486.49933,137.6822,0.8349179,505.45856,138.50287,0.9934676,493.98486,138.64731,0.9915741,507.3036,163.11299,0.9823658,493.6589,163.10233,0.9734259,509.73975,187.14041,0.96027535,496.3017,186.66266,0.9460185,1.12440572,-0.24392592,1.09656124,0.04839215
5,166.66666666666666,495.5556,95.0643,0.9360443,497.81573,92.91368,0.9195921,493.97806,92.98636,0.8367995,502.14563,93.82595,0.820825,492.1811,94.078094,0.50294834,507.66074,106.09759,0.99364156,489.53156,106.732605,0.9909576,512.5625,122.242325,0.9655716,486.63272,123.16118,0.911422,511.6545,137.66158,0.9314616,485.82886,137.7737,0.85707396,505.3541,138.4267,0.9938922,493.6911,138.61368,0.9926472,507.52963,163.22697,0.98276734,493.57187,163.24744,0.9757971,509.73312,187.4216,0.96028566,496.01166,187.03154,0.9487331,1.03169181,-0.26578837,0.99609226,0.03930327
6,200.0,495.47708,95.405754,0.93976486,497.7195,93.24882,0.9217354,493.85056,93.32361,0.8495386,501.98782,93.9827,0.81686115,491.94965,94.23137,0.527847,507.46042,105.95688,0.99386615,489.20084,106.62387,0.9919882,512.5139,121.89151,0.9661925,486.05063,122.99275,0.9231883,511.9835,137.25858,0.9332947,485.05344,137.90208,0.8724091,505.2342,138.2847,0.9941222,493.51105,138.49654,0.9932516,507.50488,163.2175,0.9826483,493.50824,163.2517,0.9767535,509.5303,187.4501,0.9590011,495.78757,187.09958,0.94889194,0.95121486,-0.29158114,0.90176441,0.08130864
7,233.33333333333334,495.4185,95.30381,0.9424498,497.68448,93.13152,0.9231948,493.72266,93.20147,0.858629,501.90598,93.87936,0.813478,491.69397,94.109665,0.5470878,507.2694,105.88189,0.9940029,488.9055,106.5664,0.99261236,512.39655,121.820404,0.9661815,485.8031,123.049805,0.9296132,512.2605,137.50719,0.9336285,484.68372,138.43991,0.8806416,505.12643,138.21948,0.9942239,493.36526,138.45651,0.9935818,507.3948,163.1586,0.9825565,493.5532,163.20549,0.97739947,509.30344,187.36955,0.9584137,495.87097,187.05112,0.94941926,1.05574526,-0.36846816,0.93394396,0.32646279
8,266.6666666666667,495.30716,95.33415,0.94517314,497.58704,93.13041,0.925169,493.51276,93.2272,0.8676496,501.77835,93.90822,0.8111286,491.34045,94.206665,0.5664089,507.07602,105.9578,0.9940843,488.61423,106.79509,0.9930875,512.3259,121.81105,0.96584564,485.6406,123.384674,0.9344168,512.4889,137.66104,0.93337244,484.40457,138.98624,0.88684714,505.1517,138.2113,0.9941379,493.34708,138.53316,0.99367946,507.2391,163.02377,0.98178285,493.53445,163.15038,0.977112,508.9487,186.90884,0.9562093,495.78818,186.7163,0.947957,0.83921891,0.15770437,0.82364916,0.03193391
9,300.0,494.98468,95.269295,0.9456475,497.27597,93.04463,0.92623854,493.1816,93.15378,0.8678178,501.5149,93.75325,0.8138068,491.04752,94.086945,0.56444615,506.9197,105.769775,0.9941379,488.37808,106.63744,0.9931166,512.23004,121.76074,0.96620554,485.44415,123.32428,0.9345591,512.58954,138.01349,0.9338116,484.01987,139.18085,0.8869744,504.93698,137.94632,0.9941409,493.14932,138.27005,0.9936733,506.7442,162.86511,0.98179275,493.44257,162.9942,0.9770692,508.20856,186.87654,0.9560226,495.81284,186.68634,0.9476463,0.8547389,0.15745873,0.8401074,-0.00221081
10,333.3333333333333,494.46393,95.22116,0.9455968,496.7712,92.9789,0.9272555,492.68832,93.10197,0.8653894,501.1545,93.59564,0.8183019,490.7074,93.975235,0.5555357,506.755,105.555626,0.994155,488.18304,106.45872,0.9929844,512.16016,121.59996,0.9667108,485.2761,123.222626,0.9333719,512.7625,138.07059,0.93454856,483.90213,139.30588,0.8855882,504.71576,137.83614,0.9940561,492.9932,138.14725,0.9935155,506.30634,162.883,0.9813643,493.54562,162.99066,0.97629535,507.4601,186.9733,0.95457256,496.0611,186.73145,0.9455708,0.96173151,0.22820461,0.92903105,0.09874947
11,366.66666666666663,494.54535,95.32357,0.9465657,496.81546,93.063614,0.9259179,492.67685,93.20714,0.87156916,501.02707,93.63981,0.81014585,490.48822,94.048744,0.5772634,506.58136,105.55341,0.9941307,487.80905,106.47487,0.993379,512.13,121.66237,0.9655393,485.02655,123.21173,0.937785,512.70264,138.41663,0.9328504,483.82233,139.22414,0.8911675,504.41486,137.55246,0.9940169,492.64606,137.8896,0.9936998,505.41998,162.50342,0.9810539,493.27438,162.6543,0.9767864,505.998,186.42,0.9535385,495.92523,186.29518,0.945839,1.0536685,0.08204558,1.04374747,0.11864675
12,400.0,494.7056,95.55221,0.9455495,496.885,93.25287,0.92178667,492.74335,93.453766,0.8741136,500.92734,93.69443,0.79617316,490.37335,94.22796,0.5939858,506.56116,105.4898,0.993859,487.70563,106.557175,0.99357855,512.2462,121.69139,0.9627823,484.99606,123.34721,0.9408547,512.79346,138.77068,0.9283902,483.6336,139.27393,0.8945194,504.66315,137.43214,0.99403447,492.88342,137.85645,0.99398154,505.16797,162.4791,0.98149383,493.23074,162.73203,0.9782986,505.45016,186.5944,0.95514643,495.79797,186.65213,0.9493379,1.06510327,0.07074589,1.05209942,0.15008936
13,433.33333333333337,494.5046,95.45033,0.9464767,496.71936,93.138145,0.92287904,492.53067,93.33206,0.87595046,500.83832,93.57958,0.79732555,490.1786,94.09543,0.5966753,506.49054,105.410286,0.99394715,487.51526,106.45773,0.9937378,512.2157,121.64398,0.96310115,484.74207,123.329895,0.94222355,512.8659,138.64893,0.9291492,483.67554,139.35248,0.8966627,504.58112,137.49643,0.9941267,492.7597,137.90794,0.9941122,505.01108,162.66652,0.98166865,493.3322,162.89648,0.9786386,505.0128,186.91685,0.9553802,495.94464,186.93283,0.9498484,1.09086637,0.03635553,1.07641832,0.17318003
14,466.6666666666667,494.28772,95.36869,0.9444614,496.44202,92.98551,0.9176191,492.32132,93.27913,0.87284774,500.51627,93.182755,0.7756302,490.04318,94.02162,0.58991474,506.69498,105.28761,0.9930565,487.08722,106.729095,0.99363047,512.1605,121.628296,0.9681078,484.1598,123.491425,0.95473826,512.3965,139.11371,0.9487185,483.39386,138.79384,0.9275023,505.05905,137.28676,0.9952063,492.90842,137.88431,0.99533206,505.55032,162.58723,0.98908734,493.70526,162.9031,0.9874888,506.0224,186.83951,0.9725351,496.19037,186.98495,0.96981806,1.15391111,0.04004021,1.13561887,0.20069232
15,500.0,494.4353,95.24992,0.945053,496.60727,92.87696,0.9201522,492.48822,93.1476,0.8718761,500.67972,93.065636,0.7842631,490.1434,93.819046,0.5825216,506.6727,105.202774,0.993389,486.87643,106.51125,0.9935992,511.86646,121.55972,0.9702528,483.46576,123.16878,0.953564,512.60657,139.2778,0.95153564,483.16824,138.49944,0.92632353,504.8846,137.45818,0.9954324,492.66367,138.02544,0.99540824,505.24966,162.8285,0.9895974,493.65417,163.1355,0.9876323,505.41998,187.19194,0.97350806,496.14612,187.31662,0.97009295,1.09909481,0.17735601,1.07101412,0.17170616
16,533.3333333333334,494.81793,95.21008,0.94188607,496.96866,92.853294,0.9169136,492.90573,93.09665,0.8643112,500.9396,93.0378,0.7826913,490.44955,93.69011,0.5698843,506.7232,105.23988,0.9931437,486.77777,106.36458,0.9929537,511.73868,121.79703,0.9696246,483.01562,122.88551,0.9482597,512.5208,140.01186,0.9500481,483.0474,138.09605,0.9191923,504.58282,137.60966,0.9952586,492.35986,138.14595,0.99506325,504.69168,163.00687,0.98943794,493.8292,163.33775,0.9869955,504.57367,187.37549,0.9732623,496.64133,187.54263,0.96900606,0.94199745,0.16359986,0.92755718,0.01523002
17,566.6666666666666,494.91452,94.88481,0.94471943,497.10312,92.53049,0.91921246,492.96704,92.76288,0.873193,501.08688,92.85477,0.78085035,490.46024,93.48766,0.58842516,506.84918,105.26056,0.99317354,486.8119,106.316895,0.9934495,511.97668,121.87244,0.9689098,482.95337,122.78529,0.9525275,512.5786,139.67139,0.94935113,482.75873,137.7546,0.924396,504.54028,137.68027,0.99512345,492.26453,138.16132,0.99511826,504.53128,163.22098,0.9887088,493.74976,163.48566,0.9866498,504.2969,187.61745,0.9710452,496.58026,187.72464,0.9674277,0.90735194,0.19430554,0.88432358,0.05920055
18,600.0,494.83047,94.639244,0.9454622,497.07397,92.266,0.9211516,492.8551,92.49518,0.8747572,501.13742,92.68996,0.78441566,490.35104,93.33161,0.5873899,506.98764,105.32649,0.992927,486.86456,106.32949,0.9931786,512.2621,122.147736,0.9674317,483.0933,122.79527,0.95020336,512.5089,139.91815,0.9470396,482.6328,137.5711,0.92103034,504.49173,137.78973,0.9946413,492.175,138.21626,0.99462885,504.3317,163.48196,0.98743165,493.7355,163.68683,0.9851452,504.08392,187.89473,0.96787393,496.76678,187.92697,0.96387166,0.964999,0.20388571,0.93345267,0.13535064
19,633.3333333333333,494.20328,94.36736,0.93677014,496.49524,91.92851,0.90922844,492.1988,92.10205,0.8639581,500.85287,92.398026,0.73040855,489.95712,92.994934,0.54126674,507.56097,105.415245,0.9859021,486.85043,106.29631,0.98640037,513.5401,122.43089,0.9461185,483.00977,123.07738,0.9260862,512.23395,139.61472,0.92299145,482.52625,138.4075,0.8966783,504.712,138.23598,0.989442,492.06018,138.49454,0.9893568,503.4305,163.59499,0.9788578,493.61456,163.55815,0.9754768,501.5844,187.58835,0.9560387,496.0938,187.26462,0.9514422,1.10248038,0.15819566,1.08968317,0.05502458
20,666.6666666666666,494.34503,94.13722,0.9347111,496.7003,91.702545,0.90621316,492.39832,91.857086,0.8616528,501.2178,92.264114,0.7229439,490.21927,92.81167,0.5392585,507.78534,105.34608,0.9846401,486.97,106.24275,0.9852544,513.55426,122.21872,0.9408468,482.8314,123.147705,0.92073697,511.87863,139.04839,0.9160115,482.4496,138.8105,0.88947314,504.79547,138.31024,0.98794717,492.00372,138.56041,0.9878781,503.37128,163.24954,0.97547716,493.03262,163.20398,0.9717136,501.9618,186.6439,0.949955,495.7624,186.30482,0.9449442,1.06280267,0.14763291,1.05185377,0.03684682
21,700.0,494.6151,93.469604,0.9249836,497.0154,91.060524,0.8973182,492.78952,91.12548,0.8362953,501.53284,91.7838,0.7233397,490.63904,92.0815,0.4933639,507.91486,105.18994,0.9843642,487.09302,105.76163,0.9824683,513.7347,122.47656,0.9436461,483.03656,122.74713,0.9046831,512.0766,140.05942,0.91822,482.32877,138.52295,0.87253106,504.39624,138.62802,0.9891262,491.61627,138.76137,0.9880492,502.77567,163.91226,0.9798014,492.68552,163.81369,0.9744703,502.1018,187.55331,0.95944476,495.9674,187.13774,0.9521863,0.99184009,0.12257707,0.98331869,0.04249666
22,733.3333333333333,494.5046,92.907234,0.92295307,496.87274,90.52365,0.89609,492.71027,90.567696,0.8296973,501.3194,91.319214,0.7265425,490.54675,91.55853,0.4809182,507.83154,104.832985,0.9847973,486.85492,105.28404,0.9819256,513.9071,122.44908,0.9466687,482.8795,122.34125,0.90179306,512.1093,140.19656,0.9210886,482.03604,137.78404,0.8693386,504.11194,138.3968,0.98957086,491.1781,138.48164,0.9881551,502.74088,163.91245,0.98046,492.11127,163.79213,0.9745113,502.44635,187.74622,0.95994806,495.38873,187.31192,0.9516578,0.91272861,0.115699,0.90004489,0.09801253
23,766.6666666666667,495.0343,92.2133,0.9227095,497.38235,89.85898,0.8947062,493.28833,89.84961,0.8280011,501.65744,90.729126,0.7274798,491.01035,90.810715,0.4818984,507.9831,104.509125,0.9861773,486.94537,104.580154,0.9835369,513.835,122.674194,0.9521433,482.83545,121.42433,0.91017944,511.64224,141.08813,0.9283796,481.7939,136.6313,0.8794877,503.62573,138.3931,0.99145645,490.67346,138.32448,0.9902648,502.11783,164.30083,0.9842659,491.63794,164.07318,0.9792718,502.04483,188.42268,0.96699333,495.20197,187.90459,0.95976424,0.91724474,0.15205453,0.89930795,0.09727559
24,800.0,494.27707,91.090515,0.9184958,496.6847,88.76897,0.89575636,492.75,88.74376,0.80866337,501.33734,89.819984,0.7472183,491.05222,89.914185,0.4397382,508.11902,104.00381,0.9867317,487.2229,104.06612,0.9821644,514.09186,122.23253,0.9571446,482.9988,120.97209,0.9016262,511.4381,140.68007,0.93468976,481.5065,136.49615,0.8721207,503.38675,138.11632,0.9921672,490.52014,137.94754,0.99044377,501.5495,163.90427,0.9861624,490.91202,163.57272,0.98033375,501.79645,188.31055,0.97112256,494.65894,187.63597,0.9627452,0.92126711,0.17760165,0.90397522,0.00442162
25,833.3333333333334,495.55035,90.66876,0.9376029,497.83267,88.217606,0.9190307,493.61563,88.34334,0.8425618,502.06165,88.95017,0.8013882,490.95816,89.32904,0.50083417,508.4582,103.04697,0.9929004,487.2412,103.118004,0.9910691,514.32196,122.28882,0.97249174,483.63852,120.16092,0.9355137,511.22366,141.7095,0.953453,481.0653,134.94232,0.90520185,503.58777,137.6727,0.9947825,490.40698,137.50809,0.9939313,502.0221,163.89804,0.98801184,490.0434,163.66006,0.9833173,502.84473,188.45087,0.9683248,493.68018,188.04993,0.9597014,0.8615237,0.13854403,0.83986176,-0.13289418
26,866.6666666666667,496.2233,90.342834,0.9432014,498.44794,87.85251,0.91926384,494.02438,88.00418,0.86797315,502.3201,88.59648,0.77976376,490.79135,88.98241,0.5633176,508.3055,102.77901,0.99267584,486.8471,102.737526,0.99239653,514.09186,122.311005,0.96839315,483.16766,119.70136,0.94612616,511.27902,141.87355,0.9478535,480.97614,133.84596,0.9163024,503.4184,137.60442,0.9945754,489.971,137.43597,0.9943399,501.75623,164.35449,0.9871516,489.00397,164.13907,0.9840694,501.86966,189.42006,0.9660212,491.3717,189.15872,0.9602974,0.93807008,0.27340337,0.89636021,0.04200537
27,900.0,496.42776,90.29158,0.9385158,498.39438,87.82716,0.9038934,494.13382,88.03301,0.8701334,501.87686,88.572426,0.73381,490.59082,88.991035,0.6030096,507.7687,102.56365,0.9920034,486.2647,102.49922,0.99291795,513.97284,122.019196,0.9584262,481.66174,119.69178,0.9467815,511.30502,140.9838,0.92851764,479.39423,133.79399,0.9081205,503.11255,137.98155,0.9935974,489.51056,137.82477,0.9938736,501.60843,164.96706,0.98202735,487.65945,164.79465,0.9799825,500.9076,190.80354,0.9529752,488.96054,190.70872,0.9493653,1.07115952,0.34169281,0.96293012,0.32154988
28,933.3333333333334,496.70676,90.265,0.91613734,498.4721,87.85257,0.86871374,494.53217,88.03228,0.8321274,501.66434,88.57612,0.68331194,491.01407,88.90251,0.5639981,507.68726,102.356476,0.9901246,486.0232,102.307434,0.9912088,513.85187,121.686066,0.952828,480.5711,119.989044,0.9407662,511.3772,140.46243,0.91975164,477.68442,135.33821,0.8987371,502.78305,137.62135,0.9938076,489.0926,137.48772,0.99403304,501.85733,164.74533,0.9845691,487.315,164.63377,0.9827784,500.69205,191.17482,0.9613327,487.7824,191.16962,0.95823044,1.12504608,0.15696744,1.09975463,0.1778473
29,966.6666666666666,495.7803,90.91649,0.32090893,495.33408,88.16432,0.22223487,495.18048,88.22397,0.1794873,490.5508,88.43764,0.7795645,499.32892,88.95615,0.69324493,484.814,101.584274,0.9918468,506.1729,102.54623,0.9929565,478.53906,120.886185,0.94063747,513.41394,122.905304,0.9308401,476.1776,136.91628,0.8123189,510.33896,140.02383,0.7794717,487.81277,136.88994,0.9954477,501.8507,137.24309,0.99566525,487.06622,164.90929,0.98690414,500.7319,165.26385,0.9851162,487.82513,191.89447,0.96657795,499.9871,192.34377,0.96293914,1.20196876,0.02137115,1.2012062,0.03709246
30,1000.0,494.2354,91.00345,0.26317137,493.81598,88.15404,0.17931026,493.79434,88.23353,0.1323287,489.3438,88.73246,0.6796649,500.06412,88.89551,0.58122236,484.05704,102.09343,0.98315215,506.72845,102.28288,0.97959226,478.727,121.449875,0.91489875,511.72278,122.66229,0.8645029,476.95938,138.17715,0.769577,507.80652,139.32677,0.68989974,486.69144,137.31998,0.99308974,501.82642,137.20923,0.9923539,486.58533,165.21597,0.9879623,500.25198,165.11047,0.98519367,487.5696,192.74826,0.9755921,500.15244,192.76672,0.97169906,1.09344371,0.02579277,1.09312221,-0.00614114
31,1033.3333333333335,493.3299,91.83961,0.15241414,492.92188,89.11224,0.111457795,493.4936,89.147644,0.06909629,488.7177,89.40565,0.7202851,500.27454,89.85657,0.5280943,483.33774,101.93826,0.98765963,506.4332,102.91113,0.98732376,477.50543,120.637375,0.94176185,512.4216,122.40317,0.91128737,475.12112,136.66684,0.8128979,506.9718,138.62303,0.74250364,485.72153,137.9744,0.99563724,501.05478,138.3677,0.9954823,486.04813,165.77367,0.98808086,500.6911,166.32126,0.9853221,486.83267,192.82155,0.9695655,500.37787,193.45786,0.9643887,0.93973746,0.08179993,0.93320702,-0.07443057
32,1066.6666666666667,493.98605,93.02527,0.19834115,493.4132,90.183365,0.13481122,493.7233,90.37436,0.09041559,488.5766,90.25813,0.69770217,500.18805,90.83317,0.55709565,483.22598,102.92799,0.9881691,506.55225,103.5461,0.98716474,476.94763,121.851654,0.94147384,512.4557,122.60025,0.9089381,474.05203,138.80826,0.819772,507.19882,137.52675,0.75143,486.23175,138.9407,0.9950818,501.74335,139.05417,0.9950054,486.52548,167.19058,0.98516613,501.00702,167.38922,0.98280627,487.29053,193.66515,0.96055603,500.88217,194.18163,0.9564075,0.73095027,0.06706121,0.72784744,-0.0054042
33,1100.0,488.91232,91.97357,0.16487929,488.98587,89.22029,0.14150847,489.6737,89.22945,0.05592134,487.4564,90.31212,0.76514935,500.23898,90.25659,0.4192097,483.17,104.16443,0.98834807,507.1579,103.881836,0.9825462,477.22897,123.44739,0.95064086,512.7592,122.59541,0.8712282,473.18558,140.06581,0.8342182,505.66104,136.7973,0.69022137,486.18506,140.0765,0.99502736,501.97186,139.79056,0.9940534,486.76675,167.64127,0.9856064,501.03497,167.74493,0.9801751,487.78018,193.93167,0.9625478,500.9292,193.95654,0.95324355,0.74380486,-0.04888344,0.72416276,0.16261728
34,1133.3333333333333,491.4702,93.7646,0.16992657,491.21112,91.030136,0.12878966,491.72687,91.157715,0.06582441,487.76926,92.05535,0.7103146,500.51093,92.241455,0.46578485,482.58856,105.64073,0.9870797,506.77185,105.44119,0.9827785,476.63864,124.84917,0.9434448,512.531,123.24748,0.87946665,473.3372,140.72733,0.822635,504.76,135.39252,0.70576423,485.34717,140.64694,0.994689,501.2475,140.48318,0.99400073,486.93744,168.0008,0.9848732,500.9076,168.1818,0.9805896,487.57498,194.01393,0.9613101,500.14096,194.38657,0.95408934,0.91601056,-0.11225997,0.89488634,0.16016083
35,1166.6666666666667,486.10278,95.77101,0.1587766,486.61237,93.20056,0.16584055,487.25708,93.09607,0.04879153,487.0593,94.63866,0.82833433,499.2209,94.149506,0.36620313,482.57053,108.11253,0.9897663,506.22476,106.784035,0.9823314,476.3066,126.877716,0.9593209,512.1253,122.243515,0.85424453,474.28583,141.63452,0.8529899,502.38437,133.37885,0.6595035,485.3613,142.1885,0.9953955,500.7543,141.69318,0.99373394,487.79654,167.92618,0.98738796,500.1821,168.09222,0.9793576,489.0197,194.26108,0.96865696,499.3001,193.93733,0.9550156,0.88641054,-0.11913804,0.85877646,0.18447973
36,1200.0,486.38046,99.65039,0.13624634,486.69952,97.097534,0.1319379,487.49588,97.044525,0.045486666,486.77313,97.785645,0.78406954,498.8147,97.37275,0.37373802,482.31635,109.99608,0.9867669,505.69156,108.52754,0.9808317,475.17252,128.39297,0.9498646,512.2998,122.78169,0.8681402,473.75253,142.74503,0.83229417,504.19806,132.39806,0.6804519,485.76083,143.20746,0.99413717,500.91974,142.7218,0.99277365,488.8294,167.82141,0.9824844,501.32367,167.93295,0.9745773,488.91446,192.3684,0.9554404,499.1311,191.94484,0.94171387,0.57199747,-0.11938368,0.55687821,0.05305941
37,1233.3333333333335,487.22168,103.104645,0.12281914,487.45602,100.50004,0.111204505,488.3084,100.5506,0.04348849,486.93973,100.800934,0.73865074,499.3559,100.53003,0.37316278,481.9647,112.614494,0.98363054,505.99246,110.870255,0.97857535,474.75778,131.88943,0.9380306,512.6149,124.10927,0.86518526,473.72882,148.62483,0.80660343,504.56793,133.44778,0.6738209,485.33945,144.54997,0.9931766,500.93237,144.05182,0.99202865,488.97037,167.23473,0.98088914,501.58893,167.3261,0.9740912,488.94617,190.04364,0.95397246,499.1197,189.69672,0.94267684,0.79537118,-0.09702995,0.76297474,0.20265749
38,1266.6666666666665,487.49567,108.55064,0.59517986,489.06134,106.60633,0.56014556,487.50674,106.38785,0.3307256,494.53412,106.13638,0.5390108,488.2835,105.77689,0.1649833,503.4883,114.55827,0.9726787,483.1927,115.01846,0.95835876,510.7835,126.86409,0.95669186,474.85193,132.1413,0.8790349,506.57343,134.6702,0.93119264,475.61804,152.65161,0.8427474,499.39893,145.05765,0.9921997,486.53708,144.7311,0.9898644,504.60056,166.42763,0.9832761,488.3368,165.76953,0.9753076,502.08072,187.64214,0.9603738,488.16287,186.23889,0.9478266,0.90122568,0.04618134,0.82635126,0.35667718
39,1300.0,492.20145,116.57918,0.6476802,494.0888,114.18573,0.5341749,490.8063,113.90795,0.46785024,498.19656,111.58496,0.41065016,488.52524,111.03673,0.3003715,505.13257,116.445854,0.9715584,481.105,117.833336,0.9741033,511.60938,128.92665,0.94730955,475.56107,138.23914,0.93294764,505.97842,135.073,0.92574614,480.12952,160.54555,0.9017957,499.7796,144.06357,0.99258375,484.6217,144.51234,0.99267465,506.02338,166.0386,0.98388296,490.52777,166.0488,0.9823704,498.48227,188.61113,0.9592905,490.07056,188.31119,0.9572191,0.87761312,0.09211704,0.77255491,0.40605191
40,1333.3333333333333,493.20096,122.285675,0.8473242,494.9817,119.48328,0.7252823,490.96597,119.75151,0.76736957,498.8579,115.81641,0.4613263,487.61923,116.574455,0.5877506,505.11353,120.25508,0.98306745,480.72992,122.946976,0.99098575,510.82184,134.43698,0.94221425,475.68762,143.60551,0.96802,506.34116,146.94275,0.9155904,481.38858,165.83134,0.94025016,501.2865,147.51768,0.9922998,485.98935,148.81566,0.9943963,506.90915,167.56609,0.97789544,491.3566,168.47482,0.9822984,498.98022,190.38036,0.94196105,492.19525,191.5546,0.9514233,0.76814884,-0.1670389,0.74799036,-0.05158554
41,1366.6666666666667,497.78284,129.7909,0.8188045,499.53558,126.907425,0.64524436,495.41345,127.15692,0.7662652,502.57156,123.20592,0.3632857,490.38217,123.690155,0.6509128,506.5667,126.28357,0.9793225,480.92993,129.69083,0.9890886,511.82535,138.86679,0.92616826,476.00385,149.98561,0.9637017,507.40973,149.08978,0.89583987,483.2848,168.60062,0.9335761,502.29596,151.65489,0.99182117,485.5475,153.74667,0.9942426,508.54044,166.87038,0.9799732,490.5135,169.11794,0.9843888,501.9783,190.56189,0.95530254,490.95715,193.73761,0.96257764,0.59597305,-0.5519653,0.18644489,-0.12552482
42,1400.0,500.75323,138.23741,0.66871285,502.15518,135.12204,0.36557764,498.3929,135.2666,0.64194036,504.19885,130.17793,0.1444737,492.93304,130.31476,0.62392557,506.2238,131.53722,0.95688826,481.4106,133.96231,0.9852372,510.91217,146.85057,0.8807061,477.00998,155.53531,0.97068554,510.02982,159.32277,0.85973465,484.94446,173.15834,0.9456739,498.95197,152.72594,0.9915245,482.7916,154.67577,0.9951249,508.2039,170.93636,0.9853978,491.12784,173.11852,0.9913659,500.43997,193.26303,0.96798164,489.82062,196.61522,0.9785841,1.41481186,0.82217529,1.10515883,-0.32302375
43,1433.3333333333333,500.5434,143.53912,0.87699443,502.63577,140.50273,0.6435681,498.156,140.63132,0.85762906,505.82483,136.46779,0.24992093,492.99835,136.56538,0.77911985,505.95346,138.8303,0.97944355,481.50067,141.23145,0.9939476,508.36322,157.49594,0.91398853,477.2273,165.91501,0.98378307,508.49054,171.07231,0.90099704,488.04214,186.20311,0.96888924,497.62823,155.23747,0.99097556,481.53204,157.25182,0.99528015,505.202,173.06844,0.9804853,489.8765,175.4436,0.9892446,504.14404,195.0728,0.9580773,495.3405,198.61781,0.9725707,1.66188622,0.75658795,1.28423436,-0.73497116
44,1466.6666666666665,499.65436,152.49442,0.8981377,502.06522,148.8436,0.7655987,496.4931,149.27353,0.8649165,506.36826,143.29712,0.38027015,491.13043,144.31512,0.7282323,509.40176,143.62274,0.977371,480.87238,147.40991,0.98883855,512.4274,163.95049,0.90457696,478.08707,174.46037,0.9562986,507.53183,183.17853,0.86317426,485.72946,198.26685,0.91572833,501.5041,155.8081,0.97554225,482.98926,158.06981,0.9825135,505.74823,177.35303,0.93166506,487.05847,179.80255,0.9483937,498.7103,196.53864,0.8242689,491.15216,200.35756,0.85651684,1.76800037,0.88456923,1.47903119,-0.39475222
45,1500.0,497.0534,152.6316,0.38579288,498.42654,150.32135,0.28356594,495.2224,150.73276,0.27461132,501.62134,146.65419,0.2419749,492.11917,147.51648,0.2159769,507.8182,146.51341,0.91647536,484.1568,147.6977,0.9224578,510.71518,159.4141,0.90454894,477.45148,162.01239,0.897808,508.4139,174.6217,0.8733916,481.38095,179.0911,0.862916,500.7109,158.31322,0.9817191,484.70905,158.85388,0.9827512,507.26413,177.87354,0.9620237,487.06467,178.38318,0.96068275,504.23434,197.05905,0.9092327,487.4439,197.8355,0.9061706,1.22694674,0.56694967,1.08427897,-0.09113446
46,1533.3333333333335,498.53763,151.33957,0.35496348,499.98672,149.03226,0.22801648,496.69638,149.03099,0.25112006,502.6099,147.16818,0.16846044,492.30008,146.94124,0.19254331,508.30722,151.13094,0.9046231,481.7493,150.38669,0.9289111,509.97772,168.79678,0.9051581,471.65384,165.28018,0.9279297,506.93878,182.70164,0.88970023,475.02618,177.05063,0.908444,502.31134,170.07161,0.9855306,484.89044,170.16768,0.987698,506.9046,190.79034,0.9740655,487.8084,190.99458,0.9756241,505.0157,213.92824,0.940829,489.7087,214.23341,0.9424808,0.74686923,-0.08622155,0.73767326,-0.07885219
47,1566.6666666666667,44.982834,139.1743,0.091588356,42.12693,137.12463,0.01950308,45.987915,137.30453,0.0741618,31.948687,134.59157,0.087691434,46.958675,135.81532,0.4312398,24.266571,136.00858,0.70408505,47.97048,137.74947,0.93398803,8.913853,144.93884,0.65753716,66.45116,141.20935,0.9556066,6.815605,160.12514,0.66755104,87.697975,144.4033,0.92002285,22.887606,161.26901,0.95203847,35.471626,162.06035,0.9784678,26.373985,189.89035,0.90035343,35.223568,190.99966,0.95509815,11.057827,210.80801,0.7689114,16.861025,212.78491,0.854486,0.68868985,-0.19430554,0.65415381,-0.09285398
48,1600.0,494.86557,188.41086,0.5463033,497.26474,185.69847,0.4480928,492.08188,185.63942,0.4618368,502.8236,178.65189,0.22365537,487.69577,177.48361,0.26297635,511.40686,175.78954,0.84507364,478.04276,172.31065,0.8710104,514.97046,192.96605,0.7887011,468.77588,184.81871,0.8205083,508.16455,214.01468,0.739516,473.2756,200.73842,0.7710886,502.37042,187.94916,0.9295669,479.3011,186.62854,0.93690634,508.80423,216.03072,0.7757476,482.50177,214.70749,0.78822756,506.58365,237.90233,0.5038505,486.3579,235.89859,0.51868355,1.41212564,-0.87498906,-0.78041556,0.78704799
49,1633.3333333333333,507.38577,206.76677,0.77610457,510.3734,202.53583,0.5272147,503.68118,201.91066,0.8373605,506.52768,198.3443,0.14370777,490.78296,196.63666,0.7255179,502.53683,203.60548,0.6767989,475.00937,204.23195,0.74851,511.46613,218.37967,0.32754293,472.414,221.29855,0.48892587,507.34192,230.70146,0.32189867,488.39987,230.12387,0.41840214,490.0841,222.01341,0.2400414,469.89987,223.86322,0.27651334,509.06094,228.07375,0.056940157,484.74948,230.29791,0.07204923,504.1221,233.29007,0.033925656,484.06226,237.08887,0.040183343,2.23557883,0.97422981,-1.00640937,1.7423631
50,1666.6666666666667,488.65085,218.90326,0.07379979,487.3473,215.06714,0.061030854,493.93506,214.52115,0.038132764,469.9902,218.71849,0.6289434,511.1219,218.91783,0.45376125,460.3494,238.97165,0.23538952,522.34283,240.0,0.30534416,464.4822,235.15646,0.022763642,521.22595,239.57869,0.03637106,474.69006,233.82254,0.015592618,506.94714,237.86412,0.020180298,475.47934,240.0,0.0074742786,516.0162,240.0,0.009948773,477.15494,227.21912,0.003812378,512.5074,227.40077,0.0045126406,481.5937,230.38538,0.0086584585,511.16617,230.16747,0.009889572,1.81293672,1.01549825,-0.88383229,1.21422541
51,1700.0,41.566933,130.49791,0.09731163,39.18909,127.74252,0.019985003,42.886387,128.27028,0.08732131,28.015514,126.95116,0.09746308,45.48317,128.18199,0.5089727,20.616383,136.5228,0.67874527,47.102226,137.02963,0.9427309,8.060295,153.27948,0.5476754,67.23547,144.01361,0.95103276,9.658016,164.83333,0.536799,90.965836,142.10104,0.89500016,20.990633,178.84999,0.93185496,36.11048,179.44542,0.97300243,14.051169,204.80435,0.8551195,28.039486,206.93607,0.93991923,7.7460785,223.84845,0.6990342,19.799904,227.27493,0.8142599,1.31295337,-0.01965164,-0.94327849,0.9130641
52,1733.3333333333335,51.461014,136.29439,0.20637959,49.29657,132.90208,0.04789957,51.764603,133.64436,0.20864975,35.57064,128.72801,0.13441332,49.40666,130.98506,0.66172874,23.816067,134.31744,0.7890926,47.388042,139.79466,0.9533831,8.529356,151.1505,0.5973891,59.36988,154.89052,0.93245745,7.199011,169.22272,0.53483236,69.09907,158.99486,0.85417974,19.892338,178.31064,0.9395637,34.05977,180.46,0.9706792,15.768633,208.09473,0.8819277,29.74096,209.77216,0.9403176,10.914339,227.87729,0.7627148,25.75308,228.06354,0.8386358,2.42964831,0.29821356,-0.50431009,2.35795057
54,1800.0,38.90151,128.47672,0.08481184,37.04791,125.85034,0.020205187,40.22709,126.28972,0.07100941,28.164621,125.6301,0.105184965,44.283726,126.6481,0.44247705,22.249323,135.20503,0.6762143,45.396618,136.45023,0.9324373,8.48885,147.4131,0.53420234,58.174423,145.85847,0.9327418,8.74749,150.21935,0.49638778,70.85763,146.13905,0.8585917,23.78262,179.2519,0.9443096,38.178844,179.85075,0.9763289,17.489119,208.01399,0.90306985,35.221237,208.02939,0.9585827,10.981678,228.17912,0.8053382,32.798153,229.25877,0.8837379,8.15691795,-2.18280538,-2.21007202,7.54229758
55,1833.3333333333333,204.2663,191.35484,0.44476524,204.68336,190.54018,0.21182805,204.22542,189.97302,0.41959438,204.47903,190.32481,0.11383638,202.13849,188.75021,0.41424775,205.77847,193.55441,0.90279573,194.48137,189.21796,0.97763664,209.61847,198.55273,0.8566626,175.66695,186.81795,0.9843279,209.97113,199.49396,0.8572189,156.34827,188.62582,0.9727811,193.00485,208.64018,0.98620266,186.49092,206.23608,0.99395967,192.56448,222.04149,0.9642759,184.03964,219.87064,0.9825701,191.0719,233.21994,0.9243747,179.39645,231.36111,0.9539357,5.0763507,-4.86476229,-1.06855766,0.98061659
56,1866.6666666666667,618.7159,27.591537,0.022493375,617.4136,19.69104,0.0114366645,620.95465,18.888054,0.0060519497,614.2826,11.093727,0.038343593,628.7487,9.863129,0.015000277,623.4296,51.388687,0.20174764,624.6311,48.781982,0.1349942,607.72144,159.0375,0.31345487,610.9534,154.65172,0.16697086,596.796,169.35255,0.32946452,600.4979,163.81036,0.21995097,631.30426,197.51834,0.11219874,630.2045,196.28264,0.090854466,610.5057,155.83202,0.05908218,612.24084,154.96912,0.043349024,607.48035,173.04805,0.05411827,610.6927,167.59068,0.042546865,3.84628905,-2.01060792,-2.12114837,2.50042493
57,1900.0,45.410824,129.30435,0.010081109,42.83772,126.29744,0.0036991497,45.869034,127.145065,0.010514506,31.482206,124.14261,0.15640143,44.932632,126.5396,0.43990657,22.32061,134.34398,0.8762787,47.09511,136.60443,0.9453409,5.505703,148.0935,0.7829597,59.891552,145.87091,0.93823427,4.6566067,160.30302,0.60887796,72.838104,146.93295,0.7987836,22.745026,176.71562,0.981808,37.262886,177.54121,0.98872197,16.201355,200.2793,0.9239355,26.952179,201.03087,0.9471527,15.890516,222.25818,0.7902767,20.191286,224.51443,0.8335824,2.5926377,-0.44461825,-2.23561915,1.23535092
58,1933.3333333333333,49.265533,134.34491,0.020680659,46.679394,131.25632,0.005467156,49.556274,132.36197,0.023713857,33.14472,126.74185,0.11806879,45.608974,130.07954,0.51814914,24.083529,132.81763,0.9090664,45.321995,136.3685,0.9731863,7.340233,147.08904,0.8450656,57.447655,144.18329,0.97615165,4.4625397,167.21635,0.75062346,72.08869,148.71436,0.9185975,22.820757,171.44852,0.99120903,34.98479,172.91655,0.9955707,19.474627,196.07166,0.9641147,28.599232,197.12268,0.98007005,17.400888,215.99847,0.8842454,21.41832,218.98647,0.9228349,2.12425647,1.33017006,-1.61511877,-0.36674864
59,1966.6666666666665,49.848988,135.08734,0.010659283,47.19452,131.85402,0.0031378008,50.04019,133.00879,0.012210818,34.62043,127.14633,0.08793554,46.731598,130.6045,0.39262083,25.894096,133.42857,0.8253321,46.91362,137.26535,0.9337503,7.1887474,143.30133,0.7538415,58.110283,143.46196,0.9486741,6.309269,158.6441,0.63655275,70.85882,147.45139,0.8526759,23.175781,173.26122,0.9817976,35.22105,174.69598,0.98978186,19.324593,194.15115,0.93946344,27.91264,195.25491,0.9630762,14.895254,212.5916,0.8322593,17.556652,215.47198,0.8795801,0.81648439,0.61706134,0.50627525,0.17195181
63,2100.0,46.06658,125.80527,0.024906972,43.97762,122.859024,0.007234921,46.323673,123.70239,0.029029138,32.5636,121.42021,0.15965472,44.75818,124.10651,0.6196564,22.87064,132.25073,0.9154953,45.44757,135.8812,0.9748881,5.0272636,146.92134,0.7906097,54.638435,149.05988,0.9673331,3.9865246,157.44127,0.62984574,67.819954,151.24976,0.87555796,22.412172,173.70169,0.98445106,35.60836,175.15804,0.9922341,18.418085,197.26672,0.9267227,28.555742,198.52115,0.9595662,16.33176,217.59209,0.7904645,20.618586,220.48315,0.8579482,2.71918807,-2.10812916,-1.71681598,0.04814651
64,2133.3333333333335,50.35481,135.92462,0.18896054,47.460022,133.21432,0.03586216,50.687553,133.71246,0.20718409,32.438896,131.598,0.09527829,47.63861,133.35208,0.6796427,21.517021,137.94313,0.7306174,46.19836,140.36314,0.95482594,8.608459,149.7502,0.55271375,59.160774,144.10031,0.9519177,9.506357,163.97214,0.53934515,73.91676,142.31679,0.8989949,19.266752,175.7522,0.9236075,33.243496,176.77522,0.9690586,16.896027,201.70969,0.84129417,27.433979,202.975,0.9315368,8.536278,222.46027,0.68430907,14.941475,222.79791,0.7988002,1.97687004,-1.6077494,-1.01107663,0.54852627
65,2166.6666666666665,47.03064,131.60466,0.10521924,44.31524,128.631,0.023181166,47.900784,129.23781,0.09856437,30.79395,127.183426,0.100516185,48.1773,128.80832,0.53817445,21.167494,135.07762,0.6790464,48.65596,138.26448,0.92631924,8.873947,150.52994,0.53464967,64.4854,147.3727,0.9233561,7.837513,171.12894,0.49858359,75.97229,148.35034,0.84726304,19.646782,179.19293,0.905111,35.728874,180.38272,0.95568043,13.029072,206.60495,0.7938502,26.005363,208.4057,0.8959001,6.338112,224.29216,0.6078535,17.748066,225.03976,0.7220971,0.86967544,-0.50480138,-0.45911133,0.53919174
67,2233.3333333333335,45.91738,127.252716,0.11803975,43.420742,124.8996,0.022969944,46.66217,125.278625,0.114808284,30.596416,126.16016,0.088887244,46.667007,127.32062,0.56524426,21.70982,136.07808,0.6800213,45.593136,137.57903,0.9405951,7.8540077,146.47607,0.5442085,62.986717,143.9053,0.94553,7.0609703,147.36755,0.53693575,82.09862,141.54141,0.8884323,19.579967,178.14323,0.91659135,32.67483,178.62683,0.9653925,14.274577,207.77171,0.81156087,24.304626,207.64383,0.9151772,9.849777,228.8485,0.60710007,15.611542,228.55508,0.7364066,0.94585125,-0.72096937,-0.3930327,0.46942844
68,2266.6666666666665,43.196415,129.03784,0.108213335,40.600273,126.37146,0.024679733,44.26125,126.9093,0.09231224,29.505068,125.9066,0.102534935,46.495308,127.56691,0.4811332,22.244389,133.08249,0.6853206,47.583286,136.46298,0.9301304,9.995659,143.1894,0.57685906,59.437378,145.51678,0.936885,8.760792,152.18442,0.5663728,70.386,148.9439,0.88196677,22.392464,171.63554,0.9257478,36.820145,173.02863,0.9666532,21.088715,195.01593,0.8525836,30.861507,197.43687,0.9314693,11.776651,214.96553,0.7069728,17.067783,218.32101,0.808313,1.42500927,-1.1098261,-0.58954905,0.67184028
69,2300.0,47.208504,134.13013,0.13020246,44.23982,131.31097,0.026588479,47.98181,131.90526,0.12021028,30.768372,129.35658,0.0961586,47.465538,130.99074,0.5597992,21.643518,136.182,0.71881354,47.462196,138.30176,0.9415083,8.260868,151.6565,0.5988292,64.798996,144.99532,0.9457932,4.2010746,170.36334,0.57969594,82.827644,145.6262,0.8925436,20.416952,177.23848,0.9255104,34.77321,178.28995,0.96666527,15.386881,202.29713,0.828291,27.109463,204.81683,0.91792005,7.9035454,221.02103,0.6463742,15.693648,223.12987,0.7581905,1.26502033,-0.78139814,-0.58758389,0.8027693
72,2400.0,41.3375,125.0038,0.09354158,39.993103,122.00592,0.028186902,42.80594,122.7115,0.066263296,30.719965,122.100266,0.15570603,46.270077,123.79137,0.3841161,22.723894,132.5141,0.7597053,46.6086,136.51006,0.911868,7.8613396,149.86906,0.6431177,57.64901,150.06845,0.89066166,7.258745,162.71088,0.56864524,66.843956,147.18187,0.79512644,22.688366,176.70264,0.9544214,36.893116,178.63487,0.9723289,17.542374,207.49727,0.921107,29.157185,210.65645,0.9518033,16.728056,226.64146,0.83447015,28.447899,230.46576,0.87726647,1.03155994,-0.59642713,-0.32179553,0.77771346
74,2466.666666666667,33.878937,122.10016,0.08771757,32.114197,119.53682,0.023733914,35.183228,119.667656,0.069813654,23.887354,121.447296,0.11413139,39.66046,121.624054,0.4025294,18.959875,134.94127,0.6221352,42.662273,134.26466,0.9024014,6.4112625,153.6337,0.49486482,58.81729,144.2944,0.9072674,3.975296,166.72626,0.47092226,73.3221,141.6083,0.8293293,20.734337,178.34877,0.8942179,34.04741,178.07983,0.950686,15.508652,206.0788,0.7922869,24.538645,207.04929,0.89860356,6.046133,224.34032,0.61912227,13.222786,226.76779,0.7388884,1.14343224,-0.6195178,-0.42201887,0.86344372
75,2500.0,47.12448,134.5261,0.13491093,44.18603,131.64752,0.02752805,47.964264,132.01733,0.12996234,30.587719,129.11508,0.09558648,47.618004,130.354,0.58131325,21.559998,135.2014,0.7134254,46.940834,136.89375,0.9440851,9.666824,150.85005,0.58016497,57.49501,145.5637,0.9467427,8.34691,171.78186,0.55755657,66.95103,150.9037,0.8933182,19.499153,174.56705,0.92870975,34.036278,175.17941,0.9695304,17.745121,201.8612,0.84338564,26.773012,203.6254,0.929688,7.422283,221.10889,0.68092096,11.407139,222.97076,0.7921146,1.13283051,-0.60379649,-0.30803938,0.9076599
76,2533.333333333333,48.725883,126.68848,0.17169073,46.117073,123.867294,0.03218724,49.165813,124.53865,0.15923457,31.689707,123.47464,0.11634845,47.41204,125.39052,0.65242016,21.188166,132.06949,0.80797607,47.33812,136.1592,0.9674969,6.989994,147.02658,0.6728608,67.52522,144.82991,0.9645707,3.6811714,162.72517,0.641154,86.211044,143.18356,0.9203734,21.764462,172.86105,0.953819,36.643677,174.8115,0.9805391,15.770443,196.57526,0.89087015,28.91224,199.12988,0.95126873,11.524805,215.62311,0.74903154,23.777517,217.47961,0.8396997,1.04691654,-0.57874066,-0.1616347,0.85730258
78,2600.0,29.23576,135.42523,0.0051113423,27.424839,132.61067,0.0027944152,31.031149,132.81468,0.0035866464,24.343185,128.97734,0.1591134,37.50943,129.76901,0.19676544,22.870365,134.68463,0.8285151,44.0829,135.30415,0.92277277,8.60848,141.31918,0.82180256,57.51229,142.92871,0.9518124,7.629196,147.53827,0.68359786,69.67996,149.93198,0.8619082,26.117409,171.90083,0.9870272,38.360573,171.38281,0.99253523,20.874228,197.1659,0.9523659,28.69212,196.4634,0.96964,14.729607,216.87529,0.84701824,15.49865,215.98427,0.8881395,0.99807108,-0.30656551,-0.26677095,0.91159023
79,2633.3333333333335,37.996082,127.05368,0.089285016,35.8125,124.698105,0.020094104,39.33956,124.83728,0.06887647,26.929905,125.821045,0.100564376,43.34346,126.07347,0.43163398,21.168507,136.77849,0.6862359,46.132492,136.05653,0.9354134,8.499535,151.32954,0.59497136,65.20645,143.2488,0.9486696,5.847643,156.27063,0.58827907,84.37747,140.71132,0.90019834,22.83895,177.47957,0.93966156,36.616425,177.43854,0.9745204,18.337282,203.92816,0.8687562,29.26803,205.51764,0.94325817,8.786306,222.40015,0.71106637,17.17976,226.294,0.8187051,0.96892028,-0.34586878,-0.14640468,0.89316682
80,2666.6666666666665,28.43947,135.94925,0.0050064847,26.998947,132.73624,0.0034034825,31.009346,133.17334,0.0027516624,24.592186,128.28944,0.2631203,40.275417,129.33052,0.16985735,21.465042,136.16371,0.84652907,47.100266,135.6912,0.90183496,9.476044,152.50285,0.8070209,62.467678,145.1104,0.90028375,6.6818447,170.99565,0.6168036,71.79433,152.22305,0.7253053,23.375229,178.79398,0.97937506,39.066036,178.18175,0.9851156,15.06904,202.17416,0.9129354,28.905094,201.86827,0.9287211,13.828146,221.84235,0.7562205,22.160498,221.52087,0.7854649,1.01808845,-0.37387236,-0.16359986,0.93271573
81,2700.0,47.502583,124.855774,0.031640045,45.197323,121.78839,0.009915692,47.9463,122.744675,0.032434132,32.33925,119.640396,0.20502718,45.094574,122.50482,0.56441903,23.091232,131.21133,0.9367503,45.26719,134.11496,0.976539,7.9026985,148.34653,0.86950547,59.328316,144.16324,0.97052413,4.15526,168.21857,0.761369,76.873795,147.30347,0.89633733,21.924467,175.20908,0.9870891,34.35116,176.44464,0.9925484,16.7706,198.57028,0.92690295,25.528507,199.62872,0.952772,13.845699,219.23282,0.7619623,16.213167,222.2393,0.8194246,1.08055341,-0.36625735,-0.27512289,0.97865143
83,2766.6666666666665,36.33068,123.7507,0.0032000307,34.37303,120.32565,0.0015007842,37.48698,120.95065,0.002717172,27.669968,118.621,0.07605291,41.942154,120.35417,0.1689365,21.654108,131.72781,0.5722493,45.755108,133.17033,0.7262935,5.0449142,151.52562,0.46311226,52.11738,152.09067,0.75289845,8.280359,156.39224,0.28952447,60.77679,152.60774,0.5047446,22.309135,177.96179,0.9254527,37.301933,178.20477,0.9493727,15.828339,197.38124,0.835546,27.20544,197.78789,0.8795372,9.234512,219.55356,0.6990176,13.2899685,220.43413,0.7541866,1.05940433,-0.38296124,-0.3016526,0.94057639
85,2833.3333333333335,45.713974,132.35071,0.11584701,43.108257,129.36497,0.023511797,46.619392,129.70712,0.11714833,30.09671,127.036865,0.08236052,46.583916,128.21852,0.5438025,21.474049,134.13506,0.6287056,46.122547,136.0616,0.92966294,6.658287,149.27287,0.48188406,57.52433,146.02718,0.9348528,6.469261,161.32828,0.47697955,69.297455,148.44212,0.87136966,22.053171,178.07877,0.9019903,35.966576,178.75893,0.960284,17.115288,199.57022,0.8235278,26.628084,200.40279,0.92393976,8.766087,221.76529,0.6870101,14.781482,222.80717,0.803238,1.053115,-0.40605191,-0.28150967,0.93001363
86,2866.6666666666665,46.088158,129.44368,0.11277208,43.780094,126.66405,0.022245847,46.827023,127.17636,0.09877513,31.402172,126.038345,0.104205355,47.087875,127.46713,0.5502407,21.833738,134.82742,0.75116324,47.723618,136.90616,0.9544759,6.8063583,151.01144,0.63400394,65.9212,144.97145,0.95771396,4.80595,168.36067,0.6019868,83.32019,145.03532,0.90715075,21.523129,176.97699,0.9519288,36.117702,178.02377,0.9797855,15.779945,206.73026,0.8849566,28.084904,208.6936,0.9493699,8.99971,224.99286,0.73135614,20.473797,227.14145,0.8292943,1.05383228,-0.35692282,-0.2638232,0.95580641
88,2933.333333333333,46.432827,132.11714,0.090546794,43.803375,129.2597,0.017258435,47.44379,129.81488,0.08389291,30.61985,127.472015,0.080621354,47.391,128.99745,0.5132637,21.708076,134.86208,0.69148886,46.36541,137.52048,0.9409669,10.183109,151.37901,0.57045054,57.51001,148.94283,0.94612765,12.155695,168.10294,0.5446417,67.832954,154.3744,0.88717794,22.383791,177.1007,0.9423231,37.40097,178.40675,0.97590655,15.197143,205.72664,0.8820567,30.654343,208.06445,0.94846845,8.78096,224.9302,0.74868906,25.300228,227.74301,0.842366,1.05017129,-0.31147842,-0.27782499,0.96366706
89,2966.666666666667,50.567177,137.33911,0.021669975,47.79457,134.20259,0.0059957756,50.550003,135.20253,0.026271714,34.58147,129.29526,0.1359732,46.50202,132.84433,0.56816405,26.071646,134.92279,0.9021591,47.72487,139.81609,0.97183955,8.268269,145.50618,0.7886724,58.21452,150.17465,0.968038,6.095869,155.37436,0.6543797,67.51416,153.5747,0.88741535,22.403316,173.53186,0.9885815,35.400597,175.0657,0.9943527,16.202581,198.00426,0.96031016,26.446001,199.09064,0.9779653,11.848385,219.58359,0.8892675,16.653341,222.55661,0.92614126,1.0790022,-0.3313757,-0.28838775,0.9855295
90,3000.0,38.703667,122.74893,0.09838171,37.1701,119.85605,0.03015359,39.83044,120.39183,0.073531084,28.475834,121.40997,0.14842355,43.984867,122.73149,0.40028715,21.059849,134.11633,0.69396085,46.54657,136.07684,0.8969937,5.842478,151.78064,0.55596995,57.77626,149.28287,0.87749064,3.2211895,165.20346,0.5011743,66.8923,151.20395,0.78314364,20.825333,178.26993,0.9118742,35.836082,179.11478,0.95033705,16.160591,204.26913,0.8404745,28.503582,206.48882,0.9079549,9.287275,224.86209,0.70051855,20.30999,228.01257,0.7792796,1.01697835,-0.20462265,-0.25522561,0.96293012
92,3066.666666666667,47.116074,129.3126,0.011588958,44.807274,126.16989,0.0035394984,47.71631,127.095276,0.011974601,32.249454,123.33484,0.14424603,46.347916,126.417786,0.48813683,22.108553,132.78928,0.9047876,46.83836,136.8235,0.9633446,5.492588,150.51701,0.82073504,57.01763,151.532,0.9580769,4.0726833,167.23547,0.66161567,70.83298,156.67018,0.8470443,20.422205,176.2518,0.98787874,35.688866,177.9809,0.99298686,15.524643,201.42474,0.94153905,32.601425,202.96918,0.9625898,13.228489,222.9114,0.82218695,27.949062,226.23312,0.8679308,1.06830301,-0.27807064,-0.37166155,0.96219319
93,3100.0,46.362865,132.389,0.11131869,43.495846,129.72339,0.021248164,46.989883,130.0433,0.09957714,30.536938,128.24974,0.082692355,46.223404,129.36691,0.52338684,22.127575,134.88667,0.69977415,46.79526,136.4506,0.9430299,7.1973343,149.60957,0.6022995,64.3822,143.92877,0.9536493,4.6914215,163.99219,0.59875596,81.18958,144.52039,0.9090951,23.752,174.63576,0.93466383,37.171383,175.19644,0.9727121,17.104593,197.5716,0.8616155,26.81189,198.27515,0.9386788,7.6943436,220.13397,0.70733106,14.576884,220.44395,0.8128478,1.08866018,-0.38345253,-0.35888799,0.9535956
94,3133.3333333333335,40.441914,124.7605,0.06492102,38.551815,122.23563,0.018149532,41.958607,122.57573,0.045612007,28.971449,123.07909,0.10212226,44.60061,123.97716,0.30529135,22.277428,133.86775,0.65107024,43.652275,135.51749,0.86133486,8.020025,152.98451,0.59230244,55.469025,147.34381,0.8718925,5.791914,172.23637,0.54507077,67.04182,147.0651,0.7861244,21.516026,180.77824,0.911129,33.28163,181.54395,0.9457429,17.065216,213.71921,0.7978791,25.313692,215.19028,0.8699958,12.775164,229.47571,0.5929515,19.549568,230.37996,0.67195755,1.06526722,-0.38885673,-0.30779374,0.9427872
95,3166.6666666666665,33.849503,151.50821,0.15358233,32.001762,149.40872,0.05057369,35.783066,150.38934,0.09231292,26.917597,145.04085,0.1789964,41.086,146.8466,0.34280497,24.129852,143.56036,0.8046799,44.874657,148.60934,0.9292284,12.172947,144.8217,0.7636995,63.975945,152.02486,0.93499523,8.005594,149.1998,0.74502015,83.61797,153.38683,0.89105475,29.227226,176.98093,0.9631634,40.795288,179.1571,0.97783685,15.97097,198.82132,0.927316,30.14235,202.44424,0.95580053,14.929971,220.40584,0.8257523,30.994133,224.84927,0.87206155,1.07691375,-0.3773114,-0.33849942,0.95015656
96,3200.0,101.67221,194.74995,0.47151774,101.9136,193.56238,0.46586266,101.643196,193.60799,0.2198557,103.81439,193.2852,0.59356374,105.032776,193.06544,0.17486633,107.62432,196.59917,0.9452402,107.6921,195.58116,0.8771353,110.99233,202.49161,0.88492036,104.50936,200.44162,0.5948515,110.49783,205.55505,0.8177785,103.10444,202.34767,0.5640813,111.635475,208.2714,0.96402043,112.15871,207.6688,0.9424336,108.774086,221.48492,0.95131165,109.09244,220.81912,0.9143569,109.9823,234.22964,0.92932767,110.51584,232.69156,0.8937451,1.10593647,-0.35815105,-0.39401529,0.9693169
98,3266.6666666666665,112.24852,191.77327,0.30816904,112.83341,190.79254,0.27384144,112.74195,190.72162,0.17879735,112.81006,191.2744,0.6118844,117.00613,191.32076,0.33855557,110.4796,196.60092,0.9668231,119.55836,196.46548,0.95551,105.17182,203.9134,0.83468515,121.00097,203.89899,0.7100311,102.78228,210.54805,0.70177364,117.531235,210.46877,0.56601715,110.95508,210.19003,0.98050666,115.934135,210.04883,0.9770471,109.0673,221.4242,0.96505517,113.1673,221.3649,0.9567917,109.00691,232.5589,0.9515793,112.546616,232.46806,0.94345,1.13267134,-0.3340778,-0.41268434,1.00051388
99,3300.0,113.548615,189.49869,0.16431378,113.10389,188.20135,0.11259059,113.83233,188.33353,0.10144084,111.373085,187.7929,0.44838503,115.01346,188.31554,0.3639936,109.01084,191.38417,0.956223,116.23939,192.12018,0.96245944,101.02773,197.68843,0.89964527,120.54952,197.9606,0.90117383,96.130745,201.44115,0.8158347,123.15271,200.39606,0.8097332,109.08037,205.17314,0.9867785,113.10639,205.49498,0.9874628,108.46561,218.46674,0.973314,111.20619,218.80885,0.9714901,109.4476,230.08926,0.9490868,110.13078,230.42686,0.9460924,1.09952342,-0.31221535,-0.38836544,0.9801253
