frame_id,timestamp_ms,nose_x,nose_y,nose_conf,left_eye_x,left_eye_y,left_eye_conf,right_eye_x,right_eye_y,right_eye_conf,left_ear_x,left_ear_y,left_ear_conf,right_ear_x,right_ear_y,right_ear_conf,left_shoulder_x,left_shoulder_y,left_shoulder_conf,right_shoulder_x,right_shoulder_y,right_shoulder_conf,left_elbow_x,left_elbow_y,left_elbow_conf,right_elbow_x,right_elbow_y,right_elbow_conf,left_wrist_x,left_wrist_y,left_wrist_conf,right_wrist_x,right_wrist_y,right_wrist_conf,left_hip_x,left_hip_y,left_hip_conf,right_hip_x,right_hip_y,right_hip_conf,left_knee_x,left_knee_y,left_knee_conf,right_knee_x,right_knee_y,right_knee_conf,left_ankle_x,left_ankle_y,left_ankle_conf,right_ankle_x,right_ankle_y,right_ankle_conf,acc_x,acc_y,acc_z,acc_mag
0,0.0,528.4688,61.734863,0.9523695,530.94275,59.37796,0.9306176,526.32806,59.448624,0.89766294,535.2248,60.95305,0.7614438,523.53973,61.30693,0.5934022,541.44617,75.156494,0.9886774,520.1345,76.17597,0.9883553,549.2549,92.04738,0.9540063,516.4273,93.88548,0.93227535,548.125,108.66965,0.9287184,514.03577,110.06181,0.89899737,538.6234,109.2191,0.98747766,524.69104,109.54748,0.98690295,540.6296,135.04149,0.96257985,523.88574,135.11166,0.9557022,543.293,156.1193,0.9097916,525.105,155.99193,0.8994442,1.0249235,0.12871821,0.99560097,0.20658781
1,33.333333333333336,528.30914,61.568962,0.954304,530.81464,59.236176,0.9319416,526.174,59.28398,0.904096,535.0707,60.93492,0.7586186,523.3196,61.220444,0.6118536,541.1768,75.25763,0.98878914,519.6346,76.24834,0.98905504,548.8433,92.24823,0.95352125,515.7378,94.127045,0.937184,548.10596,108.966255,0.9278127,513.63556,110.60067,0.9039158,538.5062,109.47925,0.98696184,524.3686,109.829834,0.98675865,541.02716,135.51363,0.95848644,523.64386,135.5899,0.95243657,544.0659,156.55904,0.8976981,524.9409,156.43399,0.888643,1.00321808,0.16679325,0.97496675,0.16753019
2,66.66666666666667,528.0046,61.294006,0.95697004,530.5399,58.949768,0.93337554,525.82806,58.999863,0.91230005,534.7843,60.6549,0.7521793,522.8808,60.943474,0.6371491,540.77576,74.97676,0.9891255,519.1184,75.993065,0.9903252,548.52405,91.9713,0.9537065,515.13055,93.85658,0.94581574,548.06354,108.84743,0.9287293,512.84424,110.52804,0.9145935,538.2393,109.305824,0.9872918,524.0145,109.69659,0.98774827,540.96875,135.26964,0.9574995,523.4154,135.37556,0.95377755,544.30945,156.19681,0.8935715,524.9083,156.12706,0.88826454,1.02845855,0.15230017,1.00247904,0.17195181
3,100.0,527.635,61.35972,0.96834,530.2244,58.988243,0.95072037,525.45624,59.19729,0.9289924,534.63696,60.485336,0.82564676,522.7852,61.26924,0.690859,540.49805,74.872696,0.9953269,519.5326,76.47493,0.9962369,547.4743,91.49571,0.9762264,515.965,93.66625,0.97387516,548.9788,108.645226,0.9580978,512.387,110.02609,0.95131725,538.14703,110.13014,0.9936005,524.50684,110.81813,0.994344,540.5762,135.58298,0.9716916,524.3905,135.95244,0.9710934,544.05176,157.08057,0.9069142,526.2715,157.30234,0.90527105,0.98590751,0.13215725,0.95678899,0.19774458
4,133.33333333333334,526.64343,61.522766,0.9678705,529.2315,59.169785,0.95082575,524.57404,59.395493,0.9263094,533.84314,60.5793,0.82907254,522.20966,61.42833,0.67815137,539.9481,74.780815,0.9953023,519.089,76.45221,0.99617505,546.98,91.131805,0.97671825,515.1888,93.42618,0.9739402,548.547,107.8957,0.9589344,511.7585,109.718506,0.95167553,537.82166,110.24472,0.9935855,524.2363,110.94195,0.99430686,540.59753,135.77118,0.97122777,524.11755,136.11685,0.9704772,544.4374,157.34204,0.9045083,526.18536,157.47916,0.9024775,0.98153675,0.10439931,0.97177336,0.09039752
5,166.66666666666666,526.2241,61.546455,0.9602376,528.7822,59.1781,0.9371295,524.0081,59.284134,0.9197819,533.108,60.693947,0.7562256,521.12787,61.184555,0.6561898,539.30945,74.64314,0.9900935,517.64307,76.067116,0.9917576,547.5395,91.07673,0.95762366,513.7236,93.78183,0.95513946,547.56525,107.55606,0.93437016,510.98312,110.55638,0.9268791,537.367,109.13855,0.98840207,523.1149,109.74243,0.989233,541.3164,135.2453,0.95777214,523.207,135.50105,0.9558552,545.36707,155.83145,0.8892811,524.9199,155.90173,0.88688153,0.97366059,0.12429659,0.95973673,0.10710141
6,200.0,525.9177,61.66774,0.96152276,528.50214,59.293503,0.9385122,523.69196,59.420273,0.9228028,532.83777,60.81357,0.7583143,520.82355,61.369995,0.6661131,538.8784,74.70683,0.9905504,517.4469,76.18486,0.99245703,546.8968,90.81996,0.95891494,513.17737,93.444405,0.9588198,546.97205,107.05982,0.9368172,510.06586,109.9198,0.9323932,536.9785,108.78336,0.98933417,522.9554,109.42703,0.99031115,540.9242,134.32944,0.9617368,523.6018,134.62137,0.9606788,544.6911,154.69365,0.9006694,525.5089,154.80345,0.8995888,0.98251844,0.13092902,0.97152771,0.06583298
7,233.33333333333334,525.6355,61.739136,0.96141,528.2044,59.341896,0.93932223,523.3659,59.50923,0.922327,532.4654,60.820343,0.7628559,520.43427,61.48378,0.6631331,538.5997,74.68004,0.9904757,517.03766,76.33195,0.99215126,546.6782,90.71828,0.95887053,512.91815,93.59743,0.95675963,546.805,107.034164,0.9363751,510.06464,109.889336,0.9294841,536.79156,108.779144,0.98875916,522.71606,109.506874,0.98961556,540.5604,134.42297,0.95915705,523.4785,134.79662,0.9573807,543.9645,154.72449,0.8937,525.4657,154.94154,0.89146054,0.99677211,0.08081735,0.99265322,0.04077714
8,266.6666666666667,525.74054,61.63137,0.9630335,528.19305,59.218292,0.93710667,523.33453,59.42563,0.9305613,532.08496,60.75009,0.74034935,519.9855,61.487503,0.70309263,538.09656,74.67236,0.9903861,516.2751,76.49318,0.993087,546.5647,90.683754,0.95593524,512.3114,93.9288,0.9632386,546.73413,106.76044,0.93284047,509.53714,109.99696,0.9373318,536.4459,108.92056,0.98847884,522.2315,109.78623,0.9901418,540.23145,134.71106,0.9556826,523.42017,135.24675,0.95741236,543.35596,154.9116,0.8827503,525.5147,155.41676,0.886959,1.01442386,0.19749893,0.99461838,0.02800358
9,300.0,525.24634,61.800056,0.96079874,527.7399,59.35562,0.9370779,522.82837,59.577126,0.9238376,531.7309,60.90605,0.75219715,519.5254,61.673477,0.6764038,537.90906,74.88808,0.9900677,515.8951,76.77414,0.9919469,546.3762,90.88401,0.955549,511.96167,94.371544,0.95524085,546.6755,106.85305,0.931396,509.7926,110.469604,0.9264609,536.4617,108.966324,0.98802173,522.11237,109.84453,0.9890514,540.07495,134.35474,0.95702606,522.99115,134.88103,0.9558531,542.94385,154.71848,0.8909404,525.0987,155.15898,0.8898725,1.01442386,0.19749893,0.99461838,0.02800358
10,333.3333333333333,525.2903,61.88955,0.9612196,527.7318,59.429916,0.93512344,522.82043,59.675766,0.92673624,531.5898,60.980362,0.73993737,519.37354,61.788315,0.69320536,537.6765,74.9948,0.9902293,515.64056,76.89205,0.9927689,546.12805,90.84082,0.9546893,511.18668,94.3349,0.9602595,546.45544,106.212,0.9313269,509.00516,110.1044,0.9334939,536.24615,109.1644,0.9892652,522.02295,110.05882,0.9906651,539.3157,134.28166,0.9634566,523.28564,134.82904,0.964111,541.4239,155.37805,0.9083086,525.55524,155.8779,0.91018754,1.00170635,0.16630196,0.98700338,0.03979456
11,366.66666666666663,525.1015,61.921646,0.9588961,527.3163,59.390045,0.93566436,522.6075,59.85402,0.91329587,531.2277,60.596107,0.7859935,519.3292,61.865776,0.6772867,537.8198,74.677216,0.9938467,516.02594,76.87442,0.99497485,545.41473,90.98221,0.96254194,511.5634,94.49872,0.9571752,545.71173,106.59801,0.93367714,508.61765,108.99942,0.92081034,537.0283,109.23501,0.99255145,523.2237,110.23603,0.9932066,539.3598,133.73235,0.9720401,524.3618,134.43416,0.97062397,540.14105,156.15327,0.92479366,526.8062,156.84425,0.92273074,1.00950025,0.1616347,0.99265322,0.08720413
12,400.0,525.0819,62.066772,0.9602126,527.46545,59.598648,0.9318282,522.63495,59.889336,0.9263831,531.24603,61.058914,0.7304927,519.3107,61.969566,0.70289814,537.508,74.9922,0.99049884,515.4669,76.92997,0.99356824,545.81067,90.55545,0.95425785,510.2905,93.85762,0.9648578,546.13495,105.79015,0.93187696,507.9776,109.31271,0.940324,536.0252,108.69832,0.9910926,522.0597,109.6149,0.99262416,538.31085,133.25374,0.97255963,524.1252,133.82979,0.9741926,538.6319,154.92639,0.9336207,526.2929,155.46965,0.93693054,1.00665408,0.11225997,0.99732048,0.07811525
13,433.33333333333337,525.1185,62.172585,0.9609338,527.4691,59.699463,0.93350255,522.6443,60.00264,0.92718625,531.1727,61.09381,0.73592436,519.2707,62.040726,0.70303416,537.4649,74.9861,0.9908393,515.48395,76.86815,0.9937698,545.7235,90.59785,0.95616686,510.24554,93.522224,0.9658808,545.9374,105.92494,0.9344247,507.3552,108.564026,0.9420611,535.7015,108.61616,0.99139166,521.83417,109.488846,0.99285406,537.76404,133.09094,0.973214,524.0172,133.64684,0.9746873,537.528,154.60822,0.9346057,525.84265,155.14961,0.93765086,1.01327627,0.07271105,1.00788324,0.07492186
14,466.6666666666667,525.374,62.261032,0.9632354,527.7333,59.782722,0.93609005,522.8727,60.09326,0.93169594,531.42096,61.19848,0.738041,519.4446,62.15438,0.7165523,537.62305,75.14169,0.99160516,515.56757,76.93425,0.9946556,545.59314,90.75302,0.959294,509.71515,93.2189,0.97088873,545.81165,105.88144,0.93955874,506.40778,107.705246,0.9498371,535.7177,108.65448,0.9925249,521.9482,109.49431,0.994011,537.21204,132.87396,0.9768884,524.59766,133.41786,0.97875845,536.0031,154.67256,0.9429278,526.3757,155.22314,0.94664943,1.02145497,0.04175972,1.0179547,0.07344799
15,500.0,525.605,62.188416,0.96457434,527.98615,59.731903,0.9389162,523.1399,60.01555,0.93288267,531.6748,61.169914,0.74835944,519.75,62.053604,0.7160055,537.8016,75.123764,0.9923307,515.7592,76.79445,0.9950747,545.48914,90.7573,0.9634314,509.6427,92.95551,0.9729586,545.7868,105.969055,0.9452977,506.05463,107.512764,0.9533423,535.74457,108.51648,0.99338293,522.00305,109.294334,0.9946635,537.09216,132.72913,0.9795197,524.5707,133.2161,0.9809152,535.76666,154.64987,0.94858396,526.2938,155.13037,0.9514396,1.03104733,0.14075484,1.02139374,0.00122823
16,533.3333333333334,525.8014,62.0474,0.9656889,528.1724,59.611862,0.94029534,523.34393,59.874245,0.93458843,531.80066,61.068542,0.7502532,519.9172,61.892853,0.71920633,537.7881,74.99627,0.9926628,515.9585,76.56613,0.9953891,545.34875,90.67933,0.96527004,509.7721,92.66586,0.9748454,545.6573,105.639984,0.9482222,505.76865,107.02403,0.95644563,535.8078,108.22273,0.9938338,522.20703,108.964096,0.99508214,537.0288,132.62167,0.98102367,524.73376,133.07594,0.98242056,536.03326,154.78336,0.95190763,526.606,155.22678,0.95474195,1.03791184,0.14787855,1.02728923,-0.00835194
17,566.6666666666666,526.2042,62.102905,0.96703386,528.6235,59.685387,0.94190365,523.7661,59.91266,0.93792456,532.2484,61.278557,0.75112695,520.29425,62.009888,0.72996235,538.06976,75.4164,0.9928498,516.1245,76.842804,0.99566144,545.63995,91.12347,0.9657385,509.5447,92.771355,0.97644675,545.7908,106.00404,0.94890213,505.18045,107.06674,0.9586133,535.7986,108.79991,0.99378467,522.1368,109.47847,0.9951338,536.94037,133.11154,0.98000175,524.69617,133.51717,0.98178697,536.08765,155.02585,0.9483417,526.8314,155.43976,0.9519518,1.04664244,0.10046898,1.04153666,0.02382761
18,600.0,526.2774,61.98233,0.96666044,528.7819,59.6326,0.9436651,524.0103,59.768234,0.93474114,532.6041,61.34639,0.7654321,520.8142,61.855408,0.71172214,538.4132,75.67918,0.9930669,516.5707,76.726776,0.9954426,545.826,91.62284,0.9678018,509.84256,92.429375,0.9746901,545.82196,106.49423,0.95112795,505.1019,106.44307,0.95624745,535.599,109.08417,0.99391866,521.9982,109.56509,0.99501956,536.9357,133.56659,0.980507,524.5284,133.79117,0.981384,536.66144,155.41202,0.94917375,526.85547,155.56494,0.9510257,1.05361753,0.13535064,1.04350183,0.05379635
19,633.3333333333333,526.4573,61.852287,0.96737915,529.0134,59.529343,0.94516087,524.23987,59.63011,0.93585384,532.9516,61.347237,0.7698108,521.1795,61.78302,0.7119331,538.8202,75.81647,0.99320364,516.92285,76.76259,0.995539,546.2493,91.77457,0.9685324,510.07666,92.46332,0.9752491,546.1519,106.519516,0.9521006,505.07162,106.63454,0.9570459,535.7154,109.20976,0.993954,522.0548,109.61347,0.99504894,537.3544,133.86206,0.9801972,524.5771,134.0001,0.98109376,537.179,155.67448,0.94760233,526.76166,155.71367,0.94952744,1.0368018,0.15303711,1.02360455,0.06141136
20,666.6666666666666,526.7882,61.852356,0.9663561,529.3539,59.551804,0.9432088,524.60724,59.638626,0.93447953,533.32263,61.457993,0.7646556,521.6111,61.85025,0.71117777,539.16144,76.01189,0.9928445,517.3636,76.88779,0.9953355,546.5104,91.89798,0.9664052,510.51154,92.54422,0.97412825,546.45746,106.36458,0.94909626,505.63022,106.5921,0.95509815,535.9454,109.33322,0.9936342,522.3536,109.68263,0.994808,537.3141,133.93254,0.9794335,524.65,134.01253,0.9804904,537.1307,155.62386,0.946406,526.83264,155.58723,0.9486267,1.04731696,0.1102948,1.04055408,0.04421618
21,700.0,527.2469,61.811737,0.96385443,529.8289,59.51529,0.93962115,525.08813,59.597397,0.9300981,533.8296,61.506546,0.7575667,522.11664,61.86686,0.7013183,539.56866,76.148285,0.9921725,517.8118,76.97197,0.9947438,546.8286,91.91145,0.96308243,510.86697,92.48797,0.9705738,546.93854,106.27365,0.94440293,506.5119,106.25514,0.949763,536.2561,109.447266,0.99319434,522.7001,109.77103,0.99435776,537.2617,133.91776,0.97921455,524.78973,133.98412,0.98000175,536.79645,155.6069,0.9478653,526.8529,155.55075,0.9495258,1.04731696,0.1102948,1.04055408,0.04421618
22,733.3333333333333,527.67944,61.43538,0.9631793,530.2534,59.158768,0.9376281,525.5464,59.222015,0.92991936,534.2594,61.21013,0.7490249,522.585,61.492134,0.7046332,539.8669,75.95386,0.9917311,518.14075,76.58677,0.9945581,546.93134,91.9879,0.96052086,511.20306,92.06815,0.96984947,547.33014,106.81883,0.94100165,507.4731,105.7111,0.94844186,536.4533,109.22521,0.9927538,522.87854,109.48034,0.99406683,537.36383,133.72076,0.97793305,524.7547,133.73955,0.9791101,536.834,155.482,0.9452285,526.55115,155.38174,0.9476218,1.02138597,0.03414472,1.01991987,0.04274231
23,766.6666666666667,528.1531,61.40145,0.96316075,530.78,59.144302,0.94135964,526.0737,59.1335,0.9253538,534.92004,61.252068,0.7688705,523.1967,61.355896,0.6743696,540.7112,76.127106,0.9920695,518.8432,76.42419,0.9940003,548.187,92.46286,0.9644202,512.061,91.80642,0.9657012,548.0419,107.13026,0.9457648,507.51337,104.94685,0.94362265,536.6389,109.3985,0.99280167,522.98035,109.441666,0.9936283,537.2878,134.01895,0.9781854,524.6303,133.86182,0.9775698,536.9677,155.73318,0.94501203,526.50214,155.4107,0.9441696,0.99213468,0.04175972,0.99117935,0.01228227
24,800.0,529.13745,61.018417,0.9600131,531.6468,58.482407,0.9387469,526.69434,58.711967,0.9130362,536.0998,60.214005,0.7831995,523.5068,60.77951,0.65749085,541.94934,75.74245,0.99315757,519.91895,75.934784,0.9944564,548.5992,93.562515,0.9529016,513.14545,92.3649,0.9453041,549.6063,108.26672,0.91512215,508.1552,104.14195,0.8985865,538.0692,110.57322,0.991433,524.5857,110.49313,0.9921394,537.05597,135.16507,0.9679373,524.8635,134.83359,0.9658948,536.58984,158.28345,0.9231527,528.64844,157.7402,0.920441,0.84707431,-0.01793212,0.84428338,0.06632427
25,833.3333333333334,528.92834,61.492073,0.96225023,531.6474,59.235947,0.94197315,526.8788,59.13878,0.92121404,535.96295,61.333008,0.7743189,523.97034,61.19905,0.65265125,541.68884,76.14046,0.9917589,519.41754,76.10907,0.993119,549.3061,92.79971,0.96456814,512.8647,91.721344,0.96020067,548.78644,107.09862,0.9456431,509.1006,104.55975,0.93662274,537.12445,109.427124,0.99204445,523.1325,109.29881,0.9925598,537.728,134.07928,0.9757801,524.38074,133.76067,0.97373986,537.8991,155.72502,0.93869966,526.6578,155.19482,0.9353914,0.96589327,0.08302816,0.94647188,0.17391697
26,866.6666666666667,529.0943,61.433792,0.96165323,531.79565,59.177277,0.94005543,527.0495,59.068916,0.92128646,536.0598,61.178406,0.76713777,524.10815,61.001266,0.6583741,541.66925,75.83984,0.9916706,519.37494,75.79198,0.9932307,549.196,92.51058,0.96390533,512.9157,91.60428,0.9611976,548.88837,107.2341,0.9450181,509.83676,105.14311,0.9378174,537.02637,109.09691,0.9922733,523.0144,108.96695,0.9928768,537.5628,133.82452,0.97694856,524.1048,133.49873,0.97538185,537.569,155.67284,0.942135,526.2889,155.15652,0.939686,0.96589327,0.08302816,0.94647188,0.17391697
27,900.0,529.37213,61.349365,0.96047413,532.08685,59.10195,0.9375024,527.345,58.955902,0.9200998,536.2812,61.220642,0.76119405,524.345,60.94262,0.6623121,541.73895,76.003525,0.9915992,519.3623,76.04118,0.993148,549.2368,92.677055,0.96312624,513.4033,92.5664,0.9604321,548.7912,107.749016,0.9437563,510.75677,107.5497,0.9362641,536.9396,109.299225,0.9923211,522.7946,109.199,0.9928987,537.39905,134.14294,0.9771856,523.44617,133.84407,0.97562134,537.58435,155.73326,0.94310033,525.5923,155.27446,0.9406938,1.18197719,0.30509164,1.13168854,0.15254582
28,933.3333333333334,529.8698,61.232727,0.9603255,532.5056,59.002167,0.9329932,527.7944,58.84568,0.92445743,536.4146,61.097,0.7378199,524.5515,60.766846,0.69050944,541.5407,75.736725,0.9911248,519.33813,75.81656,0.9935415,548.8739,92.320854,0.9590415,513.6301,92.625656,0.96393824,548.6422,107.57593,0.93851703,511.14914,108.36454,0.93985844,536.94025,108.989136,0.99197793,522.83124,108.94928,0.99303174,537.573,134.02188,0.97550255,523.2806,133.77992,0.97556645,538.0985,155.38144,0.9389308,525.2392,155.03198,0.9394506,1.17734159,0.31344358,1.12259966,0.16630196
29,966.6666666666666,529.945,61.130318,0.9616484,532.5264,58.883293,0.93343246,527.8055,58.745758,0.9280671,536.2793,60.938065,0.7327555,524.3882,60.638298,0.70414203,541.31244,75.5514,0.9914746,519.0763,75.7348,0.99404234,548.7995,92.177795,0.9601277,513.56036,92.80853,0.9669973,549.0414,107.97362,0.9402639,511.21323,109.14201,0.9440911,536.9762,108.96126,0.99244237,522.8009,109.00334,0.993583,537.7413,134.03131,0.97653526,523.1341,133.87494,0.97712666,538.3569,155.48439,0.94094443,524.8671,155.26797,0.9424359,1.21842874,0.24024124,1.16411374,0.26775353
30,1000.0,530.0905,60.872818,0.95923775,532.6165,58.59912,0.9293348,527.8936,58.49507,0.9245685,536.225,60.62422,0.7228125,524.2865,60.393867,0.69884795,541.0751,75.1966,0.9907126,518.8881,75.569786,0.99330795,548.36926,91.77227,0.95641106,513.4247,92.920845,0.96268314,548.9784,107.97682,0.9347686,511.48874,109.75743,0.9375045,537.1188,108.718765,0.9917448,522.92444,108.89757,0.99286735,538.1497,133.74889,0.975198,523.27765,133.73633,0.97550404,538.80206,155.24667,0.93951005,524.80286,155.20161,0.9404969,1.19815345,0.22083525,1.13807532,0.30263518
31,1033.3333333333335,530.12866,60.773834,0.9571413,532.59357,58.46669,0.9257613,527.91095,58.399033,0.9201123,536.19336,60.40857,0.71744275,524.3097,60.248108,0.6908847,541.2115,74.96071,0.9906831,518.8526,75.43792,0.99309266,548.5271,91.733025,0.95638776,513.6843,93.19502,0.96091783,549.0358,108.233574,0.93494576,513.0158,110.23908,0.93545705,537.37256,108.423874,0.9923994,523.0532,108.65484,0.9933288,538.0805,133.47235,0.978986,523.1574,133.52008,0.97890764,538.1172,155.6315,0.9501557,524.42975,155.67166,0.9504324,1.01557401,0.28568565,0.95408689,0.19872716
32,1066.6666666666667,529.8869,60.51831,0.9544177,532.3509,58.203682,0.9228799,527.7064,58.145355,0.91363215,536.0338,60.115448,0.71714765,524.23,59.9935,0.67269343,541.1432,74.67267,0.9901884,518.9391,75.20622,0.9923558,548.5168,91.38985,0.9548076,513.89996,92.970795,0.9563312,548.63715,107.63571,0.93283904,513.3632,109.81258,0.92961526,537.25555,108.23653,0.9923056,523.0696,108.478935,0.9930617,537.7078,133.31604,0.9801349,523.253,133.37854,0.9795105,537.64276,155.79633,0.9542821,524.6641,155.8352,0.95361185,0.95569734,0.21518541,0.91159023,0.18988392
33,1100.0,529.42053,60.068176,0.95240825,531.90875,57.743576,0.92163706,527.2943,57.698654,0.90826565,535.77637,59.584183,0.7214762,524.06964,59.533394,0.6559608,541.14813,74.150375,0.9897676,518.9775,74.80536,0.99174654,548.31464,90.85389,0.95346695,513.9606,92.81111,0.9525536,548.0244,106.90493,0.930972,513.4296,110.06058,0.92473423,537.13116,107.870186,0.99209654,523.0341,108.11577,0.99273396,537.4556,133.09006,0.9804401,523.3985,133.12863,0.9794295,536.9138,155.89342,0.9557263,524.73944,155.85912,0.9544469,0.9325633,0.13682451,0.90348393,0.18619924
34,1133.3333333333333,529.10535,59.803543,0.95322305,531.59174,57.454575,0.92336494,526.9299,57.426865,0.9092366,535.4259,59.234596,0.72584975,523.64624,59.232826,0.65545225,540.79645,73.769226,0.9899204,518.6581,74.461365,0.99185705,547.7451,90.67261,0.9545263,513.79926,92.56604,0.95322835,547.4795,106.99144,0.9325091,513.2936,109.84932,0.92592525,536.94916,107.49856,0.99213856,522.8655,107.772575,0.9927724,537.45386,132.97113,0.98046094,523.41504,133.02972,0.9794206,536.7797,156.00548,0.9554948,524.6091,155.98329,0.9541592,0.88466595,0.14763291,0.85484613,0.17342568
35,1166.6666666666667,528.8603,59.582184,0.9525574,531.39954,57.22174,0.9223104,526.6727,57.18142,0.90875095,535.2385,59.104607,0.72410136,523.3428,59.059174,0.65669805,540.3234,73.81717,0.9898548,518.32275,74.47972,0.991839,546.8469,90.8055,0.953926,513.5485,92.644226,0.9528475,547.04193,107.499695,0.9318553,513.27386,110.1084,0.9254452,536.4997,107.588936,0.9923516,522.49005,107.87874,0.99299,537.0881,133.12549,0.98161983,523.16174,133.20892,0.9806803,536.2675,156.30994,0.9589643,524.0839,156.31003,0.9577695,0.88466595,0.14763291,0.85484613,0.17342568
36,1200.0,528.71136,59.22328,0.9512404,531.2669,56.87201,0.9190447,526.52563,56.810944,0.9078633,535.0318,58.86915,0.7167437,523.1214,58.7688,0.66134864,539.88184,73.7062,0.9897125,518.0112,74.39671,0.9919117,546.10034,90.59065,0.9523931,513.3243,92.78721,0.95317954,546.199,106.8089,0.929941,513.1723,110.49594,0.9254988,535.9925,107.62971,0.9926494,522.0542,107.9377,0.9933436,536.6397,133.30154,0.98301804,522.8198,133.39493,0.98236233,535.841,156.72429,0.9627479,523.7498,156.7319,0.9619544,0.91043428,0.26824482,0.8482137,0.19356861
37,1233.3333333333335,528.15845,58.832024,0.9531761,530.7355,56.495728,0.9214231,525.98584,56.440536,0.9120221,534.5548,58.600082,0.7198301,522.68463,58.525116,0.6714941,539.5118,73.57922,0.9900675,517.6594,74.26694,0.9925237,545.65546,90.64779,0.95347565,513.06354,92.7249,0.95717806,545.6973,106.60187,0.93148506,513.06616,110.091324,0.93059546,535.7098,107.46651,0.9928086,521.71893,107.761215,0.9936566,536.65015,133.46661,0.9828902,522.35767,133.52728,0.98269755,535.9886,157.16737,0.9617431,523.09973,157.12752,0.9616815,0.90611747,0.25596255,0.85067016,0.17858423
38,1266.6666666666665,527.5942,58.37213,0.9514125,530.1781,56.02133,0.91983646,525.4183,55.991425,0.90795577,534.0741,58.21353,0.72058535,522.1959,58.225967,0.6605752,539.15204,73.38216,0.98949546,517.4495,74.21918,0.99174726,545.37463,90.55885,0.9509857,513.2586,92.91773,0.9522957,545.211,106.29077,0.9277043,513.502,109.99429,0.92381656,535.54456,107.49991,0.99215573,521.61847,107.8563,0.9929293,536.62067,133.66504,0.9816684,522.39624,133.78163,0.9811431,536.01666,157.59282,0.95953697,523.0734,157.59692,0.9589863,0.97786451,0.23557398,0.90741425,0.27807064
39,1300.0,526.9402,59.012344,0.94924426,529.45044,56.565872,0.926866,524.7181,56.727554,0.88518995,533.8223,58.14801,0.78799176,521.80615,58.66429,0.60136044,538.8964,72.66035,0.99297607,518.7363,73.98594,0.992834,544.83844,89.427704,0.96118295,515.1372,92.74313,0.9365846,545.4756,104.42902,0.93275315,512.6423,109.002106,0.8946479,535.5809,107.60465,0.9931452,522.90125,108.032104,0.9928894,536.22455,133.5265,0.9808834,523.35126,133.71863,0.9769717,536.54944,157.85214,0.9528576,524.8585,157.89027,0.9464775,0.98449449,0.26529707,0.90962506,0.26726224
40,1333.3333333333333,525.8681,59.29213,0.9489213,528.4264,56.77301,0.9292833,523.61255,56.982132,0.88182396,533.04156,58.10241,0.79691637,520.801,58.772728,0.58318853,538.6255,72.414894,0.9928006,517.99365,73.968636,0.992201,544.9741,89.1382,0.9609684,514.693,92.89586,0.9303112,545.35,104.14578,0.93211937,512.5315,109.30505,0.88671607,535.42694,107.798584,0.99270964,522.48724,108.28864,0.99220496,536.2815,133.96951,0.9796411,523.29395,134.17911,0.97477734,536.48773,158.5686,0.94999945,525.23694,158.5762,0.9421109,1.00512849,0.33088441,0.91502926,0.25203222
41,1366.6666666666667,525.6177,58.881454,0.9529988,528.17676,56.308243,0.9327859,523.13684,56.590683,0.8947133,532.58984,57.846275,0.79554754,519.919,58.693863,0.6149344,538.3309,72.51864,0.9932461,516.9476,74.26523,0.99319226,545.1478,89.487976,0.9619597,513.41876,93.135994,0.939199,545.3895,104.89189,0.93370426,511.3443,109.12919,0.89798504,535.48773,107.906525,0.9929575,522.063,108.542076,0.99276936,536.52454,134.1338,0.97913146,523.3181,134.49083,0.9751882,536.2422,158.84058,0.9474191,525.39746,159.08913,0.9408944,1.00512849,0.33088441,0.91502926,0.25203222
42,1400.0,524.40985,58.415924,0.9551458,526.92035,55.77878,0.9356225,521.79736,56.208267,0.8988587,531.3581,57.50093,0.79991347,518.5487,58.73677,0.6226857,537.67377,72.57953,0.9936162,515.8221,74.80121,0.99365485,544.87445,89.751236,0.96356577,512.3932,93.769485,0.942865,545.14594,105.847626,0.9360205,510.13348,109.44826,0.90325326,535.5969,108.10643,0.9932643,521.88806,108.98727,0.9931632,536.6711,133.99605,0.97955817,523.41205,134.59305,0.9759453,536.18335,158.7626,0.94816166,525.7711,159.3097,0.94214207,0.95023054,0.38345253,0.85165274,0.17489955
43,1433.3333333333333,523.4567,58.2715,0.957168,525.8671,55.551422,0.935683,520.668,56.12298,0.9067645,530.2266,57.288315,0.7897564,517.2723,58.85956,0.649413,537.1409,72.70928,0.99349254,514.7009,75.18773,0.9942116,544.5332,90.577286,0.960635,511.3661,94.31172,0.9487403,544.7382,107.42566,0.93138164,508.9476,109.25673,0.9101791,535.8937,108.35561,0.99293125,521.85065,109.40513,0.9932868,536.8488,134.17317,0.97767603,523.59106,134.93478,0.97551155,536.1777,159.1088,0.94321626,526.34314,159.87149,0.9397381,0.91421151,0.33776248,0.82512303,0.2021662
44,1466.6666666666665,523.0815,58.76336,0.95690674,525.41095,56.03688,0.93201125,520.2932,56.599655,0.91053975,529.62854,57.53334,0.77189994,516.7858,59.04155,0.6711977,536.5566,72.70255,0.9933119,513.843,75.15763,0.9945476,544.1431,90.59565,0.9578184,510.52762,94.45144,0.95272726,544.6066,107.601135,0.9271055,508.5745,109.601654,0.91466486,535.4766,108.48664,0.99302673,521.2599,109.58952,0.99369353,536.77405,134.33887,0.97793144,523.14764,135.16455,0.9770811,536.1535,159.0995,0.94411784,525.8584,159.95837,0.9429685,1.36068617,0.05232248,1.35596283,0.10046898
45,1500.0,522.4823,58.557884,0.9588219,524.83295,55.80242,0.9334925,519.61127,56.386497,0.91500276,529.07513,57.40303,0.77013093,515.95105,58.96312,0.68321335,535.7274,72.583626,0.99373996,513.09247,75.2326,0.99503845,543.2742,90.260506,0.96062547,509.69647,94.69941,0.9573857,544.40436,106.792175,0.93230635,507.91098,109.72321,0.9225218,535.1309,108.22412,0.9936864,520.9285,109.46631,0.9943764,536.689,134.01929,0.9798288,523.06287,134.98889,0.9793205,536.2737,158.56274,0.9481672,525.68634,159.60126,0.94757384,1.11624491,-0.04937473,1.11326513,0.0648504
46,1533.3333333333335,521.50525,57.97573,0.95958954,523.7851,55.249054,0.933218,518.6483,55.830536,0.9176064,527.8343,56.99372,0.76717734,514.9035,58.542175,0.69547105,534.6138,72.35353,0.9941788,511.65445,75.14482,0.99546623,542.60925,89.964584,0.962863,508.32635,94.80088,0.96079314,543.8159,106.43002,0.9357843,506.5398,109.839066,0.9277619,534.27136,107.74339,0.9944877,519.8632,109.1318,0.9951382,536.40063,133.64296,0.9827917,522.74695,134.79318,0.98253137,535.95074,158.49767,0.9557173,525.45056,159.77673,0.9554619,1.05272049,-0.03316213,1.04104537,0.15279146
47,1566.6666666666667,520.2678,58.710663,0.9610317,522.63965,55.977036,0.9384974,517.4948,56.541,0.9155957,526.9614,57.60569,0.7884165,514.0524,59.126633,0.67707455,533.6829,72.77642,0.9947049,511.2327,75.519356,0.9955851,541.5505,90.27303,0.9678155,508.13794,94.92775,0.9611508,543.17676,106.703896,0.94375545,506.50223,109.61359,0.92998534,533.78754,107.97638,0.99493587,519.7255,109.35418,0.99537355,535.67737,133.70319,0.98414916,522.6837,134.82242,0.98319095,535.75995,158.21355,0.9586112,525.79987,159.37184,0.9570182,0.98895069,-0.03758375,0.96022802,0.23360881
48,1600.0,519.4882,59.21514,0.96353686,522.00916,56.588165,0.93622273,516.83545,56.922882,0.9230999,526.422,58.21511,0.77632785,513.5882,59.15629,0.7036135,533.131,73.37773,0.9947259,510.12982,75.19627,0.99625385,541.3572,91.38823,0.96454763,505.927,93.772804,0.969835,543.5958,108.05507,0.93752646,503.92963,108.88129,0.94150764,532.7214,108.84077,0.99456114,518.4542,109.890076,0.9955935,534.42175,134.39229,0.98062164,521.886,135.19778,0.9819548,535.0828,158.49997,0.94597006,525.7584,159.1664,0.94810927,0.83430583,0.05846361,0.83224675,-0.00368468
49,1633.3333333333333,518.695,58.483894,0.96230906,521.1975,55.81101,0.934849,515.9882,56.203407,0.9194232,525.62805,57.64057,0.77520734,512.6423,58.70581,0.69119227,532.19977,73.22707,0.99445146,509.2986,75.09983,0.99580306,540.28357,91.65369,0.96328825,504.75394,93.6803,0.9658442,542.75977,108.45886,0.9350761,503.85825,107.80626,0.935335,532.3477,109.17238,0.99405235,518.0823,110.31265,0.99501604,534.09344,134.81561,0.97876203,521.4426,135.7489,0.97955555,534.925,158.84909,0.9411056,525.31476,159.67021,0.94203186,1.02262916,0.12847256,1.01402437,-0.03193391
50,1666.6666666666667,518.0796,58.11087,0.9612867,520.5274,55.450714,0.9341867,515.3741,55.818443,0.9155596,524.819,57.331596,0.7774756,511.90506,58.29904,0.67633754,531.4049,73.11677,0.994406,508.38693,74.71583,0.9954882,539.35834,91.93904,0.9639458,503.27206,93.158264,0.9629236,541.9289,109.10045,0.93544495,502.31073,107.10823,0.93101364,531.7013,109.34033,0.99400157,517.3765,110.394066,0.99478817,533.68304,135.2675,0.9786685,520.9058,136.13919,0.9786485,534.7296,159.53984,0.9406589,524.9136,160.2667,0.9398236,0.98302888,0.05281377,0.98159918,-0.00442162
51,1700.0,517.7646,57.972496,0.96207905,520.09955,55.30873,0.9322685,514.9813,55.697456,0.91993,524.1272,57.14657,0.76363957,511.20694,58.13568,0.6954645,530.53845,72.8415,0.99431795,507.37097,74.47496,0.9956781,538.494,91.658134,0.96267724,501.66595,92.91291,0.9652878,541.05835,108.808174,0.93386495,500.84573,106.868835,0.93443114,530.96893,109.137566,0.9938205,516.5955,110.267166,0.99479645,533.0051,135.5181,0.97704643,520.7156,136.51186,0.97777236,533.63855,159.8398,0.9347557,524.67474,160.77728,0.9353539,0.96240714,-0.02751229,0.96121061,0.03930327
52,1733.3333333333335,517.1428,57.60791,0.9642638,519.38074,54.943905,0.9345998,514.3584,55.339447,0.92406046,523.21185,56.674484,0.7653349,510.50107,57.69139,0.70623803,529.69775,72.319695,0.9948389,506.4528,74.15331,0.9961582,537.8099,91.125046,0.9662121,500.82617,92.9866,0.9689988,540.14557,108.31337,0.94011587,499.03247,107.52095,0.9409781,530.2187,108.57881,0.99454874,515.90045,109.84648,0.99545634,532.6621,134.94952,0.97975737,521.0497,136.11359,0.9805094,533.0965,159.46465,0.9413315,525.1947,160.64026,0.94206315,1.04134161,-0.00958017,1.04129102,0.00368468
53,1766.6666666666665,516.3264,57.371666,0.9646051,518.5644,54.72208,0.9364831,513.619,55.133034,0.9224837,522.5058,56.41996,0.7742735,510.0497,57.49594,0.6958866,529.18744,72.11422,0.9950879,506.10532,74.01368,0.99629325,537.42847,90.941635,0.9684134,500.0852,92.87119,0.96991223,539.82086,107.9784,0.943931,497.25183,107.46713,0.94315964,529.5477,108.388916,0.99502975,515.51373,109.6682,0.9958247,531.6842,134.67662,0.982094,521.28204,135.86276,0.9824968,531.90735,159.60005,0.94791836,525.78284,160.77528,0.94794136,1.07733475,0.01768647,1.07715525,-0.00859759
54,1800.0,515.78876,57.011574,0.96896654,518.06604,54.368786,0.9433269,513.021,54.817413,0.9384125,521.90826,56.22679,0.77731395,509.2505,57.404816,0.7562592,528.85114,72.18715,0.99585694,505.21252,74.15683,0.997498,536.7314,90.58296,0.9720518,499.95834,92.88538,0.97972155,538.6922,107.554855,0.95121986,497.00214,107.56354,0.95856833,529.0337,108.15529,0.9961824,514.56995,109.35782,0.99709284,531.7922,134.84256,0.9855239,520.74884,135.80573,0.98721796,530.9855,160.10751,0.95723957,525.0049,161.08528,0.9608718,1.05907244,0.05723539,1.05701233,-0.03291649
55,1833.3333333333333,515.4384,56.763725,0.96825135,517.71326,54.107445,0.94213796,512.6011,54.54865,0.9370301,521.4891,56.10463,0.7741379,508.6441,57.241753,0.751854,528.28076,72.278694,0.9956923,504.59018,74.13843,0.9972957,536.2555,90.86981,0.9708025,498.94864,92.94855,0.9777304,538.41956,107.65274,0.94896823,496.19794,107.42218,0.9550917,528.33185,108.58318,0.9960162,513.9059,109.736725,0.99689806,530.5423,135.85582,0.9850995,520.2786,136.79584,0.9865631,529.35284,161.80966,0.95617485,524.6919,162.77782,0.9592486,1.05376849,0.09162575,1.04939732,-0.02824923
56,1866.6666666666667,514.6968,56.59175,0.9671027,516.95294,53.905807,0.9408443,511.82724,54.400444,0.93447006,520.7683,55.852028,0.77356833,507.9452,57.132988,0.7440838,527.6894,72.07356,0.99554056,504.2341,73.93852,0.9971697,535.71045,90.72472,0.96979463,498.30936,92.27353,0.97678417,538.3416,108.10299,0.94716823,494.74945,106.29804,0.9535059,527.6723,108.49419,0.99601495,513.4926,109.62593,0.99688655,529.5017,135.69165,0.9856037,519.9099,136.6256,0.9869784,527.883,161.82477,0.9583105,523.98846,162.78387,0.961125,1.02331509,0.14026355,1.01279615,-0.04175972
57,1900.0,513.7824,56.691116,0.9658839,516.1586,53.98436,0.9430239,510.9543,54.485565,0.92791593,520.26685,55.874443,0.7925515,507.35178,57.21821,0.7127927,527.4351,72.03967,0.99552685,504.01242,73.9771,0.9968015,535.5152,90.672676,0.9709835,498.25003,92.26344,0.9728802,537.95764,107.86499,0.94859695,494.3098,106.05474,0.9477434,527.1561,108.62251,0.9959663,513.11053,109.71359,0.9966402,528.1441,136.07343,0.98599386,519.4758,136.9463,0.98642075,526.35156,162.68872,0.95977145,524.0224,163.50832,0.96053547,1.0106892,0.16826713,0.99658355,-0.00024565
58,1933.3333333333333,513.4938,56.699173,0.9658451,515.90497,53.99389,0.9442458,510.65436,54.473076,0.92692024,520.08344,55.87061,0.79879695,507.05835,57.146347,0.7052562,527.3948,72.10014,0.99548244,503.71405,73.803856,0.9966839,535.45557,90.8738,0.9707625,497.61154,91.868675,0.9715569,537.4953,108.02925,0.947948,493.92316,105.504395,0.94557244,526.8457,109.046425,0.9958253,512.6635,109.974846,0.99647516,526.9587,136.67311,0.98537517,518.35297,137.37418,0.98557866,524.6944,163.529,0.95786685,522.8232,164.13445,0.9581463,1.008037,0.15156324,0.9963379,0.02186244
59,1966.6666666666665,513.0914,56.853065,0.9714082,515.73706,54.151566,0.95656717,510.43423,54.519714,0.93255365,520.20056,56.069336,0.8243811,506.90012,57.06082,0.6789175,526.7467,72.629105,0.99518186,503.11267,74.01286,0.9961372,534.7729,90.985054,0.9753479,496.6407,91.50658,0.969119,536.4947,109.01782,0.9605634,494.11877,105.4195,0.9485559,525.3691,109.751755,0.99528235,511.29132,110.505455,0.9957236,524.5003,137.26952,0.9850985,516.6553,137.81741,0.983691,522.5794,163.84096,0.9566504,521.9385,164.33798,0.9541256,1.01103527,0.15008936,0.99977694,0.01056275
60,2000.0,513.012,56.712357,0.9716411,515.67957,53.987427,0.9554406,510.2986,54.371822,0.9350033,520.1697,55.89031,0.8178226,506.76245,56.91446,0.6957387,526.73914,72.417786,0.9951984,502.84113,73.9332,0.9964468,534.2635,90.91995,0.9745489,496.41568,92.07682,0.9720804,535.78845,108.46611,0.9597192,495.00308,106.44539,0.9522717,525.3105,109.74838,0.9954124,511.06085,110.52526,0.9960245,523.91943,137.92513,0.98530453,516.1931,138.46933,0.98465735,520.68024,164.86401,0.9564087,520.72974,165.36252,0.9554985,0.99715629,0.13117466,0.98847725,0.00515855
61,2033.3333333333333,512.62646,56.068924,0.9689612,515.3739,53.404892,0.9519098,509.92575,53.680084,0.9281151,519.9822,55.67354,0.8286316,506.49484,56.46943,0.6901161,526.4048,72.32492,0.9961532,502.78787,73.67513,0.9968997,533.40906,91.228455,0.9794576,496.13922,92.17457,0.97592044,536.0012,108.1326,0.9645519,495.21484,106.695465,0.95673823,525.52026,109.709946,0.9967024,511.43292,110.49367,0.9970613,523.2492,137.9361,0.9895258,516.32855,138.50209,0.9888508,519.5202,165.04276,0.9660583,519.6719,165.42305,0.96436065,1.02526892,0.06878072,1.01672647,0.11275126
62,2066.666666666667,512.3245,55.94291,0.9690336,515.0591,53.282032,0.95125306,509.60922,53.56473,0.9289177,519.67316,55.569992,0.8245884,506.17264,56.38321,0.69522464,525.9277,72.16836,0.99606836,502.51926,73.623184,0.996865,533.0274,90.9812,0.978914,496.11014,92.375854,0.9759099,535.9135,107.65645,0.963842,495.9701,106.98089,0.95664656,525.1144,109.6312,0.9965243,511.14478,110.47333,0.996924,522.7077,138.07295,0.9887138,516.09564,138.7048,0.98812217,518.78766,165.2113,0.9630044,519.25073,165.68881,0.9615263,0.9648759,0.07909783,0.94917398,0.15426534
63,2100.0,512.235,55.766136,0.9693858,514.9556,53.106018,0.9503647,509.49875,53.379387,0.9308902,519.5375,55.392662,0.81782496,505.97702,56.165222,0.70495796,525.5962,71.98684,0.9960425,502.17957,73.380554,0.9969734,532.80176,90.83083,0.9784802,495.48306,92.221825,0.9770637,535.5464,107.54744,0.9634813,496.20493,107.22316,0.9583622,524.7771,109.704765,0.9965532,510.78006,110.54465,0.997017,522.3831,138.39706,0.9887318,515.82635,139.03044,0.98841965,518.3965,165.79001,0.96283394,519.07324,166.29596,0.96200496,0.87650826,0.09064317,0.86025033,0.14149177
64,2133.3333333333335,511.98813,55.681973,0.97063005,514.73083,53.02904,0.9511587,509.24802,53.2816,0.9341755,519.3313,55.263454,0.81523824,505.68262,55.98918,0.71541363,525.1888,71.780624,0.9961289,501.88254,73.08632,0.9971724,532.36383,90.71997,0.97891724,495.5443,91.87331,0.9790363,534.92535,107.5301,0.96455574,496.3548,106.76106,0.96158415,524.1531,109.61879,0.9965803,510.18326,110.43109,0.9971186,521.8594,138.38841,0.98843133,515.3056,139.00128,0.9884388,518.3142,165.7583,0.96115136,518.79486,166.26361,0.96108043,0.85628526,0.13633322,0.84526596,0.01277356
65,2166.6666666666665,511.59024,54.969254,0.9707135,514.41693,52.307384,0.9502352,508.80463,52.51801,0.9356345,519.0242,54.758102,0.8089173,505.10483,55.36862,0.7232142,524.7385,71.631386,0.9960186,501.1009,72.834335,0.99711585,532.09454,91.06643,0.97791255,495.44672,92.15311,0.9787154,535.1329,108.25556,0.96285427,496.72244,107.258385,0.96069276,523.35626,109.55823,0.9963654,509.12048,110.3481,0.99695873,521.52313,138.65115,0.98747,514.623,139.24202,0.9876765,518.4647,166.20358,0.9579177,518.5321,166.6892,0.9583262,1.22269462,0.01965164,1.21840138,0.10046898
66,2200.0,510.6566,54.623314,0.97093046,513.6246,51.943195,0.9519721,507.949,52.111656,0.9338764,518.531,54.32021,0.8176631,504.45264,54.84017,0.70939523,524.29675,71.178566,0.99613875,500.35114,72.30966,0.9970356,531.7609,90.95059,0.97924566,495.27252,92.03532,0.977969,535.23425,108.484184,0.9647482,496.89624,107.45627,0.9598291,522.4901,109.17809,0.99643564,508.0421,109.9247,0.9969279,520.8791,138.46869,0.9877742,513.6623,138.99658,0.98761404,518.8405,166.23918,0.9586549,518.552,166.59651,0.95813525,1.30614263,-0.01473873,1.30486858,0.05576151
67,2233.3333333333335,510.24008,54.762146,0.9678085,513.32837,51.986206,0.94888186,507.7273,52.08976,0.9305025,518.3195,53.9123,0.78069717,504.49136,54.35978,0.669722,524.40515,70.89455,0.9928988,500.34177,72.11526,0.9946426,532.07874,90.616486,0.96990114,496.5506,92.027336,0.9688287,533.6342,109.52127,0.95640975,496.09595,108.50841,0.9510077,521.36584,109.816536,0.9945543,506.87225,110.49993,0.99523664,520.4867,139.1615,0.98563695,512.81134,139.58035,0.9852592,518.9048,166.22736,0.960704,517.9923,166.51004,0.9603484,1.06925016,0.05576151,1.06683814,-0.04519876
68,2266.6666666666665,509.56094,54.321236,0.96774083,512.7069,51.5506,0.9510115,507.1187,51.62951,0.92764723,517.81323,53.45672,0.79682326,503.9813,53.84047,0.6534562,524.1691,70.395195,0.99352705,499.47928,71.5753,0.99460065,531.9665,90.21152,0.97344196,495.45297,91.54574,0.96767277,533.20013,109.3582,0.960202,495.67648,108.211075,0.9495522,521.0061,109.61461,0.99504316,506.03598,110.27635,0.99541146,520.212,139.18213,0.9865758,511.5598,139.57712,0.9853749,518.6969,166.06146,0.9621013,516.8514,166.27896,0.9600339,0.89100667,-0.0859759,0.88678004,-0.01105404
69,2300.0,509.02603,54.225304,0.96831703,512.2756,51.413147,0.95381856,506.5781,51.476585,0.9267385,517.5678,53.36042,0.81127477,503.45053,53.69194,0.64120734,524.17615,70.58795,0.9939522,498.72818,71.6326,0.99462813,531.9415,90.847565,0.97570044,494.3116,91.75452,0.96708775,532.96735,110.60479,0.96265906,494.57217,108.778366,0.9487647,520.8551,110.530815,0.9952774,505.3358,111.106926,0.99547595,519.8165,140.28773,0.98672664,510.1611,140.59247,0.9849429,518.4222,166.9559,0.96144295,515.5179,167.02826,0.95808446,1.02571976,-0.08671284,1.01844599,0.08573026
70,2333.3333333333335,508.30493,54.095856,0.9710389,511.1753,51.21953,0.9578067,505.51974,51.64174,0.9315157,516.18756,53.12107,0.8332624,502.12823,54.20784,0.67186844,523.4835,70.525894,0.99558496,497.8895,71.91339,0.996114,531.6374,91.79867,0.974049,492.4526,92.55171,0.9643409,533.6703,111.27576,0.9525193,493.27133,107.63196,0.9343684,521.00305,111.56165,0.99446183,505.31085,112.191925,0.9947744,520.2373,142.21089,0.97508246,508.54437,142.5838,0.9723432,518.3763,170.12105,0.92093223,513.52344,170.3673,0.9158461,1.02571976,-0.08671284,1.01844599,0.08573026
71,2366.6666666666665,506.94003,53.938927,0.9698351,509.89838,50.964977,0.9562603,504.0661,51.375866,0.92915773,515.0837,52.841488,0.82751834,500.64148,53.92034,0.6639138,522.78265,70.59878,0.9953042,496.79004,71.84925,0.99588555,531.7918,92.59585,0.9718954,492.2258,92.72969,0.9621933,533.3885,113.26662,0.94876766,492.2247,108.23389,0.9307786,520.1454,111.830215,0.9944882,504.22058,112.38772,0.99483645,519.6789,142.3377,0.9770991,507.86945,142.61887,0.97488654,518.4246,170.6377,0.930707,513.5901,170.75436,0.9266821,0.97126548,-0.02186244,0.96047367,0.14272
72,2400.0,506.36542,53.728348,0.96914357,509.2073,50.75571,0.9533811,503.4704,51.194565,0.929414,514.1733,52.541393,0.81701416,499.9484,53.697304,0.6774471,521.937,70.17239,0.9954491,496.12704,71.55894,0.9962148,531.4718,91.91885,0.97200686,492.0418,92.28085,0.96553147,532.4505,112.74759,0.9493722,491.59012,107.869995,0.9359603,519.1864,111.282196,0.99526715,503.35345,111.91113,0.9956944,518.70496,141.40472,0.98155564,506.886,141.78778,0.98037875,517.5337,169.63513,0.94505334,512.4612,169.94632,0.94298756,1.12282961,0.05576151,1.11965191,0.06337652
73,2433.333333333333,504.76553,53.423054,0.96408373,507.7365,50.49949,0.94401705,502.02438,50.828552,0.9184305,512.9867,52.209488,0.8044447,499.03305,53.21793,0.6595073,521.18604,69.662796,0.9947584,495.54868,71.245964,0.9957058,530.8205,91.23455,0.9646053,492.6517,92.380936,0.96216744,531.87415,112.07956,0.93444854,489.88678,109.81667,0.92758733,518.5194,110.74937,0.9948519,502.68588,111.46057,0.99549675,517.8288,140.78275,0.9814512,504.92148,141.21362,0.9813176,518.4203,168.81693,0.94758904,510.30472,169.00311,0.9469058,1.0151101,-0.01056275,1.0098484,0.10267979
74,2466.666666666667,503.53833,53.361946,0.9683185,506.5549,50.328926,0.962092,500.98605,50.747772,0.91073006,512.07587,52.070587,0.87519926,498.04318,53.391464,0.5671715,520.85266,69.963234,0.9963303,494.17474,72.20804,0.9949392,531.3897,90.45231,0.9856209,490.44223,92.93044,0.9588829,530.93176,110.99962,0.9740966,489.07083,109.761604,0.93754554,517.85034,111.27241,0.9969842,501.33115,112.22236,0.99633753,516.6769,140.18451,0.99140316,503.65698,140.89738,0.9873317,517.24316,166.14764,0.97283655,509.7879,166.72977,0.963978,0.95416319,-0.03660117,0.94376978,0.13559628
75,2500.0,501.77426,53.408684,0.9697352,504.7057,50.427345,0.96326804,499.4028,50.890976,0.91311496,510.76697,51.793533,0.8750712,497.22134,53.19481,0.57234186,519.92206,68.885185,0.9965731,494.0242,71.05937,0.9958775,529.70105,90.06517,0.9827708,490.0255,92.828964,0.95885324,528.8832,109.12628,0.96660197,487.0118,109.6089,0.93008196,517.17114,109.9637,0.99656796,501.02234,110.73625,0.9961695,516.7284,140.44753,0.98763704,502.37244,140.96957,0.9833014,517.7174,169.37029,0.96213734,508.0101,169.68008,0.9530526,0.9263468,-0.00319339,0.91281845,0.15770437
76,2533.333333333333,499.40546,53.53215,0.9696456,502.3652,50.508728,0.96753144,497.3576,50.953636,0.9000688,509.19916,51.484543,0.8988406,496.00262,52.912476,0.5007166,519.18695,68.500786,0.9968207,493.5612,70.51324,0.9952047,529.164,89.917366,0.9856102,489.55066,92.19722,0.9499166,527.91693,109.177155,0.9709706,485.3949,109.18422,0.91979814,516.05286,110.78381,0.9966084,500.04507,111.3284,0.99572694,515.8775,141.5888,0.98747104,500.9392,141.89229,0.9807575,517.5034,170.47118,0.96074396,506.32983,170.38489,0.94660157,0.9263468,-0.00319339,0.91281845,0.15770437
77,2566.666666666667,498.86407,53.538513,0.969249,502.24615,50.53701,0.9439893,495.9803,51.178295,0.89248085,509.4039,51.550358,0.86502165,494.1573,53.04414,0.6522009,516.9259,68.670784,0.9960439,493.1826,71.28024,0.99049604,527.9569,90.166046,0.98337954,488.1342,92.71381,0.94657594,526.6727,109.98514,0.9631335,484.4675,108.1252,0.91516817,513.7682,110.20195,0.9961266,498.7404,111.20028,0.9937949,514.1367,141.84076,0.98892576,499.791,143.30487,0.98365885,518.4342,169.29625,0.958726,505.36826,169.87817,0.94919235,0.99912314,0.00393033,0.98724902,0.1535284
78,2600.0,497.67422,53.619263,0.969519,500.9066,50.54947,0.9421258,494.69412,51.271225,0.896093,507.77402,51.339027,0.8589634,492.69186,53.086205,0.6661749,515.49927,68.43019,0.9960698,491.5595,71.22195,0.9912555,526.1712,90.017456,0.98342806,486.38388,92.73775,0.95191985,522.84076,109.56406,0.96358645,482.17612,108.85437,0.92232007,512.31116,110.258026,0.99645376,497.05164,111.316284,0.99455017,513.9528,141.79414,0.98996603,498.74643,143.23573,0.98577785,518.566,169.79741,0.9627334,503.8306,170.45052,0.95522475,1.00626477,-0.00761501,0.98724902,0.19455119
79,2633.3333333333335,495.15094,53.278366,0.9664239,498.21094,50.25549,0.9665668,492.85294,50.614635,0.878137,504.99115,51.6177,0.89685214,491.13165,52.884365,0.40775943,514.5082,68.91231,0.9956002,489.92014,70.729805,0.9911907,524.5242,90.074394,0.9851633,486.1038,92.26959,0.9184149,523.05804,107.9994,0.9725833,478.1268,108.18392,0.8923662,511.4099,110.891174,0.995503,495.93945,111.235016,0.99322045,511.931,142.35312,0.9866398,496.08307,142.4449,0.9752296,516.4731,171.61313,0.9579234,501.40326,171.24117,0.93495023,1.01417045,0.05723539,0.99707484,0.17637343
80,2666.6666666666665,493.05472,53.705643,0.9663222,496.14407,50.66564,0.9700841,490.9824,51.03578,0.8648074,503.40198,51.796402,0.9152482,489.7237,53.167038,0.3521145,513.4029,68.81703,0.9961255,489.00482,70.68248,0.99077725,523.4112,89.73462,0.9884898,484.6454,91.82304,0.9134763,522.1003,107.30591,0.9780466,475.1606,107.692116,0.8905678,510.19073,111.00034,0.99615186,494.80435,111.26627,0.9936208,511.4763,142.59238,0.9886918,494.81818,142.59541,0.976546,516.85974,172.1572,0.96374536,500.04822,171.58377,0.938948,1.02468183,0.18816441,1.00075952,0.11422513
81,2700.0,491.19373,53.518597,0.967653,494.27423,50.52904,0.97245806,489.29593,50.854668,0.8672944,501.74097,51.751225,0.9241121,488.36118,53.032623,0.34855396,512.0118,69.06169,0.9963619,487.6983,70.53699,0.9909643,522.63324,90.17916,0.9890371,482.93112,91.062996,0.9127704,521.02277,109.03719,0.9783618,472.89297,107.622,0.8879882,507.98315,111.63346,0.99616003,492.43753,111.63294,0.99352115,509.85464,143.38046,0.9881286,491.26468,143.15196,0.974957,515.59515,172.42134,0.9616671,495.1939,171.59229,0.9345949,0.93074619,0.17858423,0.89636021,0.17588213
82,2733.3333333333335,489.8019,54.003937,0.97022575,492.79303,50.983635,0.97471297,487.77142,51.386086,0.87661767,500.09125,52.087967,0.9275432,486.67206,53.6249,0.35862073,510.19794,69.215866,0.99655724,486.68918,70.96304,0.991631,521.54724,90.0537,0.9897563,482.01797,90.86764,0.9200794,519.68945,109.84815,0.97978914,470.9068,107.41932,0.8968236,506.5959,112.14573,0.9961243,491.4761,112.30495,0.9935592,508.8233,144.27988,0.98699826,490.65265,144.25279,0.9729874,514.32056,173.20132,0.9563875,493.4132,172.67944,0.92662394,0.86171041,0.15598485,0.81603415,0.2286959
83,2766.6666666666665,487.03156,54.052437,0.9689717,490.0361,50.956284,0.97589886,485.16605,51.4421,0.8569255,497.81293,52.30604,0.9375955,484.54413,54.096737,0.30586898,508.84473,70.17846,0.9965862,485.4285,71.97846,0.9900276,521.5284,91.106514,0.9906288,480.83365,91.07625,0.9025392,517.1123,111.091,0.981177,469.31427,106.63942,0.881773,505.94147,114.2576,0.99574184,490.7319,114.38438,0.99221635,507.1143,145.6495,0.98505396,489.287,145.61613,0.96563673,513.9998,173.25992,0.94989777,493.76535,172.66719,0.9095215,0.87989044,0.07713267,0.84108999,0.24662802
84,2800.0,484.82904,54.582,0.96506196,487.5407,51.5291,0.96810895,483.10864,52.070812,0.8568706,494.9301,52.592197,0.9146777,482.6664,54.46775,0.3540256,507.07666,70.36573,0.99632263,482.412,72.17629,0.99279094,519.72797,91.77205,0.9895258,476.92776,91.27812,0.9416471,513.3204,112.68821,0.97994035,465.88074,107.905914,0.92142034,505.27136,115.293564,0.99619734,489.48453,115.54322,0.9944594,505.83743,146.35347,0.98497885,489.02917,146.39969,0.97255707,511.41653,173.53369,0.94654644,494.68747,173.05371,0.91804546,0.89765858,0.01154534,0.83838789,0.3205673
85,2833.3333333333335,483.35565,55.35343,0.9668347,486.16867,52.076653,0.96914554,481.32092,52.775818,0.86613953,493.62555,52.907448,0.91065806,480.46783,55.157562,0.36475793,506.00458,70.86132,0.9962845,480.155,73.1047,0.99338853,518.6658,92.53977,0.98961335,473.8136,92.40897,0.9493913,511.9377,113.46955,0.9806786,461.27255,108.776924,0.9315433,504.44855,116.45351,0.99606556,488.22443,116.906,0.9945679,502.31668,146.95753,0.98361963,487.64087,147.19041,0.9713373,507.59305,173.1072,0.93951046,495.62204,172.90063,0.910083,0.89765858,0.01154534,0.83838789,0.3205673
86,2866.6666666666665,481.69217,57.144463,0.97038525,484.6182,53.774666,0.9740321,479.50427,54.521072,0.8692862,492.17172,54.566784,0.92474574,478.4978,56.95263,0.346409,503.96454,72.50631,0.9968575,479.1266,74.814705,0.993644,516.5344,93.76782,0.991491,472.63556,93.23843,0.946757,510.50323,115.619644,0.98402977,457.8637,109.465996,0.9315506,502.58572,117.50849,0.99660873,487.3401,117.9961,0.99496883,498.12866,146.84552,0.98684746,487.16443,147.15802,0.97471946,503.4554,172.32426,0.95205045,496.59167,172.2196,0.92317176,1.03497479,0.04126843,1.00297033,-0.25203222
87,2900.0,477.30905,58.094147,0.960923,480.31583,54.585804,0.97420096,475.59637,55.329567,0.7758469,489.1384,55.0886,0.9458535,475.863,57.54454,0.18391652,502.18372,73.17886,0.99661547,478.50092,75.15493,0.98695135,515.222,94.960434,0.99326855,472.82953,93.245544,0.8838953,509.53137,118.46655,0.9866425,454.4545,109.791336,0.8787824,500.2086,118.82786,0.9962347,486.2097,118.886246,0.9920644,492.34335,147.41785,0.9878622,486.24503,147.38797,0.96624994,498.69736,172.84674,0.9577792,498.631,172.0838,0.9115361,1.05006312,-0.33334086,0.93247009,0.34930782
88,2933.333333333333,474.95697,61.39157,0.96056443,477.84375,57.885483,0.9748063,473.50552,58.61164,0.7555845,486.87738,57.690567,0.9504346,474.314,60.00717,0.16313751,500.4373,74.87809,0.99689937,477.05417,76.423645,0.98717856,512.47864,97.246765,0.9940726,470.87607,94.5858,0.8829121,507.2976,121.3786,0.9878863,451.44833,111.59244,0.87899685,499.29816,119.71526,0.9965681,485.68427,119.54361,0.99249786,489.29184,147.26968,0.989253,484.19272,146.99152,0.96838343,497.23032,172.56697,0.96200967,498.76144,171.36322,0.91653675,0.88808467,-0.16507374,0.86196985,0.13584193
89,2966.666666666667,472.80814,63.774635,0.9577457,475.5846,60.132256,0.97201467,471.12646,60.96054,0.73999,484.43805,59.341263,0.9446854,471.78552,61.85582,0.15526314,498.25906,75.93521,0.9966737,475.3764,77.34155,0.98732495,510.5804,99.20903,0.9938945,469.44824,95.41823,0.8934236,505.13864,124.246796,0.9877344,447.799,111.885956,0.88935935,497.90097,120.726364,0.99659216,484.64362,120.45233,0.9929224,485.1082,148.14026,0.9893544,480.79868,147.75409,0.96990067,494.5799,173.23734,0.96148086,496.5619,171.93378,0.91748726,0.85172858,0.21862444,0.81529721,0.11373384
90,3000.0,469.80093,67.19261,0.9581162,472.97952,63.11828,0.9522607,467.72794,64.853546,0.7675839,483.05862,60.85269,0.93158394,470.07068,64.58139,0.38723898,494.59122,77.703156,0.99812967,473.4749,81.43495,0.9831071,507.1835,101.17486,0.99407494,462.916,101.10004,0.8916546,502.7336,124.09218,0.9823636,447.69165,117.365486,0.85532016,496.34982,122.83214,0.99771535,484.82596,124.04022,0.9932266,480.70044,149.75183,0.9933407,477.85278,152.65842,0.9807555,495.47006,174.85982,0.9714884,496.799,175.91566,0.945796,0.85172858,0.21862444,0.81529721,0.11373384
91,3033.333333333333,467.6864,70.50732,0.9428658,470.3098,66.50469,0.9338664,465.99884,68.11566,0.69915706,479.4648,63.8331,0.92029715,469.0581,67.26898,0.34998608,492.3269,80.0089,0.9980046,471.98264,82.90528,0.98182493,506.0038,104.26637,0.994333,462.14563,102.662476,0.8956953,500.03046,128.10995,0.9829039,447.08365,118.73164,0.86035216,494.4946,124.57199,0.9980719,483.5085,125.187454,0.99429685,478.73657,152.134,0.99467057,475.9755,153.66258,0.9846379,493.45447,179.93933,0.9769374,494.29303,179.18384,0.956183,1.01568297,0.47778038,0.87204131,-0.20707911
92,3066.666666666667,464.4916,73.04558,0.90587956,466.55258,69.072754,0.8954091,463.61987,70.75429,0.550675,475.3576,66.414856,0.9052309,468.3656,69.9127,0.26055068,489.93552,81.97583,0.9977329,470.93002,85.01964,0.9762902,505.02982,106.57029,0.9948251,460.6748,104.543076,0.88614887,497.48953,133.04645,0.9841494,446.13806,119.72869,0.8538145,493.10068,126.38266,0.99832124,483.034,127.07056,0.9947048,476.8778,152.98242,0.9955076,474.86728,155.36139,0.9862365,491.64972,181.56589,0.98018837,492.58267,181.96898,0.9607424,0.65146083,0.03095133,0.61706134,0.20658781
93,3100.0,462.82684,79.07161,0.90004003,464.88202,75.316475,0.88138473,462.0459,76.792206,0.5332146,473.28546,72.30909,0.88903606,466.83353,75.20508,0.2530918,487.92578,86.54102,0.9974241,470.56314,89.14148,0.97625434,502.3749,112.002045,0.9944547,460.79227,108.35908,0.8980086,494.64862,136.41145,0.9849015,444.53992,121.63707,0.8754444,493.01138,129.46974,0.99827886,483.85925,130.10786,0.99496293,475.1342,154.31604,0.99585414,473.47418,157.02087,0.98819846,489.2707,183.59433,0.98326415,490.12024,184.97736,0.9685513,0.98677412,0.4335642,0.86958486,-0.17195181
94,3133.3333333333335,461.32742,84.32492,0.91605264,463.36932,80.635284,0.88832766,460.01947,81.96602,0.6253255,471.14215,76.90207,0.8719733,463.0486,79.483894,0.32197398,485.37442,90.21387,0.9968829,466.99625,91.98714,0.980531,500.07693,116.8078,0.992477,458.87982,111.8445,0.91762805,493.29904,138.6152,0.98098284,444.12665,123.99596,0.8934032,493.1599,129.90619,0.99791485,482.99274,130.33786,0.99502087,475.19968,154.5866,0.99525416,471.6468,156.76256,0.9888837,489.28326,183.79733,0.9821968,488.60916,185.12958,0.9704561,1.17647674,0.79417171,0.80768221,-0.3178652
95,3166.6666666666665,458.20834,87.95297,0.9053354,460.11902,84.290596,0.8742915,456.86887,85.63081,0.60811037,467.46304,81.87337,0.8616277,459.44366,84.312386,0.3256469,482.30933,95.87198,0.996309,464.13995,97.9758,0.97942924,497.5646,123.1732,0.99115,459.00943,118.17771,0.9164008,488.85803,148.43683,0.9771892,443.8467,128.53088,0.8882608,493.86768,132.35858,0.99740595,483.07538,132.90152,0.9942,476.52798,157.08699,0.99374914,468.5713,158.84438,0.98619056,493.2215,184.50261,0.97688884,486.95483,184.81003,0.9631591,0.99988648,0.10317108,0.83347498,0.54263078
96,3200.0,454.19452,95.13048,0.87499166,456.52774,91.58464,0.9172222,453.23215,92.0358,0.3741173,465.57434,90.44162,0.9112327,456.30133,91.13405,0.05382957,481.61264,103.73891,0.992254,462.1517,101.691414,0.9644253,492.2449,132.04631,0.9909697,457.6811,120.47745,0.8097718,482.9646,158.7861,0.9827927,443.07825,135.44215,0.83355093,495.31577,136.81715,0.99488294,483.14233,135.45148,0.98864436,472.1208,161.00061,0.99127054,466.11734,159.40012,0.9713769,493.54056,185.14389,0.9746431,491.2634,181.45012,0.93695503,0.99988648,0.10317108,0.83347498,0.54263078
97,3233.3333333333335,452.29663,100.84668,0.90070045,453.85855,97.15689,0.9424081,451.4834,97.98955,0.36056697,462.23694,94.65613,0.942042,455.72607,96.154755,0.04571049,479.30307,106.95764,0.9953571,462.72824,105.68622,0.9721433,489.2419,135.8626,0.996012,458.6093,124.4008,0.8316036,477.43277,167.47038,0.99202865,444.50717,138.6012,0.86459166,498.24884,139.64886,0.99591225,487.0041,138.89983,0.98927605,472.5857,160.37157,0.99138945,465.9084,159.56192,0.96503663,491.02426,183.4678,0.9720666,485.6899,180.76074,0.9214341,1.12070557,0.71482823,0.85288097,0.13264854
98,3266.6666666666665,448.62363,104.374855,0.89174694,450.51797,100.88736,0.9420379,448.0591,101.46687,0.36128795,460.39813,99.190125,0.942961,452.61685,100.43935,0.044136297,479.77017,111.84372,0.9947141,459.11615,111.03292,0.9651778,489.65524,139.50314,0.9949941,456.36343,130.9113,0.79298884,478.7478,167.06862,0.99027133,445.38486,145.78587,0.8382003,495.78073,142.36406,0.9957539,482.466,141.5548,0.9882925,477.9146,157.18903,0.99286956,469.88327,156.20782,0.9714575,485.59753,183.70908,0.9821016,482.4292,180.52347,0.94989425,1.37439793,-0.06558733,1.31125536,0.4065432
99,3300.0,445.7481,112.92958,0.86368644,447.10156,109.49185,0.9196414,445.3322,109.82977,0.28621405,455.65646,107.34634,0.934454,451.51987,107.37328,0.043698493,473.3663,118.680756,0.9929554,459.8659,115.24765,0.95890266,481.2153,149.41885,0.99156934,455.81427,136.07167,0.74248624,471.0511,179.53546,0.9805547,445.76917,152.53831,0.763291,494.38788,146.02838,0.99092054,485.0522,144.13283,0.97725415,471.55017,162.30019,0.98236716,463.9212,160.27362,0.93636036,480.66064,188.0552,0.949443,474.08502,183.4314,0.8727063,1.44085759,0.50848606,1.33090699,0.21493976
100,3333.3333333333335,442.55206,117.34613,0.81823003,444.55905,113.79836,0.89430696,442.24008,114.039925,0.22292455,454.82654,112.42325,0.9216208,448.48538,112.23326,0.032517046,473.0517,123.836945,0.990932,456.1374,120.648834,0.949729,478.23306,154.67941,0.9908647,451.10693,143.63858,0.7440052,470.80798,180.8386,0.97980165,442.5555,160.94255,0.7675869,493.75867,148.77065,0.9908632,482.72232,146.82773,0.97783124,469.65076,168.13849,0.9825616,464.2584,165.93785,0.93865746,475.63147,192.39787,0.9484527,475.45132,187.25842,0.87268066,1.51007666,0.19307732,1.39477481,0.54557852
101,3366.6666666666665,439.8834,123.77716,0.92922825,441.90704,119.93796,0.9557883,438.81244,120.297745,0.42979848,452.57776,117.80374,0.9501703,444.37802,117.79941,0.0563598,469.59018,129.51932,0.995513,454.7581,125.43895,0.9792028,473.53677,162.76935,0.99358845,448.99762,148.04787,0.8386628,463.0015,193.04356,0.9864877,442.829,167.51122,0.85545605,493.5929,155.55708,0.9948088,483.4235,153.37149,0.98856086,467.83218,175.22133,0.99103993,461.8975,172.68799,0.96961075,476.1005,201.44229,0.97386146,473.622,195.84837,0.93502617,1.3077347,0.06313088,1.18155456,0.55687821
102,3400.0,435.57825,130.04362,0.7968255,436.84595,126.24718,0.879587,435.30356,126.49533,0.167606,446.5168,124.6037,0.92217034,444.2574,124.01097,0.026793092,464.36356,135.85167,0.9888659,455.98132,131.67535,0.94001204,468.69583,171.12073,0.9895661,449.4758,158.71283,0.7179155,458.6331,200.94922,0.97520304,441.58936,181.6065,0.7366915,494.02945,161.49301,0.9831101,487.28204,159.27307,0.96021473,467.24146,182.59508,0.9610426,459.00674,180.13583,0.8684895,473.53757,208.9589,0.8729077,464.2686,203.30173,0.7177902,1.51146571,0.57088,1.37070155,0.28249226
103,3433.333333333333,432.5984,136.40976,0.8085973,434.37875,133.39969,0.84745836,432.93018,132.51837,0.31501514,444.8739,130.89761,0.8801052,438.76996,128.31802,0.105512105,462.84018,146.46222,0.99257326,449.8087,137.04637,0.886885,466.08505,187.49623,0.98881465,442.10913,163.17363,0.690336,452.10864,225.97482,0.96706253,440.46976,191.11272,0.69103533,492.6915,170.73303,0.97661465,483.1027,166.56984,0.9219914,471.18054,197.03754,0.90168566,463.64203,193.77385,0.71780175,476.92136,214.21265,0.64654607,468.7859,209.24652,0.4478405,1.33178143,0.25620819,1.2552482,0.3638009
104,3466.666666666667,429.24753,143.49878,0.71400005,429.60648,140.62848,0.76240945,430.16226,139.72879,0.22186849,437.80472,137.05502,0.84429437,437.12286,134.42012,0.09505662,458.46014,150.82771,0.98946583,449.65097,140.702,0.8638305,464.5857,194.11407,0.98503137,444.74988,168.79349,0.66687804,448.43317,234.13354,0.95691895,442.93683,198.91867,0.6663682,495.49823,169.59702,0.9655608,489.3672,165.19266,0.89631975,472.80582,195.39932,0.8710998,471.9078,190.27087,0.66928524,482.10797,214.34354,0.5895135,482.04602,206.06561,0.40314442,1.31718296,0.32204117,1.24861577,0.26873611
105,3500.0,423.70782,151.87956,0.6955423,424.23767,148.75613,0.7606671,424.6086,148.15964,0.20297313,434.36612,145.17764,0.8394309,432.2877,143.37378,0.07605125,457.7728,158.15236,0.98575056,446.2093,150.53784,0.82598704,467.10114,199.51639,0.98138857,442.3258,180.95639,0.6192914,452.99896,237.69284,0.9512135,439.06494,214.22008,0.6275482,496.0034,176.24042,0.94265884,487.84485,172.52693,0.8369866,471.01978,196.68251,0.79232424,465.67493,192.1772,0.5321265,479.34723,214.93034,0.4508919,475.262,207.18764,0.27730414,1.16174683,0.366503,1.1017198,0.03930327
106,3533.333333333333,422.59546,162.81496,0.67705894,422.188,159.04446,0.7235885,423.05826,159.45248,0.21135978,431.08966,152.26974,0.79882526,430.52658,152.63348,0.08652308,457.8039,162.4191,0.9796316,445.24936,157.73204,0.8352139,471.6952,205.07773,0.9735962,443.09756,191.35948,0.65834004,454.96014,239.83954,0.9374912,437.4156,224.89978,0.6471395,496.22745,185.62128,0.92382735,487.64847,182.56555,0.8236716,460.0167,206.15794,0.72854203,454.19104,203.26482,0.48805106,470.57257,222.78069,0.3641509,464.8484,216.41843,0.22877619,0.76507356,0.24245205,0.72465405,0.0378294
107,3566.666666666667,416.5414,168.8848,0.70347553,416.5253,165.71182,0.78213227,416.43127,165.15579,0.20942506,426.8327,159.78616,0.874986,425.18707,158.56494,0.09536713,455.12317,168.97047,0.9861531,443.10657,161.6531,0.86702615,471.96466,209.59366,0.979041,447.5388,192.12065,0.66614616,452.45657,237.98212,0.94582266,438.90848,221.93092,0.6444868,494.51617,187.85019,0.954019,486.68353,182.71664,0.88039416,466.03772,224.90271,0.8194249,456.20312,216.50185,0.6062702,472.78195,237.96994,0.47048968,463.4712,224.93929,0.3169723,0.3742429,0.34734265,0.09113446,-0.10538189
108,3600.0,417.24017,179.77708,0.6650321,416.76544,176.64182,0.7077728,416.05502,175.91844,0.21531472,425.17004,167.87991,0.80160767,421.11703,166.6984,0.111465804,454.48923,172.72145,0.9829675,436.88593,164.84134,0.87912464,473.96512,216.39651,0.97561854,445.93396,197.46811,0.73285234,452.15906,238.2875,0.9437803,438.56116,221.20068,0.715003,492.70978,188.98778,0.96534795,481.16092,183.53474,0.92062604,469.46817,227.06006,0.8848516,455.94507,217.4206,0.7564402,473.91345,240.0,0.6216939,462.75174,229.03658,0.489477,0.3742429,0.34734265,0.09113446,-0.10538189
109,3633.3333333333335,417.34848,189.9693,0.6319478,416.82047,186.46509,0.6604946,416.06516,186.23836,0.21780238,425.09525,177.07224,0.74750835,420.3405,176.88376,0.11864117,454.27823,179.90482,0.9748608,434.20694,174.34518,0.8611952,475.15848,220.40692,0.9658898,444.46603,205.83215,0.71926343,453.78665,238.87848,0.9285229,435.84167,226.58897,0.69933236,489.95804,194.86777,0.94474053,476.5683,190.4448,0.8871306,469.70663,231.85074,0.80711937,451.72098,222.87796,0.6487002,479.08575,240.0,0.47452644,461.42386,228.0266,0.356348,1.4464539,0.39352399,-0.4146495,1.32869618
110,3666.6666666666665,415.51813,196.34653,0.6908314,414.7231,193.59122,0.7200468,414.56924,192.28934,0.29291427,420.20813,184.63406,0.78138655,418.99878,181.83974,0.1923061,439.30856,187.32089,0.97701037,436.86203,176.97969,0.8817663,446.84866,225.72997,0.95935845,446.6517,205.30713,0.7034781,434.0514,234.98444,0.9099607,438.84912,229.45844,0.67309654,483.5805,195.2358,0.9366812,481.19077,190.81543,0.87726575,469.50842,231.08347,0.8086138,465.33554,223.51733,0.66338885,482.62845,232.67328,0.5144171,473.06573,222.63763,0.40097266,1.21701492,-0.31663697,-0.40875401,1.1017198
111,3700.0,413.6415,206.12341,0.43902266,413.02478,202.38013,0.47570696,412.15552,202.74118,0.07072092,416.07568,192.95097,0.7562756,421.7954,191.6892,0.07314972,430.51657,186.73367,0.92320764,436.44644,184.13516,0.7847428,436.0978,216.46007,0.8832001,441.41006,213.24254,0.4173294,436.38123,233.95163,0.75725347,435.48035,228.46478,0.37048236,476.30145,188.91891,0.79752415,481.16626,188.72241,0.6934385,443.7719,215.17474,0.55448246,461.99197,214.39374,0.3438555,455.42294,231.88202,0.2374335,480.6099,227.67358,0.14341494,1.59732698,-1.54535546,-0.34979911,0.20241184
112,3733.3333333333335,81.20614,112.20532,0.40284362,81.051384,110.75481,0.22916198,80.724205,110.99475,0.2923609,81.08216,110.32918,0.1809776,78.33709,110.83818,0.30284557,82.66276,113.80914,0.933774,72.43621,115.58307,0.9303532,96.95995,115.16774,0.92071027,70.28912,120.55122,0.90702903,106.470474,116.59755,0.9089694,78.42461,120.35887,0.89133805,77.334404,132.63895,0.97540617,71.249695,134.05737,0.9751957,86.16405,131.97052,0.94005644,82.57815,133.85652,0.9398711,86.72779,141.27362,0.8882327,85.64367,144.31264,0.8887027,6.75458656,1.29111243,2.30808455,6.21532091
113,3766.6666666666665,72.84675,120.44389,0.5500251,72.709785,118.04808,0.40051702,71.24101,119.36045,0.408155,74.54736,114.74579,0.2773489,68.7395,118.109,0.30804324,80.21959,115.474075,0.9488579,66.11143,121.36983,0.94565684,96.02496,114.424385,0.9301628,61.531338,124.37482,0.9131162,106.40359,118.897644,0.9155988,63.79695,121.33951,0.89814234,82.80065,136.15457,0.9819563,74.25367,139.63928,0.98211217,90.4831,137.1498,0.9612336,81.78637,141.08461,0.9595182,90.82117,149.24922,0.9209653,82.235596,154.58069,0.9185448,1.63247001,0.95728028,0.70352854,1.11965191
114,3800.0,15.368109,119.26866,0.59295577,15.631287,117.52614,0.57227457,14.430611,118.033134,0.30691016,18.414639,116.107056,0.5858496,15.050045,117.3237,0.15920083,25.672983,119.16029,0.9641115,15.899164,121.33571,0.89731026,38.409966,123.36456,0.93401396,13.299561,127.47151,0.6627777,42.07797,124.34946,0.8933947,16.323921,125.51848,0.65491885,30.870678,137.42792,0.982959,25.308983,138.79272,0.9697676,35.881485,153.64168,0.9776678,31.496792,155.014,0.9569217,37.771664,170.70403,0.9576357,34.9962,171.76408,0.93094504,0.99889645,-0.73841019,-0.66913818,-0.06927201
115,3833.3333333333335,15.103063,121.91972,0.6356284,16.052097,120.207306,0.66024554,15.078816,120.32147,0.34054577,20.877916,118.98701,0.6769213,18.554684,119.25124,0.17775062,29.995182,124.056274,0.94252235,20.910227,125.238266,0.8398645,42.279514,132.12773,0.8709089,21.4575,137.58293,0.5028712,45.498787,132.11658,0.77951884,24.134851,140.81427,0.4570103,34.456165,148.54662,0.87755847,28.935413,148.78925,0.7995504,38.24996,161.16216,0.6574819,31.121479,161.17151,0.51024014,39.985058,176.95473,0.4240621,32.0496,175.82419,0.32433346,0.85576377,0.18718183,0.08671284,0.83052723
116,3866.6666666666665,479.26654,180.00995,0.01065522,476.5916,178.69247,0.01038236,481.13892,178.9368,0.008752558,470.2519,187.25882,0.07453182,487.52667,188.07982,0.055339463,464.41547,205.32352,0.1465674,488.78003,195.8566,0.090028286,456.69583,203.68787,0.11414722,484.65338,179.48868,0.06328732,464.74286,187.36928,0.097312585,482.4278,176.21521,0.06470671,454.87494,208.43686,0.33600816,473.37723,204.95145,0.2757498,461.87585,195.18347,0.5270548,484.7034,191.06882,0.47087976,464.57367,194.92145,0.7145591,482.81964,191.30559,0.68137455,0.83621233,0.45002245,-0.32916489,0.62320248
117,3900.0,15.299795,120.05513,0.7236932,16.261242,118.176216,0.77404577,14.939682,118.488625,0.38479355,20.966913,116.50408,0.79167247,17.256737,117.26013,0.15273438,29.909885,121.30591,0.9754748,19.755281,122.42633,0.9069891,41.526367,126.48398,0.9471797,15.670672,130.04056,0.5830685,43.4338,125.770584,0.9059505,13.911273,130.35866,0.5769313,32.51849,143.78296,0.9765074,26.923384,143.83368,0.9513382,31.52108,159.64914,0.9571459,27.49942,159.5296,0.9017559,34.092384,175.8822,0.9110619,31.36272,174.74364,0.8414176,1.71671842,0.49988847,-0.99437274,1.30707938
118,3933.333333333333,463.81143,189.6239,0.02217525,459.1613,188.23633,0.01678686,465.53033,190.02544,0.019175544,453.6952,194.65466,0.08133942,474.08667,198.76923,0.093352325,458.02597,207.20822,0.17300066,483.4746,198.79651,0.21441057,461.5317,189.48663,0.13196206,477.9264,165.76231,0.1987748,463.68524,167.53358,0.1385259,471.896,160.98454,0.19972357,462.9376,200.07167,0.42503,481.5905,196.46745,0.48067328,461.9309,190.91331,0.56651205,485.26358,187.21954,0.6291127,471.148,184.4338,0.71356833,482.19348,180.93823,0.7451714,1.74794066,-0.12773563,-0.65783849,1.61438183
119,3966.666666666667,435.3095,209.25713,0.022613239,431.05066,207.7589,0.019081747,436.33774,210.52475,0.016800236,432.0288,213.17566,0.08097112,446.32596,219.42413,0.06009748,444.16452,221.14803,0.14339556,465.36258,214.67079,0.20995837,452.06586,198.16899,0.14079306,473.17117,176.22363,0.26433203,454.82928,172.81339,0.183095,475.58386,161.99097,0.30143905,464.3439,208.7791,0.4427464,478.2946,206.28033,0.5336425,462.46277,191.65657,0.5788132,479.63666,189.71866,0.6746919,474.9267,178.51857,0.72082585,481.13315,176.88467,0.7718425,0.98145366,0.4065432,0.19258602,0.87228696
120,4000.0,465.1482,191.18408,0.017244047,462.8612,189.92546,0.019043583,468.25214,190.24396,0.011024203,462.97073,196.0942,0.101930395,479.07208,196.26096,0.04480917,465.37323,209.34622,0.17147918,483.9321,201.27315,0.1330503,457.37784,209.76877,0.15053968,478.1797,190.20172,0.107840165,452.15112,203.70842,0.14250702,470.68402,192.57188,0.11884247,467.23407,207.56776,0.440985,480.08136,204.24977,0.41323078,470.2774,196.25699,0.6348253,477.83115,193.92441,0.621594,475.97665,193.90431,0.78876376,474.96277,194.0084,0.785131,0.98145366,0.4065432,0.19258602,0.87228696
121,4033.333333333333,472.3943,195.63675,0.005640721,469.73026,193.45914,0.006252288,474.6573,194.04016,0.0039768927,469.0676,198.24759,0.04782732,483.33356,199.35982,0.025068384,467.82864,210.33224,0.06693575,489.29163,203.75769,0.053781465,449.93506,216.12486,0.078243725,486.95364,199.85562,0.05660713,435.1648,225.98207,0.07881764,479.82782,216.66849,0.06899166,470.0267,210.91045,0.25586393,483.85266,208.19693,0.23685542,474.82996,196.88214,0.49123755,484.3454,195.501,0.47821477,474.08557,205.02692,0.707653,477.25726,205.9082,0.70247865,0.67019428,0.26234933,-0.19848152,0.58389921
122,4066.6666666666665,472.9719,194.20677,0.0056544743,470.67252,192.47684,0.00567469,475.0137,192.61774,0.0037518512,470.5093,197.26663,0.050589263,483.68643,197.28813,0.028995808,467.7527,206.42819,0.07808537,492.902,200.83423,0.0783732,446.89862,210.87292,0.096288115,500.0302,197.38655,0.09113665,427.48975,227.03915,0.09569441,491.1859,211.09082,0.103882164,472.45712,210.58484,0.27746436,488.27988,207.86339,0.28005567,474.11963,197.26343,0.45819232,488.74493,195.30487,0.47458157,464.98584,209.95197,0.6294275,482.0958,210.38016,0.6431087,0.9154553,0.13903532,-0.76346603,0.48564103
123,4100.0,476.78336,190.51685,0.0263267,474.8894,189.75,0.025958901,478.5173,188.89314,0.010150149,474.2365,195.38995,0.13359992,485.9728,193.68321,0.036236573,472.2151,203.29727,0.32068822,496.11227,197.65573,0.21113814,443.88217,207.57724,0.4143877,484.56424,196.20053,0.22221069,425.23566,226.58813,0.39395413,461.58966,212.07924,0.27801514,483.18335,216.3055,0.56810105,497.30096,212.47835,0.50369567,467.42636,192.99785,0.6590953,476.4909,191.33542,0.5983877,440.86417,219.29471,0.6963975,450.007,219.47162,0.66377646,0.61002077,-0.00761501,-0.39991078,0.4605852
124,4133.333333333334,466.33923,191.0932,0.46022317,467.5289,188.851,0.33072397,464.87103,188.98962,0.23403679,474.45062,190.35513,0.3092332,465.2583,190.44371,0.15661271,483.72922,198.47202,0.74369144,469.71494,194.25768,0.82886183,462.00232,207.58751,0.7413138,443.07184,195.07901,0.8204057,434.4793,225.58856,0.76507384,426.53308,221.76656,0.8316426,501.12488,217.62279,0.7833827,491.0766,214.74373,0.83032286,466.46692,198.19731,0.67122144,459.12503,199.1434,0.7185736,443.5802,226.36218,0.5358671,444.0151,230.3095,0.57928956,1.52072916,-0.20535959,-0.07713267,1.50482396
125,4166.666666666667,468.53125,191.54054,0.2522888,468.40625,189.44429,0.22247855,469.81125,189.40714,0.066653855,469.80322,189.22217,0.4091253,474.17404,188.89772,0.06296931,474.60828,192.74834,0.8376917,480.095,193.12877,0.67349696,446.16177,201.60469,0.88893676,450.8374,199.15662,0.62749714,426.45685,224.226,0.8607691,429.1166,223.39868,0.67122984,501.4222,220.11086,0.8584561,504.06952,219.54158,0.7951906,457.40814,201.7154,0.7723866,462.60623,205.6961,0.65649694,444.66254,233.39714,0.61393017,451.2471,237.51788,0.52866185,1.42488756,1.14298823,-0.4849041,0.69910692
126,4200.0,465.25613,191.10732,0.15561117,464.56546,189.92537,0.14784814,467.27267,189.10785,0.039707713,467.64246,192.86197,0.33570626,475.05078,191.09135,0.04590972,475.14404,199.19113,0.7182262,483.6358,196.70813,0.5376498,450.25137,207.70088,0.7949794,458.37024,203.55438,0.5180665,432.81775,224.57812,0.7706813,436.181,225.99722,0.5797995,499.90723,220.16339,0.78250366,504.26462,217.60373,0.71755564,463.51135,200.72617,0.7243742,465.51675,201.29462,0.63074994,440.88306,230.5886,0.60929936,442.17465,232.31506,0.5489217,1.48431254,1.01107663,-0.88678004,0.62811539
127,4233.333333333333,466.2949,195.22868,0.05665867,464.8508,192.36487,0.078910425,467.10117,193.02295,0.007595838,466.7427,190.10791,0.4747144,477.90555,189.84846,0.02032442,475.30347,195.26768,0.84188443,485.5453,191.96924,0.6985094,454.0878,206.49802,0.9264416,464.6469,200.40207,0.6349025,436.21783,224.89685,0.88134414,438.34796,224.21672,0.6399222,498.82214,216.17467,0.9190785,504.25995,213.4052,0.879873,461.62842,215.8434,0.7942083,466.2319,213.15233,0.62916076,444.79248,228.08911,0.58111984,446.9992,223.53195,0.44243896,1.54358395,0.7108979,-1.23657914,0.59004035
128,4266.666666666667,461.41083,200.01974,0.14246805,460.44998,197.1439,0.17390785,462.54816,197.47275,0.021333275,462.94006,194.03232,0.6465879,475.79895,193.16129,0.056916274,469.10193,199.34244,0.8913149,485.99756,195.08354,0.7582511,452.53485,211.74828,0.8398255,470.07587,204.69658,0.43390217,445.27914,210.60591,0.71523255,450.15836,205.2923,0.3989537,488.00623,219.4685,0.8689064,499.23608,216.33829,0.80448073,452.6769,217.53955,0.74773985,465.9223,214.7013,0.5772334,437.35706,227.9949,0.606486,448.6971,222.81741,0.4751642,1.30253065,0.61067456,-0.9752124,0.61042892
129,4300.0,16.13396,120.88812,0.68538785,17.037205,119.03024,0.732799,15.730103,119.555405,0.3526198,21.713692,117.34077,0.7532487,17.283003,118.897545,0.12734514,31.257563,120.928696,0.97416896,18.219906,124.62457,0.89995205,44.002335,125.11952,0.9571879,16.853264,134.71042,0.636196,46.011757,123.6371,0.9243409,19.394476,136.90558,0.6317817,35.7537,141.18933,0.978001,26.913277,142.68416,0.9550843,42.52363,154.35997,0.95855576,25.408829,155.69714,0.90664226,47.900543,168.25677,0.9132628,25.273785,169.03062,0.84568214,1.41772924,0.9346809,-1.00567243,0.35348379
130,4333.333333333333,455.88635,200.74167,0.7412622,455.78128,197.88583,0.7872807,454.81467,198.13042,0.21202642,458.9236,193.99298,0.9112543,464.13898,192.99208,0.14802594,468.2664,198.62457,0.98098695,477.4657,194.08357,0.9484941,458.3397,220.41187,0.9472231,464.68463,210.59811,0.64798164,447.46307,234.26862,0.8798297,446.1473,223.54297,0.59142166,498.4745,217.98196,0.9005847,504.9628,215.32391,0.8429972,460.29385,220.30832,0.6793884,475.73767,217.32924,0.46524286,452.28754,236.22218,0.4196633,470.5193,230.15903,0.27847713,1.36914203,1.02434148,-0.43798582,0.79589122
131,4366.666666666666,457.4692,200.14853,0.57698464,457.32892,197.86258,0.6566339,457.04633,197.96622,0.12591122,460.84937,195.66519,0.8414229,465.9058,194.53773,0.07951865,470.19543,200.23401,0.968406,476.58188,194.74948,0.91314894,459.82516,217.18262,0.9534631,461.28287,204.3757,0.673054,449.426,227.56056,0.907905,445.72656,212.23836,0.6660412,494.2498,215.06813,0.9236738,497.8913,211.74373,0.87571096,462.20895,219.96954,0.7749305,468.14026,216.5296,0.5861045,452.89978,232.91562,0.5591103,458.51917,226.70508,0.4018059,1.23360892,0.4903083,-0.51339897,1.00886582
132,4400.0,77.571976,123.319336,0.8913641,78.954735,121.080154,0.8320239,75.9207,121.841705,0.81806844,81.88741,119.355156,0.6143646,73.13755,121.45863,0.6010312,83.71322,121.85841,0.9830362,69.11883,128.17558,0.9776382,99.155075,119.5759,0.950516,65.07333,135.55756,0.90918154,107.05962,115.739784,0.92856747,71.99755,134.38747,0.8790681,83.53387,142.39803,0.9609013,73.953804,145.9669,0.9553931,90.03197,138.65291,0.8425568,78.44593,142.60585,0.81410676,91.743256,146.12944,0.6742229,79.69513,151.461,0.6423836,1.04780802,0.44044227,-0.46009391,0.8320011
133,4433.333333333334,458.11874,202.77591,0.59929836,458.1725,201.57062,0.58865434,458.92465,200.83835,0.25546396,462.177,199.48381,0.6841113,462.802,197.33658,0.15936396,474.53445,203.69737,0.9459948,471.7797,193.48889,0.85197246,469.24738,224.31122,0.93271714,455.4291,193.93782,0.74180245,460.9862,236.14824,0.89398354,447.40924,194.68973,0.7440441,510.28854,205.18958,0.8837363,508.46188,201.24203,0.82914144,479.21756,225.10376,0.684695,481.79547,223.06299,0.5533681,488.64917,236.60829,0.36577693,489.06317,234.23758,0.28847015,1.04780802,0.44044227,-0.46009391,0.8320011
134,4466.666666666667,458.14767,201.94135,0.63983005,458.11212,200.43521,0.62327564,458.05063,200.12845,0.302806,461.7555,198.32022,0.6813803,460.0209,197.25725,0.18290396,474.41553,202.806,0.95091784,467.9422,193.76228,0.8598862,470.0194,224.31123,0.9352505,453.26617,194.87843,0.7406804,460.59576,236.1733,0.8932073,446.5236,194.22083,0.740207,510.9266,205.16495,0.89080364,506.27512,202.21336,0.8356162,487.007,225.67963,0.69761294,485.7194,223.9652,0.5643531,500.9768,235.832,0.38773134,496.4569,232.77042,0.30606708,1.02612113,0.3502904,-0.44044227,0.85803952
135,4500.0,460.4743,202.45898,0.6603769,460.3424,200.52231,0.7447914,458.73956,200.67722,0.21362849,462.72705,197.55708,0.84715545,461.86267,196.51726,0.0926451,474.51624,197.64746,0.96903026,469.2438,193.77884,0.90919584,468.97568,215.86957,0.9626086,458.80777,205.56435,0.70264506,452.81958,230.84029,0.92155546,445.2232,218.47528,0.6818655,505.10077,200.47983,0.9237732,500.46133,198.71477,0.8735937,482.34012,217.71861,0.7589857,478.77002,215.55392,0.5605623,485.1169,234.51773,0.46071678,481.42282,230.03685,0.30442905,1.02217554,0.30189825,-0.37780269,0.90053618
136,4533.333333333333,458.86652,204.01535,0.27724472,458.38092,202.40274,0.30947736,457.6935,202.83757,0.06420925,461.1408,199.55005,0.48732552,461.90854,199.34473,0.042350885,474.39325,198.66644,0.87113154,467.60916,193.96027,0.7706038,469.53488,213.58354,0.90628093,455.3196,197.7214,0.68031317,454.8734,228.0835,0.86890423,448.16473,201.69267,0.7135482,498.2687,203.04913,0.9174874,491.9828,200.82094,0.8881616,476.90076,218.71451,0.8217171,469.13144,216.24802,0.7153846,476.14822,235.15588,0.63735396,467.2014,230.36609,0.52896786,1.22584318,0.66643608,-0.34562313,0.96907126
137,4566.666666666666,458.81363,203.3851,0.1998177,457.84305,201.59305,0.25470644,458.3773,201.62698,0.02889874,459.58356,198.81003,0.61673486,467.59705,197.41467,0.033980586,471.86478,198.89569,0.8926055,478.34027,192.82574,0.73360276,467.90433,212.83904,0.91275316,464.33322,197.0975,0.5227911,455.1436,228.17513,0.8492061,447.28195,205.9986,0.5536208,502.67297,205.86469,0.9138003,505.9442,203.01662,0.8585733,479.53925,218.63345,0.8177096,483.85175,215.4902,0.65582925,478.64923,234.22496,0.6490723,482.0749,228.07898,0.49892217,1.12356189,0.54582417,-0.03758375,0.98135353
138,4600.0,458.33838,204.01079,0.19021018,457.2696,202.24477,0.23368664,457.8771,202.12569,0.027096465,458.1899,199.26788,0.6146438,466.6912,197.40266,0.03643796,469.89264,198.52524,0.9041469,477.3139,192.35149,0.7508256,469.76782,213.68367,0.9237046,465.17194,198.4829,0.53505296,460.5395,230.6223,0.8644865,449.84265,209.74013,0.55789214,503.18073,203.52403,0.93147606,507.9489,201.0147,0.8837219,480.957,218.52551,0.8522458,490.5553,215.55238,0.7043312,485.45312,233.23868,0.7044234,497.1155,227.17435,0.55590343,1.10939423,0.52322479,-0.15966954,0.96514093
139,4633.333333333334,458.7014,204.15971,0.26350582,458.3426,202.61453,0.3232148,458.6771,202.2092,0.042630482,459.9995,200.38083,0.71023893,467.77332,197.798,0.05525044,469.47607,199.85484,0.9289966,477.27695,192.6387,0.8265789,466.51807,216.43144,0.93286866,462.52896,199.69154,0.6166693,459.11346,228.23492,0.8661805,448.77405,207.49988,0.5955905,500.14728,202.77122,0.9176619,505.79343,199.63043,0.8723898,474.71915,219.81264,0.7768061,489.15356,216.22165,0.6062635,479.1292,233.78987,0.5316811,499.48254,227.06232,0.38486496,1.08237895,0.4930104,-0.2210809,0.93787429
140,4666.666666666667,454.87036,205.9019,0.37262312,454.12848,204.13557,0.4519126,454.58487,204.01979,0.065862946,455.67017,200.46997,0.7564965,462.69772,198.29883,0.060911126,466.99112,198.94469,0.9398797,473.48987,192.64912,0.83489054,466.11575,214.836,0.93921256,461.59177,201.29922,0.5898381,455.64157,228.06908,0.87692297,446.11664,212.74675,0.5782068,501.4528,202.38992,0.92770505,505.52496,199.67029,0.8812958,473.9499,222.198,0.81209034,486.27094,218.98572,0.63581955,482.6251,236.32593,0.56845635,499.19113,229.97542,0.40283826,1.12322062,0.49399298,-0.3151631,0.95826286
141,4700.0,454.80652,204.89012,0.28178355,454.46765,203.09467,0.35067543,454.80502,202.61615,0.042308938,456.02478,200.34322,0.7700292,465.3957,197.35046,0.06545076,465.51535,199.82574,0.93836546,476.5316,193.06638,0.84146583,461.35654,217.26369,0.9294878,464.46085,204.24219,0.5836835,453.62317,229.95963,0.8452803,448.3073,217.55467,0.5352802,500.8774,205.13034,0.8983474,508.70605,202.19041,0.8421694,473.37558,223.65572,0.6976471,491.10364,220.08524,0.50110096,478.74615,238.38454,0.4019491,502.60117,231.34389,0.2703047,1.05327566,0.48932572,-0.27831628,0.89021907
142,4733.333333333333,452.92654,204.92249,0.27040005,452.50058,203.00192,0.33250013,453.15295,202.55988,0.037800763,454.33313,199.6488,0.76420563,464.14978,196.59254,0.061173446,464.3278,198.98346,0.9375008,475.26547,192.78885,0.8429012,459.94965,216.62697,0.9343491,465.4819,205.99005,0.60429144,454.05276,232.193,0.85634136,451.92694,223.68507,0.5527448,503.39655,207.90544,0.893522,511.15048,205.41895,0.83750874,475.64264,226.75626,0.64620876,493.4914,223.47095,0.4463936,483.19284,240.0,0.32671723,506.9486,233.02792,0.21404691,1.05327566,0.48932572,-0.27831628,0.89021907
143,4766.666666666667,451.41528,204.16298,0.34231815,450.5912,202.74994,0.33482745,453.7165,202.67882,0.10558083,453.16666,199.02692,0.6193944,461.3037,198.62564,0.112593904,465.15164,199.8139,0.9268376,471.0758,195.82767,0.792822,456.26334,214.33899,0.9227938,457.99527,201.81273,0.6812525,451.5328,228.03923,0.8678846,453.15002,215.78735,0.65823424,504.3071,209.77711,0.8869963,508.2664,208.50565,0.8253908,476.1213,232.6561,0.67742556,485.2098,231.97508,0.5319863,488.88858,238.5587,0.36201423,497.671,236.16493,0.2784373,1.01081224,0.4578831,-0.3070568,0.84723112
144,4800.0,460.4562,205.39172,0.17684583,459.0573,204.2528,0.13702852,463.09622,204.16148,0.063503005,460.8453,202.63025,0.34694916,471.1628,202.03967,0.10066438,471.43695,204.74112,0.7658305,478.7958,198.73874,0.7160085,456.9453,212.11746,0.7957768,461.2649,196.54698,0.7080912,447.99304,212.28552,0.76259685,453.2342,201.90201,0.7017506,500.91162,213.78384,0.7863668,505.2684,210.73517,0.7790263,469.13513,226.90552,0.54900885,475.484,225.37698,0.5124409,472.16373,234.89944,0.2921699,474.40204,233.70792,0.27368298,1.10539891,0.36355525,-0.42251016,0.95457818
145,4833.333333333333,462.0329,205.46371,0.18163219,460.7199,204.19339,0.15196128,464.4063,204.37506,0.06197956,463.83725,202.79025,0.36152408,472.9003,202.86179,0.08953165,474.5421,204.97424,0.76837814,481.23584,200.56303,0.6835282,461.08554,210.53195,0.80320346,464.85284,198.82925,0.66624856,449.69485,206.46295,0.7735137,454.48453,199.81429,0.6756685,500.6103,214.03462,0.7812565,504.64484,211.48846,0.75684345,470.16412,225.72823,0.54527336,477.11694,225.22896,0.48835668,470.62286,231.27116,0.29288167,474.25842,231.20909,0.2638328,1.1328736,0.31958472,-0.46402424,0.9828274
146,4866.666666666666,471.12137,206.28217,0.013968821,469.55664,204.66559,0.016151084,472.99582,204.86697,0.0022487328,468.63586,201.92812,0.20174682,484.74133,200.80518,0.011595827,475.99808,200.06122,0.5496311,490.9474,196.0314,0.38340792,458.37494,200.86122,0.83268726,473.34778,194.7739,0.5280599,449.94803,204.0101,0.7945591,450.2098,202.78717,0.579259,495.95453,213.35323,0.8315413,504.7124,210.1797,0.7837118,456.09268,217.62607,0.64088935,468.55072,214.23743,0.48672223,447.90958,235.07178,0.34852526,459.16144,229.59492,0.2590897,1.12038166,0.29059856,-0.44068792,0.9882316
147,4900.0,471.0255,205.61696,0.014287971,469.29526,203.9303,0.0166423,472.5948,204.21327,0.0023785604,468.22488,200.91684,0.19164984,483.40723,199.85054,0.011265129,475.1991,199.27962,0.5442967,489.2651,195.12352,0.37554324,455.57785,201.17178,0.8318065,470.931,194.85005,0.5203593,447.64246,204.2404,0.7934786,448.932,202.77753,0.57373136,495.78262,213.96432,0.83950144,503.64404,210.78745,0.79107094,456.58588,218.21461,0.6789738,465.67117,214.84668,0.5245299,447.99503,237.82173,0.3936471,453.95404,232.3909,0.29478633,1.09004618,0.25497997,-0.38664592,0.98675773
148,4933.333333333334,467.1296,206.64871,0.017707122,465.5803,205.00073,0.021121336,468.50143,205.09819,0.0026813657,464.87915,201.70103,0.25713053,479.6386,200.01035,0.013646864,471.9857,199.1139,0.6338488,486.74088,194.18991,0.44856706,453.07834,202.03798,0.8626663,472.3398,194.79507,0.54414666,446.76865,204.65433,0.816483,451.83807,202.00572,0.5818963,495.07922,213.30359,0.8702802,503.72113,209.83557,0.82628685,452.9651,220.59447,0.7229356,465.5168,216.85735,0.5665226,446.41534,240.0,0.42976126,457.7196,237.44113,0.3198616,1.10052721,0.24269769,-0.41268434,0.9909337
149,4966.666666666667,467.94357,208.57954,0.016451355,466.3097,206.85445,0.020615812,469.0347,207.01031,0.0024048612,465.50433,203.1573,0.2687947,480.09415,201.6404,0.012459178,473.35843,199.95728,0.64168555,487.5089,195.11053,0.44745743,453.92993,201.69412,0.87054986,471.42874,194.62189,0.53890824,446.8725,203.74593,0.82778436,450.02075,201.61948,0.58637995,497.02557,212.32036,0.89864546,505.4915,208.89632,0.86004686,455.36035,223.0493,0.79432184,469.96457,219.35176,0.65199476,443.846,240.0,0.53354234,458.5257,237.17384,0.4117904,1.06765328,0.23016978,-0.39180448,0.96612351
150,5000.0,466.7889,206.14934,0.013893478,465.08023,204.44707,0.01711137,467.963,204.51785,0.0019348569,464.3787,201.27211,0.24859402,478.77158,199.43172,0.010874478,472.612,198.94096,0.6377137,485.64764,193.67426,0.43936262,453.36243,201.74979,0.8838729,469.27902,194.23753,0.55747956,446.4907,203.569,0.8439001,448.93307,201.39929,0.6053335,497.9718,213.85196,0.9031425,505.91693,210.37044,0.8654135,455.41058,225.01767,0.7823796,471.66547,221.2453,0.63226324,445.7041,240.0,0.49819544,463.6574,239.27881,0.37531736,1.06069766,0.26603401,-0.33088441,0.972019
151,5033.333333333333,473.14148,208.00314,0.014954537,471.37878,206.32573,0.01729425,473.9971,206.67131,0.0025137472,468.925,203.34016,0.22149326,483.30408,202.34628,0.013432222,475.14035,200.8065,0.6058859,488.96997,196.79942,0.42844117,454.44833,200.5584,0.86363816,470.93585,194.37997,0.55149865,447.27338,203.62328,0.82807535,448.8999,201.81488,0.6014214,497.7228,213.06107,0.8876399,505.82755,210.13776,0.84852594,455.7356,224.13348,0.7585723,470.32446,220.88867,0.6086629,446.47003,240.0,0.4701067,461.56607,237.97931,0.35460734,1.047132,0.22673074,-0.30509164,0.97570369
152,5066.666666666666,475.21362,209.13849,0.016072577,473.58994,207.52498,0.018082798,476.27094,207.89833,0.0028801097,470.62222,204.7489,0.21672146,485.61798,204.01163,0.014860431,476.0046,202.11285,0.5975912,490.7581,198.71231,0.43607616,454.5719,202.29703,0.85534704,472.76215,196.9117,0.5656871,448.0859,203.64404,0.82007086,450.85577,202.0622,0.60958284,496.9421,212.04291,0.86485285,505.44202,209.28954,0.82434404,454.83658,221.51645,0.70479417,467.89133,218.44853,0.55202913,444.93823,238.72911,0.40221742,457.18094,233.83784,0.30104214,1.04626936,0.16581067,-0.28175532,0.99388145
153,5100.0,474.71622,209.08127,0.014600067,473.04532,207.41638,0.016334096,475.73944,207.75417,0.002546157,470.05414,204.61432,0.22142911,485.35895,203.75793,0.015147635,475.55652,202.02007,0.60722035,490.8421,198.52054,0.43956262,454.46365,201.42145,0.85740036,474.09106,196.1471,0.55968344,448.41248,203.32585,0.8190737,452.39468,201.65872,0.6006259,496.9058,212.9789,0.8739908,505.95026,210.22218,0.8345843,454.68335,222.42877,0.7204583,469.78754,219.3659,0.5693272,444.07394,240.0,0.4199155,459.4774,235.54701,0.3160559,1.07504071,0.10194286,-0.29231807,1.02950004
154,5133.333333333334,475.89624,208.09933,0.013598118,474.18228,206.39613,0.014763168,476.9515,206.76477,0.0023845637,470.99908,203.76811,0.21349666,486.5102,203.04352,0.015557709,476.26868,201.65909,0.6058388,491.74567,198.47928,0.4397955,455.07812,199.86421,0.857854,475.99466,195.21019,0.5633124,448.65793,202.66399,0.8200563,454.25977,201.15483,0.6029228,496.9986,214.53065,0.87270755,506.1889,211.94681,0.8335508,455.04196,223.34007,0.7049845,470.93286,220.47125,0.55327266,444.59433,240.0,0.39588395,461.2734,236.83812,0.29697233,1.05218074,0.0859759,-0.24073253,1.0206568
155,5166.666666666667,475.01755,207.91571,0.014271473,473.3167,206.27904,0.015572687,476.21927,206.65637,0.0025196248,470.0169,203.9775,0.2091971,485.9208,203.22466,0.015033801,475.25406,202.00256,0.5990957,491.00375,198.76596,0.43652293,454.52875,200.02312,0.8633554,475.11823,195.24274,0.5793953,448.632,202.07742,0.8305971,454.00842,200.48647,0.62369335,496.37354,213.66125,0.86636055,505.41525,211.00029,0.8270097,453.59644,223.94647,0.68255115,467.03552,220.95522,0.5277238,446.01642,240.0,0.36313206,458.6843,235.4461,0.26861012,1.05628607,0.08278251,-0.23999559,1.02532406
156,5200.0,472.9775,206.30579,0.011621914,471.23953,204.64987,0.012710615,474.3087,204.93454,0.0019494235,468.46436,202.4938,0.1951978,484.7,201.35718,0.013241339,474.26578,200.87744,0.5753125,490.13272,197.05672,0.41144955,453.7564,200.23553,0.8583195,474.63922,194.9402,0.5695309,448.5611,202.08131,0.8215493,454.44122,200.58795,0.61136013,496.98392,214.16533,0.8602108,506.15744,211.26053,0.8202888,453.04553,224.78992,0.6640549,467.12854,221.56932,0.5078965,445.82394,240.0,0.33912116,459.46625,237.07379,0.24936326,1.06138173,0.11594465,-0.24859318,1.02532406
157,5233.333333333333,468.3351,204.81908,0.012268258,466.64078,203.12653,0.014466284,469.7773,203.24057,0.0018005566,465.55328,200.76108,0.21787451,480.93536,199.06421,0.010973598,473.0746,199.45242,0.6000591,487.1674,194.63614,0.4105588,453.80154,200.54103,0.87000084,471.13596,194.0645,0.54966515,448.0388,202.43219,0.8310266,451.88986,200.8085,0.5992206,497.059,215.0729,0.8828453,505.33786,211.71855,0.8418826,453.7585,224.84735,0.73406315,467.9395,221.23483,0.5771334,445.0343,240.0,0.43216857,459.48618,239.38889,0.3210092,1.06938404,0.11422513,-0.27880757,1.026061
158,5266.666666666667,467.19327,203.63701,0.012330199,465.5697,201.87311,0.014847403,468.939,201.91672,0.0016379802,465.6844,199.04744,0.22181499,480.66513,197.24126,0.009217907,474.194,198.05399,0.60233986,486.8583,192.97586,0.40462962,454.6982,200.17096,0.8733535,469.73196,193.25629,0.5413367,447.77917,202.29195,0.8355154,450.07468,200.63942,0.5974853,497.44537,217.3298,0.8885221,505.09384,213.81671,0.8470629,454.41287,223.74286,0.7557045,469.44437,220.04512,0.6000528,443.85715,240.0,0.46911073,460.13577,240.0,0.3512293,1.09438842,0.06411346,-0.35151862,1.03441295
159,5300.0,470.45343,206.68416,0.012725691,468.6788,205.0295,0.014737203,471.73254,205.25227,0.0020017705,466.90887,202.03445,0.19948685,482.00146,200.69585,0.010844474,473.8087,199.72588,0.5771013,487.89215,195.32289,0.39331606,453.66156,200.19594,0.8629796,471.5675,193.84154,0.54543805,447.78534,202.71985,0.8296012,451.24908,200.64899,0.60264826,496.04074,214.59511,0.8792484,504.11383,211.3837,0.83759296,453.78305,221.97975,0.7502757,466.09653,218.49213,0.59906936,445.11197,240.0,0.4577025,456.42572,240.0,0.34414148,1.05912292,0.14738726,-0.2935463,1.00690066
