frame_id,timestamp_ms,nose_x,nose_y,nose_conf,left_eye_x,left_eye_y,left_eye_conf,right_eye_x,right_eye_y,right_eye_conf,left_ear_x,left_ear_y,left_ear_conf,right_ear_x,right_ear_y,right_ear_conf,left_shoulder_x,left_shoulder_y,left_shoulder_conf,right_shoulder_x,right_shoulder_y,right_shoulder_conf,left_elbow_x,left_elbow_y,left_elbow_conf,right_elbow_x,right_elbow_y,right_elbow_conf,left_wrist_x,left_wrist_y,left_wrist_conf,right_wrist_x,right_wrist_y,right_wrist_conf,left_hip_x,left_hip_y,left_hip_conf,right_hip_x,right_hip_y,right_hip_conf,left_knee_x,left_knee_y,left_knee_conf,right_knee_x,right_knee_y,right_knee_conf,left_ankle_x,left_ankle_y,left_ankle_conf,right_ankle_x,right_ankle_y,right_ankle_conf,acc_x,acc_y,acc_z,acc_mag
0,0.0,532.51776,80.33354,0.9487679,536.2021,75.14694,0.9632629,530.35944,77.25491,0.6182087,548.71704,71.546074,0.96570086,534.591,75.70671,0.21142153,566.5488,90.13229,0.9988644,542.9592,93.02983,0.9700426,574.5083,124.1951,0.99703634,546.1637,123.01608,0.78801656,544.48566,142.72743,0.989414,533.7556,142.23851,0.7535142,569.0251,146.90479,0.9981629,554.1115,144.77429,0.99089044,531.91125,168.18187,0.994836,519.4132,163.42627,0.9740647,555.07355,208.89693,0.97586286,547.5538,198.25368,0.9358247,1.03321325,0.58144276,0.71237177,0.47114795
1,33.333333333333336,530.79877,80.72225,0.9399926,534.05164,75.51207,0.9581556,528.8534,77.7676,0.56874156,546.1451,71.53189,0.96446836,533.9685,75.95656,0.19220145,564.67084,89.58261,0.9988109,543.0011,92.72952,0.9663507,573.3133,123.317474,0.9970987,546.77795,122.79474,0.77394533,544.3278,141.15611,0.98956686,534.71075,141.56035,0.74233586,568.6938,147.0369,0.9981438,555.0479,145.0765,0.9904765,530.4391,168.34439,0.99478227,519.19104,163.83401,0.972839,554.9157,209.33029,0.97539234,547.2734,198.5513,0.93313134,1.10131708,0.6730685,0.74700778,0.44928551
2,66.66666666666667,528.5332,80.458374,0.9411387,531.9224,75.17636,0.96141684,526.6012,77.46307,0.5628506,544.50806,71.35509,0.96739286,531.8874,75.77698,0.1793329,563.0854,89.50093,0.99881184,542.1246,93.11072,0.96281195,571.6802,123.02867,0.9971311,546.41907,123.40088,0.7490282,543.0298,141.70929,0.9895906,533.988,142.18146,0.7212818,569.5632,146.59135,0.99792635,556.29486,144.91714,0.9888415,529.54834,167.55466,0.99416083,518.55817,163.7622,0.9679887,554.7138,208.80957,0.97232085,547.47656,198.84796,0.92259485,1.10131708,0.6730685,0.74700778,0.44928551
3,100.0,528.3488,83.29514,0.9426557,531.5175,77.985306,0.95869523,526.1478,80.24529,0.5437783,542.892,72.31993,0.96303886,531.3227,76.883255,0.17767741,561.4425,88.620255,0.9985896,542.5394,92.485565,0.96514475,571.33984,122.90184,0.9969613,546.17834,121.93001,0.7787104,542.43427,140.56302,0.9915941,534.4938,141.20178,0.78573453,570.5116,146.32094,0.99789137,558.82043,145.24869,0.98948854,528.50793,167.78497,0.9956274,518.9952,166.94775,0.9775065,553.8058,206.12773,0.9824785,546.53925,200.4581,0.9532874,1.07945377,0.65808413,0.72760179,0.45026809
4,133.33333333333334,526.8799,84.47072,0.9414807,530.0143,79.12755,0.95852673,524.46594,81.415726,0.54175997,541.2933,73.0844,0.9625598,529.4104,77.69482,0.17609423,560.0046,88.82897,0.99847764,541.69324,92.74034,0.962433,570.3959,122.91757,0.99670994,546.6162,121.92291,0.76513386,542.07416,140.6739,0.99097985,534.8159,141.44012,0.7745375,571.09375,146.249,0.997644,559.77246,145.27621,0.98831254,528.0635,167.4273,0.99526346,518.9943,166.7961,0.97569025,553.6757,206.30533,0.98154646,547.0198,200.86449,0.9509376,1.03977736,0.62074603,0.70991532,0.43798582
5,166.66666666666666,524.4782,84.38382,0.94198436,527.7194,79.16511,0.95855016,522.3408,81.42588,0.54393107,539.46313,74.03895,0.96253425,527.626,78.558685,0.17216857,558.5534,90.30792,0.99844545,539.8318,94.40018,0.96263826,569.2477,123.20224,0.9966438,544.1735,122.50113,0.77040124,542.1544,140.78198,0.99091196,533.8395,141.1308,0.77916586,570.6639,146.7686,0.9975439,559.01843,145.96133,0.9880454,528.2791,167.8121,0.9948702,518.8037,167.4708,0.9742294,553.80884,206.20538,0.9796397,546.6538,201.16823,0.9467151,0.95041519,0.56179112,0.65832978,0.39278706
6,200.0,521.3546,85.64182,0.9391888,524.317,80.460815,0.957309,519.3744,82.821655,0.5214318,535.9024,74.94563,0.96336925,525.1094,79.79344,0.1590592,556.78046,90.62349,0.998509,537.45624,95.351265,0.9603327,569.3188,122.90239,0.9969047,542.05975,123.033966,0.76404047,541.5253,141.78691,0.99154156,532.77704,142.53194,0.7766246,570.21875,147.6449,0.99755704,558.3562,147.06738,0.9875902,528.22284,168.57526,0.9946101,518.8265,168.43896,0.9718765,553.69055,206.79503,0.9778545,546.45245,201.68094,0.94080025,1.06890879,0.6438367,0.76248344,0.38296124
7,233.33333333333334,518.7955,87.01726,0.9344297,521.6622,81.98701,0.95410264,516.8793,84.21485,0.50632405,533.2003,76.27345,0.96180063,522.73285,80.85473,0.15515988,554.83435,91.20282,0.9983753,535.4729,95.58684,0.9575479,568.32825,124.039825,0.99665415,541.70135,123.36833,0.7576111,539.4626,143.0213,0.9909339,533.1852,142.53365,0.77065736,569.4483,147.33044,0.9972963,557.464,146.5994,0.98649,528.9321,169.06502,0.99393386,518.97595,168.49232,0.9690592,553.70886,207.1031,0.9751721,546.4188,201.59528,0.9348735,1.01024138,0.60477907,0.72146066,0.366503
8,266.6666666666667,515.63983,87.75322,0.92471033,518.2555,82.77091,0.94754624,513.7668,84.939186,0.47007042,529.59424,76.865654,0.9595147,520.0734,81.28344,0.14819662,552.1863,91.71159,0.9982595,533.6259,95.65558,0.95471627,566.7537,125.615326,0.99645305,541.3988,124.17847,0.75068897,537.78845,144.59053,0.99030507,533.2834,143.54628,0.76355964,568.8391,147.58336,0.99724835,557.4741,146.73422,0.98639673,528.8965,169.7598,0.99396086,519.8173,168.78082,0.96969485,553.3574,207.54263,0.97577816,547.3172,201.53474,0.93726134,1.00903403,0.59618148,0.7244084,0.3714159
9,300.0,513.1257,89.32746,0.9175545,515.2672,84.08141,0.9485723,511.21423,86.707565,0.44644582,526.2283,78.53804,0.96290195,517.6695,83.458176,0.13724428,548.9468,93.37906,0.99867225,533.45105,97.12394,0.9439758,565.28296,126.98602,0.9973859,542.60657,125.430954,0.7010558,535.78595,145.76392,0.99095726,533.5749,143.91978,0.7066484,568.1513,146.58861,0.99751675,558.0686,145.89449,0.9850183,527.00055,167.85764,0.9934582,519.9528,167.2374,0.96018827,555.57025,208.55359,0.9689019,550.00256,202.16891,0.90837353,1.09749759,0.6330283,0.80129542,0.40212158
10,333.3333333333333,509.87857,92.56963,0.884727,511.39832,87.39644,0.9285388,508.54324,89.70517,0.38334417,522.3282,80.78111,0.957395,517.2793,85.11884,0.14984176,544.6804,93.93977,0.99765414,533.3704,97.08054,0.9449609,558.88824,127.15408,0.9949439,544.3339,126.11397,0.7033042,534.3784,145.70398,0.9834911,533.1969,146.36711,0.6810296,565.82495,147.60925,0.9962478,558.9494,146.55396,0.98247737,526.3877,169.85962,0.9906447,519.1153,167.08362,0.95606935,553.2144,208.83128,0.9606313,546.52203,199.38898,0.90365785,1.07967006,0.60428778,0.80989301,0.38025914
11,366.66666666666663,506.0365,93.72049,0.9118351,507.82706,88.374115,0.94549143,504.60846,90.92905,0.47042736,519.89386,82.54103,0.9587857,512.8724,87.15828,0.15882723,542.2257,96.766975,0.9977684,531.72345,99.498405,0.9478347,555.28,129.20393,0.9950252,541.78876,127.84085,0.72397935,532.501,148.7218,0.9836736,531.5206,145.19588,0.7065814,568.34564,146.64389,0.9957634,561.21747,145.56407,0.9815151,524.7263,168.08844,0.989037,519.8408,166.55779,0.9511107,552.6299,209.18178,0.95141166,547.7604,202.37257,0.88299984,1.12633987,0.64039766,0.84305515,0.38443511
12,400.0,503.76532,97.10277,0.9006313,505.1899,91.94672,0.9374479,502.21698,94.29081,0.4457023,516.1853,85.39488,0.9524354,509.72833,89.593506,0.15386973,538.2109,97.667336,0.9974688,529.411,100.09968,0.94183826,552.5886,128.4616,0.9947706,540.7327,126.8618,0.7178036,532.84955,148.46698,0.98320353,530.77234,144.0587,0.7061743,568.29565,145.73679,0.9956422,562.1932,144.864,0.9811396,524.7352,168.46295,0.9889586,520.8387,167.32758,0.95088416,552.5463,209.06818,0.95135134,548.0345,202.70328,0.8826994,1.09914488,0.49374733,0.87744551,0.44093356
13,433.33333333333337,501.24326,99.20042,0.907497,502.34613,94.16968,0.9444466,499.88858,96.69447,0.43840894,512.49335,87.11962,0.95596063,506.64832,91.97731,0.12448988,536.0788,98.71116,0.9978551,524.1331,99.93614,0.9356316,550.7791,128.38696,0.9961532,522.8481,116.26437,0.7076463,530.96045,150.7181,0.9874018,506.19934,117.88073,0.72328675,568.46295,146.18335,0.9963761,560.8515,145.21188,0.9822274,523.9994,167.12112,0.9906391,520.6238,167.45662,0.9517614,553.43713,207.94006,0.95501333,547.5685,203.05315,0.88051933,1.09914488,0.49374733,0.87744551,0.44093356
14,466.6666666666667,498.46768,102.1576,0.86532724,498.8634,97.48755,0.91469765,497.64133,99.618935,0.3497123,507.4638,90.10359,0.9406665,504.86957,93.899994,0.11531987,530.9356,99.71736,0.997165,523.1965,101.53371,0.9235694,548.43427,129.13158,0.995352,527.27,122.69833,0.69223475,530.7954,151.02678,0.9850095,511.91034,132.90213,0.7024771,567.6051,145.50421,0.9959667,562.6157,145.10498,0.98110604,523.31055,167.74417,0.9901266,521.1377,169.00928,0.951527,552.68085,207.7052,0.95448905,547.5065,204.5769,0.88240224,1.0736055,0.45444406,0.88432358,0.40506933
15,500.0,493.04248,105.99708,0.8799986,493.68216,100.73937,0.91998005,491.82516,103.4032,0.41581222,503.94632,92.00784,0.9346139,499.49222,96.87078,0.14037783,527.5896,101.19565,0.996136,520.30054,104.333984,0.92867255,543.72156,132.53159,0.992728,531.24225,131.36949,0.70927024,528.67444,151.91612,0.97901297,522.80994,148.62305,0.7055323,565.6315,146.11877,0.99376833,560.3927,146.39026,0.97618365,521.2438,167.42813,0.98588204,518.6729,168.96948,0.9437871,552.8193,207.78426,0.94176406,547.2711,205.30876,0.8688882,1.0259941,0.36822251,0.84919628,0.44265308
16,533.3333333333334,491.2384,107.00549,0.8369236,491.89737,102.76427,0.9091473,489.77063,104.409706,0.2701635,501.08545,95.0171,0.9520762,498.17554,97.84781,0.10569237,522.68494,102.828125,0.99753344,519.30194,105.5656,0.9113164,540.08527,133.21967,0.99584216,533.2347,134.07915,0.6129547,526.50446,152.25992,0.9859167,523.67584,151.75601,0.63323736,561.1431,144.64055,0.99695325,559.08673,145.07275,0.9824746,524.07324,171.23096,0.99446446,520.78906,172.02643,0.9676413,551.7136,206.52718,0.9788582,547.0576,201.97284,0.93940747,1.02969426,0.33235828,0.86368937,0.45149632
17,566.6666666666666,490.13193,112.30278,0.73037523,490.00983,108.64043,0.83617276,489.25607,109.773575,0.17753749,497.1978,99.62652,0.9229591,497.73654,101.243996,0.083413735,519.0801,104.72069,0.9956766,517.5179,105.24374,0.8713061,536.24805,135.95883,0.993929,531.8769,133.51848,0.56925774,525.58966,153.20346,0.98087317,524.94275,152.11307,0.59652835,560.71124,144.13406,0.99593276,559.9827,143.93341,0.9784046,522.11475,171.01247,0.993572,520.86816,170.86269,0.9649366,550.4893,205.78374,0.9780571,547.59973,200.68393,0.93957835,1.00126603,0.28642258,0.86811098,0.40850837
18,600.0,485.775,113.78638,0.7564517,485.94284,110.3571,0.8670862,484.98834,110.899796,0.19168843,493.71027,101.3545,0.93802905,493.8322,101.51175,0.08600398,514.7537,106.1129,0.9960961,516.0321,104.8047,0.8652095,532.205,136.4754,0.9941122,532.54083,132.08533,0.5290517,523.26697,155.07138,0.9804906,524.4532,154.24353,0.55994546,560.23,142.95677,0.99561054,561.14966,142.09346,0.97520477,522.2398,171.80148,0.9931023,521.1514,170.59015,0.9600971,550.3422,205.84311,0.97650844,547.90857,200.00693,0.93322104,0.92943694,0.20044668,0.80768221,0.41391257
19,633.3333333333333,482.1093,115.85809,0.78861564,482.43463,112.2433,0.89485824,481.07416,112.94634,0.22016951,490.51038,103.70945,0.950044,489.52975,104.189224,0.09368122,510.9565,108.96038,0.9968599,512.51434,108.34064,0.8672669,529.2317,138.23225,0.9948591,530.3823,134.81296,0.4979088,516.9209,159.20975,0.981277,521.23376,158.36382,0.5258032,556.14215,143.66855,0.99587643,557.0953,143.20746,0.9743575,521.34094,173.99971,0.9931599,519.8931,173.5832,0.9568969,550.8135,205.94507,0.9761872,547.83527,200.92767,0.9283705,0.92943694,0.20044668,0.80768221,0.41391257
20,666.6666666666666,479.97656,118.78768,0.79434663,480.29926,115.563354,0.8952818,479.23514,115.788055,0.22771327,487.70987,107.27553,0.9508276,487.438,106.52752,0.102840014,506.37122,111.99852,0.99720496,510.40045,109.40554,0.8834651,523.8313,140.7073,0.99537426,526.6405,134.14008,0.5337131,512.65576,163.44475,0.982369,515.6976,162.49966,0.55067325,553.5953,143.13007,0.9964765,556.22363,142.23648,0.978445,519.10846,174.83105,0.9940196,519.9877,174.42542,0.96271574,549.4852,205.54593,0.9785518,548.83307,201.38213,0.9356941,1.0677754,0.23974995,0.91748572,0.49079959
21,700.0,478.77768,121.92085,0.79535574,478.88507,117.86489,0.86732054,478.01794,118.87027,0.30137336,486.60687,109.41312,0.91903603,485.50815,110.576035,0.14672078,506.21606,114.71989,0.9938645,507.56384,112.241974,0.9094775,519.6296,148.70297,0.9880939,519.7734,138.91763,0.64689046,506.39645,172.04825,0.96241575,508.65485,167.83559,0.61541694,553.6214,141.22446,0.99096996,554.6574,140.42639,0.9684532,517.3711,173.23917,0.9831513,520.4008,173.78908,0.93880713,549.7935,206.56699,0.94025224,549.98145,204.51843,0.87410235,0.9664591,0.18816441,0.83126417,0.45567229
22,733.3333333333333,475.7045,123.30066,0.808795,475.7198,119.18591,0.8725968,475.10483,120.35266,0.32330215,483.23404,110.578995,0.9189242,482.6991,112.12283,0.15438531,502.90854,116.40033,0.9938263,504.56067,114.5026,0.9155804,515.0032,151.38046,0.9875508,514.8839,141.95839,0.66030866,503.80344,176.01334,0.9606965,504.09665,171.28603,0.6231472,552.297,143.32236,0.9895279,553.79517,143.07883,0.9650652,515.2025,173.30893,0.97933596,520.191,174.8814,0.9281326,548.52625,204.62213,0.92649686,550.8518,203.78952,0.85003126,0.93112114,0.14763291,0.80399752,0.44584647
23,766.6666666666667,474.89783,125.89865,0.7562661,474.7929,122.47713,0.8314402,474.02115,122.99939,0.19128792,481.7451,113.75395,0.9088883,481.93298,113.78151,0.09517671,499.34665,118.879,0.9946674,503.23157,115.91516,0.89396363,509.4755,159.38899,0.99254495,510.60242,149.23172,0.626728,497.39832,183.21869,0.9779952,496.68655,180.70853,0.6472923,551.17926,143.88428,0.9928831,554.0403,143.79755,0.9690665,515.0207,175.28226,0.9878925,519.01605,177.10982,0.94492644,545.8698,208.65369,0.9580355,546.1314,206.974,0.9010504,0.98945498,0.17440826,0.86516324,0.44732035
24,800.0,472.13342,130.2488,0.7456588,472.0779,127.11992,0.84530014,471.90192,127.21727,0.17115818,479.57162,116.9258,0.92567915,481.8628,115.83975,0.08479677,495.9206,120.8409,0.99471444,504.43893,115.57796,0.8729284,502.03577,163.09724,0.9924501,511.0589,149.22632,0.55164266,490.84067,188.63908,0.9758804,495.05704,184.5554,0.57594264,549.574,145.61856,0.9916779,555.6387,144.76361,0.9603902,512.9165,176.53815,0.9864109,519.7014,177.5419,0.93242633,545.32965,208.24557,0.9553713,548.15155,206.36237,0.8890979,0.83388338,0.13436806,0.71458258,0.40826272
25,833.3333333333334,467.5267,131.76845,0.7520445,467.77008,128.39331,0.84869146,468.302,128.74591,0.1852735,475.5406,118.39019,0.9177901,477.81116,117.38199,0.07076852,494.09882,123.303024,0.9948867,499.9199,117.91701,0.8477846,498.77936,168.58966,0.9930987,503.91473,150.54678,0.53463614,483.68265,194.73827,0.9792901,490.8788,179.98012,0.5934762,549.734,147.48415,0.9913629,553.37604,146.61159,0.95710665,512.0497,179.47095,0.9845073,518.55383,180.19696,0.92085636,548.35583,208.98666,0.9497631,549.8971,207.02707,0.87257004,0.83388338,0.13436806,0.71458258,0.40826272
26,866.6666666666667,466.27383,134.0572,0.69580585,465.7738,130.95088,0.794784,467.081,131.16614,0.13849086,472.8158,121.69862,0.8967885,478.19406,120.42705,0.06500071,491.4106,126.625565,0.9921868,499.47296,118.61116,0.84649545,495.2169,171.51614,0.9910651,501.35114,146.72543,0.56708455,478.15436,198.48347,0.9760726,487.30823,179.10802,0.6210134,548.1652,148.88571,0.9876508,553.4267,146.97464,0.94779205,510.8408,177.88643,0.97704303,515.4906,177.42007,0.89867306,548.18677,209.56186,0.92752415,542.8346,205.5057,0.8367516,0.8017612,0.07762396,0.6973874,0.38787415
27,900.0,465.08008,137.19789,0.6498635,465.03906,134.45624,0.7659346,467.12677,133.99623,0.12123763,471.10428,125.0112,0.89204335,477.11102,121.570526,0.055861756,488.6388,129.92786,0.9935272,497.22232,118.02109,0.826249,488.09467,176.0436,0.9929684,495.83313,141.66742,0.5518883,470.33072,201.21613,0.9795024,481.77255,169.57315,0.61710715,548.25903,149.64932,0.99154365,552.8092,146.3068,0.9600993,507.58102,177.44437,0.98535407,510.93704,175.56274,0.92714727,550.0188,206.21962,0.95417345,543.59906,202.48254,0.8854018,0.86837682,0.02382761,0.72858437,0.47188489
28,933.3333333333334,460.43768,138.26306,0.75654125,461.3635,135.82059,0.8518467,462.09766,134.72351,0.19909641,468.2519,128.19171,0.9325775,470.5265,123.64578,0.08974523,484.18597,135.6943,0.99626935,490.5832,122.66223,0.89636916,480.0156,181.22813,0.99406576,489.25906,149.50946,0.61811405,460.972,207.72256,0.9775523,475.7532,184.2621,0.62208396,545.23315,150.1823,0.9939985,547.88043,146.23424,0.9726638,507.31003,178.9592,0.989673,509.21646,175.83902,0.9501029,551.05255,203.4604,0.9660157,547.1991,199.86125,0.91490614,0.97345234,0.24073253,0.81824496,0.46918279
29,966.6666666666666,462.76044,144.84904,0.5910822,461.82904,141.89923,0.6843094,463.8095,141.20187,0.11767423,465.67615,132.78487,0.8506704,473.28842,129.83846,0.08490037,479.55157,137.16951,0.9869882,491.40173,127.97389,0.84730965,477.32428,182.9611,0.9817978,492.18552,157.18579,0.5495343,458.50555,210.47699,0.9401434,475.81998,187.10333,0.5168271,538.8532,150.0916,0.97997564,546.99097,148.31042,0.93205917,510.9835,178.38019,0.96541715,518.0254,176.7053,0.877959,548.0986,203.93874,0.9013794,547.9606,198.35587,0.8087849,1.00176834,0.27585983,0.8108756,0.5195401
30,1000.0,459.13055,147.01836,0.5664182,458.38998,143.8559,0.65493786,460.41058,143.23354,0.1266053,462.30466,136.19382,0.8478359,470.36505,133.03229,0.11207563,473.90344,142.26846,0.98573536,490.2264,131.25606,0.87192136,470.83783,187.79222,0.9754304,494.35095,157.92657,0.5882294,452.61624,216.51556,0.90830564,476.45886,187.55965,0.49834916,531.7652,157.32918,0.97731584,542.1566,154.83932,0.9350955,507.19284,181.87982,0.9585377,514.86523,180.16515,0.878316,547.8137,204.52133,0.8824778,548.1122,199.98877,0.79462576,1.00427562,0.29673969,0.81726238,0.50259057
31,1033.3333333333335,453.41132,150.68794,0.32689777,452.4738,148.15906,0.38650572,456.1152,146.91089,0.05278431,454.68896,138.80159,0.72233534,463.39825,133.85909,0.053983174,471.12875,143.39474,0.9816943,480.1338,128.48232,0.7752917,466.40793,193.80225,0.9805669,481.76685,156.3417,0.5580248,447.59888,218.47607,0.9460476,471.64636,190.34033,0.5742651,533.5792,153.70224,0.9855091,538.65826,149.12506,0.95370954,500.00412,189.16225,0.9765187,507.1352,182.27312,0.9212048,544.0982,207.93867,0.93664664,546.58997,199.16745,0.87561655,0.9650277,0.34807959,0.74749907,0.50136234
32,1066.6666666666667,453.03268,155.6637,0.43701693,452.6707,154.31377,0.5368343,454.995,151.80545,0.06405291,455.35956,145.83424,0.847536,462.34268,139.23761,0.065225124,467.95178,149.14688,0.9927128,478.18213,133.76942,0.8656215,455.89606,197.28323,0.99187124,478.37485,163.44284,0.6414043,436.6047,226.00223,0.96826106,466.18384,198.2579,0.6161845,530.3354,154.88986,0.99369735,536.2164,150.31555,0.9749547,506.35068,190.34402,0.98880017,512.0998,183.9711,0.9530915,541.0163,207.79404,0.96244276,545.0684,200.38118,0.91422594,0.98153687,0.36257267,0.78041556,0.47213053
33,1100.0,446.56818,160.68579,0.43151072,446.20288,159.51408,0.50503755,448.9999,156.72482,0.06759683,448.4145,150.53879,0.8202478,455.58093,143.20932,0.06893873,462.8938,153.74138,0.9921406,468.51788,137.4954,0.8795789,452.57315,204.93016,0.99116933,464.7809,169.46886,0.6864836,432.45917,233.23123,0.96475726,450.27322,210.83554,0.6386022,527.5922,158.62923,0.9929858,530.6616,154.15654,0.9751608,503.99796,195.58322,0.98547584,506.66,190.32375,0.9453805,542.7277,205.90211,0.9491287,543.31226,201.39844,0.891541,0.93284851,0.4876062,0.73693632,0.2989505
34,1133.3333333333333,440.40112,163.49348,0.41014102,439.63565,161.71643,0.41261142,441.67163,160.20401,0.075859174,442.80972,153.6258,0.6759437,447.59637,149.1225,0.07259679,456.70444,155.78166,0.9787185,459.98257,144.354,0.857804,450.72217,206.45966,0.97813797,457.7959,177.44547,0.6965873,434.58643,231.57088,0.93467957,445.4583,215.66101,0.6432377,523.38727,161.99446,0.980496,525.37274,160.88327,0.9510813,510.06995,199.29956,0.94735676,512.0174,198.02257,0.864424,549.48285,206.26535,0.839804,547.44543,204.33124,0.7447598,0.54014572,0.14296565,0.48416716,0.19209473
35,1166.6666666666667,434.68292,164.13118,0.12697005,432.1908,162.82271,0.12903564,437.64377,160.79852,0.015750796,433.49234,154.75168,0.49480632,447.7588,149.25972,0.03290599,451.98727,155.46889,0.955861,458.8081,143.724,0.7180841,451.15427,205.15826,0.97138166,460.33618,179.0494,0.612283,435.57773,227.7429,0.9189861,445.8359,215.92212,0.5750436,517.1287,168.39622,0.97057927,521.81433,166.5117,0.9245799,511.63138,206.73697,0.90692466,515.3824,202.06244,0.7744997,544.10065,210.77776,0.7196144,544.9447,204.26753,0.58805597,0.36659592,-0.08916929,0.09039752,0.34390362
36,1200.0,425.55988,162.23096,0.08637791,423.42297,160.17508,0.075254045,428.40906,159.11919,0.012559128,426.63562,154.10283,0.38787672,439.52997,151.09166,0.032460164,446.62625,158.26253,0.92444664,450.51404,150.76624,0.7251616,444.88028,209.02914,0.94740283,450.95352,190.76244,0.66182125,434.2928,229.36833,0.8642265,435.84296,225.31128,0.58365685,511.71405,176.57123,0.95358175,514.468,176.88416,0.9128568,514.2936,210.79619,0.84217376,517.7938,208.02702,0.72371954,545.9824,207.73038,0.59905314,550.2917,203.53423,0.50629795,1.13347594,-0.169741,-0.37239849,1.05701233
37,1233.3333333333335,416.9836,166.67128,0.19338425,415.11176,164.83437,0.22447464,418.69083,162.75642,0.0231589,418.6836,157.60529,0.69232523,430.19366,152.11143,0.051558934,438.02243,161.75981,0.978986,450.2073,150.77774,0.8116559,441.74683,210.521,0.9795156,464.2937,189.44806,0.6393569,431.1629,231.06404,0.92742336,447.65305,225.2674,0.5692722,507.1925,179.68283,0.97711754,515.5855,177.61554,0.9362613,502.49908,224.91647,0.90860003,512.73157,217.36633,0.77059275,529.4773,220.95293,0.68726563,544.37976,209.93057,0.5455596,1.05430705,0.43331856,0.18570795,0.94303284
38,1266.6666666666665,413.04684,157.86758,0.40742427,412.73868,155.7769,0.46597236,414.7031,153.44444,0.06935749,418.58688,152.88197,0.82339066,426.63602,146.48364,0.10433676,436.13196,164.93547,0.987559,448.4968,152.8282,0.90402013,442.3429,213.46783,0.9789444,460.8054,190.19221,0.71256673,428.99634,233.77344,0.91163635,439.16852,224.71983,0.5870962,503.92578,185.94098,0.9766693,511.46387,183.6278,0.9435202,503.27264,225.75595,0.8946167,507.51486,220.66286,0.77105796,535.4967,214.4942,0.64682233,541.4968,208.47356,0.5215278,1.34648439,0.48048248,0.26456014,1.22970107
39,1300.0,409.2906,159.4432,0.16506256,407.633,157.85352,0.18051475,412.81665,155.37733,0.022320455,412.40924,155.7709,0.71182257,428.7787,148.77902,0.07257824,432.1757,168.56317,0.97746426,452.1283,154.33841,0.8673936,441.70868,214.02054,0.9711954,491.00336,187.1387,0.74873346,428.0898,232.7991,0.89900166,506.87863,215.61072,0.6325361,495.4962,195.39532,0.97473776,506.06082,191.75089,0.9461879,497.7384,233.30812,0.86336195,504.14938,225.54251,0.7493636,529.5711,216.79123,0.5648274,535.64764,206.91599,0.460957,2.17531804,-0.99117935,0.49399298,1.87230954
40,1333.3333333333333,405.52087,156.21523,0.13331744,403.55463,155.2041,0.13851427,409.8859,151.8619,0.018954454,407.1218,155.77213,0.6797722,427.85553,146.72977,0.07910943,427.62762,172.89746,0.9685799,453.39322,154.3827,0.8622386,439.31174,221.02005,0.9537843,494.7153,187.72409,0.75297576,426.6167,232.94876,0.8603061,518.8923,216.2535,0.6335477,490.467,205.07884,0.95357955,505.15454,199.28967,0.9187355,486.37115,238.59662,0.7529551,502.93378,229.05656,0.63698804,510.61667,218.94427,0.38888475,529.91833,208.06047,0.32065925,1.95157233,-0.97005384,0.42029935,1.64042025
41,1366.6666666666667,399.2896,150.37013,0.12675476,397.089,149.58235,0.11639422,404.2006,145.32501,0.021492697,399.79755,153.03723,0.6266573,424.05908,141.83084,0.10366102,422.9225,177.51161,0.94727993,451.8464,153.50705,0.86516833,439.1252,230.83047,0.9019705,497.58273,187.57147,0.77321124,426.63748,226.28278,0.7779745,530.86066,207.89627,0.66195005,487.8664,212.57497,0.8746751,504.97107,204.53377,0.84383833,483.84238,240.0,0.46395874,507.1355,232.33868,0.41613263,504.3435,219.9867,0.14720306,529.8128,208.99384,0.1385976,1.95157233,-0.97005384,0.42029935,1.64042025
42,1400.0,402.04117,148.13736,0.09612322,399.82935,147.67545,0.06581128,406.5267,143.29733,0.021422831,399.50592,153.9826,0.4616101,422.91116,143.03975,0.12675373,419.1391,181.57292,0.9298872,443.65106,157.0347,0.8662703,431.8564,230.98105,0.87466896,492.3964,186.42847,0.80754495,430.18423,223.41553,0.7444989,528.9573,208.28336,0.6952401,477.83224,213.06735,0.8943965,491.96814,205.50359,0.88240546,495.12723,229.97227,0.60614085,508.49152,214.77235,0.5982607,525.073,220.22278,0.28509372,535.47455,205.56177,0.29190466,1.56110417,-0.40506933,0.1102948,1.50359574
43,1433.3333333333333,397.4679,146.46179,0.11294853,395.89178,145.74905,0.06793732,402.9512,141.42601,0.0280789,396.0031,153.49889,0.4832781,421.931,141.82658,0.17591415,413.6133,183.43517,0.93130976,443.36255,159.26694,0.8994987,428.35834,228.29768,0.85423017,496.35748,184.08403,0.8453613,430.80432,223.54555,0.7393691,536.0884,206.60962,0.7519157,468.75043,215.93732,0.88443476,487.7973,208.49342,0.8874099,486.30704,224.35268,0.5967431,508.11313,208.4289,0.6328896,511.86932,221.59076,0.2997057,536.9857,207.133,0.33806437,5.60604674,0.01596695,-0.73054954,5.55821936
44,1466.6666666666665,397.6828,145.73615,0.11369211,395.81528,144.19403,0.043115087,401.79236,141.35217,0.055526767,391.13806,151.13498,0.26509565,412.78497,144.25598,0.2687928,403.8372,181.811,0.80985457,434.36862,165.32263,0.8724527,413.35822,219.57132,0.6303265,485.93198,187.83495,0.85903805,428.93753,222.0687,0.57473624,532.2336,210.28334,0.80119646,462.73337,213.79846,0.776303,480.5045,210.04597,0.85348916,493.16736,220.29189,0.50898457,507.86914,209.58626,0.67082393,513.8975,220.91422,0.2898951,528.0816,214.53806,0.39967692,0.74772362,-0.45051374,0.56031725,0.20535959
45,1500.0,421.2443,160.73984,0.035548713,416.0036,157.89642,0.00749094,423.73056,158.38327,0.032334454,400.73135,163.04552,0.05625156,426.10352,165.2861,0.25359753,408.5196,186.62607,0.446056,439.02032,187.6062,0.7640225,448.07135,201.70825,0.33491609,490.59283,199.85004,0.84160376,499.74683,204.29872,0.4048925,532.2219,209.35577,0.7921818,450.8676,206.62622,0.7240628,472.0689,210.68796,0.8565817,486.11658,199.69647,0.6353735,501.14777,199.49634,0.8150081,515.2014,212.98111,0.5419653,522.0427,215.21863,0.6845151,0.41316548,-0.088678,-0.25596255,0.31196971
46,1533.3333333333335,414.98022,142.44798,0.11128642,409.26703,138.2435,0.021380097,416.4853,139.10583,0.09453034,391.5153,143.51045,0.082641006,417.56213,146.84921,0.39049307,398.1923,177.1915,0.6003621,433.88272,182.13379,0.85503095,454.11002,196.80235,0.38935158,490.5099,201.6797,0.87128353,516.51843,204.79865,0.47084644,529.3734,207.2749,0.836346,443.86694,217.14172,0.67421955,469.4464,224.11226,0.82331854,482.53632,185.82452,0.58874714,500.8813,192.71951,0.78400177,515.06104,203.69199,0.49533206,522.9404,214.80914,0.63798314,1.22685539,0.24834754,0.0940822,1.19776716
47,1566.6666666666667,454.235,179.4093,0.009105463,447.00443,174.8841,0.001732241,455.83282,177.94067,0.01362757,420.99326,175.64981,0.013789151,449.16232,184.54745,0.15756033,410.63562,192.76045,0.10571901,448.68747,201.53426,0.28996783,432.36804,199.4755,0.107506365,486.7024,203.9245,0.4438292,484.76575,204.90594,0.17568249,529.81384,206.51202,0.44583118,429.1563,212.74707,0.33963478,455.86038,221.50288,0.4825432,469.5773,180.03714,0.45692146,492.81473,188.6394,0.61345345,513.9194,202.6423,0.5566534,520.186,212.83902,0.6409055,0.74840067,0.21518541,0.00245645,0.71679339
48,1600.0,471.16025,190.72095,0.007941325,465.79572,186.30084,0.0020207402,472.00662,189.28708,0.012720331,442.758,186.60764,0.016126644,464.3729,195.23195,0.14072405,426.52936,198.4361,0.08825901,461.1833,206.14091,0.17959365,431.36478,200.25027,0.090026386,488.74396,202.881,0.2562098,471.92487,202.60863,0.13355233,524.8648,203.7195,0.26426694,433.87177,211.39926,0.25708312,457.32544,218.91592,0.33285862,468.37836,180.03114,0.4073845,489.40744,188.40134,0.4996678,506.84662,200.51953,0.5575916,515.0793,210.49751,0.598879,0.74840067,0.21518541,0.00245645,0.71679339
49,1633.3333333333333,78.849915,119.38959,0.6524964,78.83149,117.20944,0.32120055,77.60605,117.72115,0.60675716,76.44711,116.18688,0.15926737,73.63183,117.46682,0.6499358,74.165924,120.10722,0.9493964,69.38182,124.40617,0.9678256,89.80543,118.36091,0.8856283,76.0478,129.72711,0.9452911,103.8302,117.11299,0.88777167,92.75531,126.51982,0.9291203,71.4596,143.17618,0.96798766,68.2221,146.32147,0.97630084,85.689064,142.46767,0.9013457,85.79136,146.03745,0.93033344,85.626625,152.3156,0.7955703,86.88148,157.70206,0.8395362,0.67534959,-0.12331401,0.04446182,0.66250575
50,1666.6666666666667,445.19525,193.609,0.019848809,440.36203,191.00827,0.0052759903,446.32767,192.73734,0.029770298,424.6619,194.01518,0.039124217,446.09912,197.71643,0.3343603,414.74185,206.33676,0.22161326,452.43777,201.23671,0.614345,406.9805,211.00041,0.15848733,496.66968,186.9645,0.68456906,410.88858,209.1921,0.15765728,529.4459,193.92587,0.54305047,439.67728,202.0156,0.5114749,462.20132,204.45868,0.71649814,476.00214,181.08934,0.5044452,490.6607,182.11145,0.718116,524.166,193.9689,0.5677084,522.39325,198.53961,0.70084554,0.5727011,0.15058065,0.05551587,0.54975449
51,1700.0,448.79413,193.09875,0.039452694,443.36942,191.08032,0.012425237,451.2215,193.10988,0.0424828,425.52496,193.82054,0.08126654,451.7317,198.29881,0.29341793,416.03943,205.01349,0.38796145,459.33017,199.45073,0.64718413,423.23758,202.87,0.30373988,496.97717,178.9926,0.67825025,445.57742,205.70744,0.3165037,524.36224,192.29489,0.5971458,435.17792,200.24525,0.6897348,462.4864,201.65532,0.7983986,464.20172,187.41603,0.69249046,484.88052,187.15945,0.8084091,520.7336,193.8244,0.71685386,518.87665,196.18652,0.7889309,2.3967619,-0.09457349,-1.8634663,1.50433267
52,1733.3333333333335,434.91882,198.11838,0.07827527,428.143,196.98584,0.025467599,436.6645,199.30594,0.082431726,408.36386,200.57544,0.13306493,437.2585,206.22153,0.41526332,399.8684,209.13316,0.5285714,453.37274,204.52211,0.7713807,416.6786,202.15189,0.36229935,495.22662,179.4445,0.76188296,445.2755,202.77374,0.38377112,521.23505,188.87692,0.693228,425.57886,197.67957,0.77514255,459.98953,199.26843,0.86800635,448.78937,188.23271,0.792138,479.77594,189.63722,0.8858142,497.71228,192.2539,0.80039966,506.70044,197.20395,0.861969,3.16112053,-0.65636461,-2.900827,1.07101412
53,1766.6666666666665,424.49762,201.63263,0.029062634,418.1801,200.67822,0.013645349,426.82742,203.9129,0.023416651,402.4832,205.79651,0.1378135,431.9353,213.76053,0.19426203,395.2182,212.758,0.43917096,454.02032,209.95811,0.52164423,401.6079,202.89198,0.35029092,491.8273,182.66959,0.5188392,426.41608,202.13324,0.35607156,516.5775,185.80833,0.48534602,423.45926,198.56766,0.74505883,460.83557,200.19444,0.79322994,440.3381,185.11615,0.8154835,478.11646,188.2515,0.8606884,484.44452,192.26443,0.8411928,502.2524,197.3805,0.86653984,1.33667992,0.9562977,-0.45419842,0.81603415
54,1800.0,451.4838,193.33096,0.0113821495,447.0818,193.23965,0.0044185966,455.3313,194.45123,0.009610569,430.5628,200.952,0.07281994,459.61694,203.66415,0.14954308,413.93985,210.97229,0.316066,471.30508,201.54437,0.42324153,401.0843,208.38583,0.26628807,496.01303,177.69453,0.4345685,414.25916,210.27066,0.26138303,514.60693,184.14331,0.37819827,422.6488,199.83153,0.65027434,460.9011,197.49236,0.7116649,423.68707,184.22304,0.73505205,474.4216,183.24521,0.79034775,453.22363,194.76607,0.76577586,500.3458,197.19528,0.7940251,0.87685974,0.46476117,-0.13977226,0.73030389
55,1833.3333333333333,433.02585,195.22118,0.0066109668,427.13406,196.5264,0.0023133846,435.43143,197.81754,0.00586292,411.0556,209.2369,0.037693165,439.14847,212.46582,0.119427025,399.091,221.55177,0.20459896,453.36432,211.92072,0.35763696,391.87097,211.89944,0.22830349,491.06714,179.59987,0.49382308,405.40573,211.67783,0.26675862,511.83478,186.40234,0.47836408,417.2623,210.426,0.591311,452.33066,209.18655,0.6888708,435.41223,180.1582,0.6866422,473.99365,179.26611,0.77927727,467.08524,199.6312,0.7323997,495.92535,202.16724,0.7867102,0.99539573,0.41415821,-0.80571704,0.41243869
56,1866.6666666666667,413.64856,201.93799,0.029669052,409.08972,203.87253,0.011319569,416.35474,204.7512,0.022752622,399.39792,215.72394,0.07894786,422.4302,217.22566,0.18583427,394.9008,223.5017,0.33780754,441.84155,213.70825,0.57086295,396.02542,207.66626,0.35111037,486.52466,178.68253,0.69048077,401.5441,211.50449,0.42750388,508.0227,189.03075,0.69242144,420.43253,213.39468,0.6330877,448.78946,211.69315,0.7450066,438.91455,176.30618,0.649541,469.67273,175.4718,0.7714715,465.051,205.37668,0.6423453,487.14218,207.42139,0.7277855,1.34186876,0.51413591,-1.20366265,0.29575711
57,1900.0,363.89398,215.50807,0.14773123,356.99884,216.03674,0.07601725,362.91254,219.1182,0.13795388,346.02692,223.32443,0.14739549,362.22833,230.62811,0.3112381,356.6725,227.31282,0.44939497,389.89865,230.06905,0.67137516,382.22574,207.11833,0.34562147,458.46408,201.76523,0.6996937,389.77075,205.9158,0.41386753,504.35388,192.14554,0.7160462,417.65536,215.37744,0.6633663,436.24292,221.01367,0.7773398,446.7232,174.09389,0.74167,465.86725,179.23509,0.85021603,486.61426,198.5335,0.7928768,495.40588,202.9624,0.85886055,1.51425463,0.51167945,-1.30585116,0.57088
58,1933.3333333333333,360.25162,215.39671,0.09588687,353.2504,215.60303,0.047695637,359.75623,219.40237,0.08855645,341.8266,223.16267,0.122581,359.5948,232.10173,0.25483847,353.67914,228.103,0.4077617,385.43942,232.72656,0.6118282,382.60034,210.30388,0.33649114,449.30923,207.74142,0.65409905,395.32712,207.40796,0.3978125,494.36392,197.68098,0.670385,414.39334,216.25546,0.6634354,432.28406,222.97844,0.76437646,444.89642,174.50818,0.74455416,464.74945,181.5101,0.8409464,490.17047,199.54167,0.7938578,497.84277,204.11967,0.85230464,1.09532249,0.45075938,-0.8536179,0.51757494
59,1966.6666666666665,374.73065,209.05118,0.024512323,368.07156,208.94107,0.009955257,375.82874,212.62494,0.025328474,353.81854,217.1457,0.06160723,376.6488,225.81213,0.17454943,357.66315,226.00781,0.22065696,400.23785,226.30544,0.4503318,377.97754,208.19482,0.21894519,458.45154,194.26324,0.5759386,399.10828,209.11848,0.29709402,498.22192,195.69981,0.59191054,405.49298,214.8051,0.6214125,430.4828,219.06708,0.74367464,432.4952,176.5003,0.7430635,458.44376,181.50421,0.8464854,481.69617,202.15814,0.8094765,488.21304,205.21887,0.8667132,1.09532249,0.45075938,-0.8536179,0.51757494
60,2000.0,387.45593,205.73538,0.059362553,381.86163,205.6164,0.022686644,388.1859,208.21635,0.06394939,372.5857,214.22806,0.079011895,392.52155,220.54941,0.29213598,375.19318,224.17822,0.27540377,411.8496,221.08456,0.59314007,387.87692,209.91205,0.19241922,459.93536,190.61223,0.6430148,406.98495,211.87491,0.2512905,495.4702,197.32475,0.6050706,408.22943,212.58058,0.52100027,430.71475,214.88307,0.6873951,439.6258,177.0561,0.6046985,458.84207,177.8701,0.76835454,477.34576,203.72235,0.6765361,478.02316,203.63843,0.7783298,1.12087971,0.50995993,-0.83617708,0.54508723
61,2033.3333333333333,13.649805,120.56377,0.32780197,13.887577,118.994316,0.34058776,14.115435,119.022964,0.13666369,16.330494,117.33323,0.66014224,19.839146,116.808014,0.20214556,19.92159,121.00856,0.9475566,25.833622,119.419174,0.8995608,21.16602,127.30783,0.8839657,32.03267,124.56421,0.6690215,23.08726,127.152756,0.7997929,30.258034,125.254944,0.5900281,27.143333,138.37648,0.9676169,31.10452,137.50317,0.9550368,24.632023,155.1713,0.93559694,29.897112,154.27673,0.9011867,25.641197,169.78407,0.8779312,29.579462,167.58496,0.8363862,1.32195706,0.34537749,-1.12677563,0.59888358
62,2066.666666666667,443.96112,188.81764,0.23287025,441.4556,190.25578,0.085889556,445.86575,189.86702,0.18924849,434.23883,198.87,0.1640381,448.47012,198.03471,0.45119837,427.2709,205.9337,0.704368,447.34915,200.09781,0.85066324,434.48438,198.88722,0.543651,473.21017,183.45358,0.81962657,453.5095,212.17822,0.5432935,499.90186,194.64772,0.75562125,424.77057,210.5277,0.7407472,437.72745,209.97311,0.8118662,443.95844,181.71509,0.62639976,462.53943,177.71591,0.73146737,459.07123,211.27289,0.54418343,477.3724,205.8228,0.6235584,1.2681181,0.339482,-0.9481914,0.77058974
63,2100.0,492.26685,204.41516,0.3437335,491.1411,205.60133,0.10733482,494.72772,203.10822,0.28229013,480.1708,210.9417,0.1139491,490.17313,205.54279,0.4306136,464.4115,213.97409,0.7803431,476.33472,206.02493,0.8489336,473.6855,195.80708,0.76583457,475.38916,185.92366,0.8752164,494.59598,201.67072,0.8046801,494.32828,196.87727,0.8660637,425.31747,217.86058,0.84063435,433.25467,213.07515,0.8598134,421.4311,196.3778,0.66444117,428.8886,195.8632,0.7039881,393.76816,215.58046,0.4684104,398.91907,218.80508,0.47855794,1.01287574,0.25694513,-0.65611897,0.72760179
64,2133.3333333333335,81.12482,117.70099,0.06900211,80.61346,116.22765,0.010685623,81.57732,116.53016,0.098335996,73.40149,114.39372,0.022814814,81.9583,115.5262,0.5686636,70.17273,114.8131,0.69834095,79.308846,116.6523,0.9414007,78.89624,116.71427,0.45845562,90.33336,118.13657,0.9699195,96.22068,118.16721,0.47790554,101.13176,118.42266,0.93211985,64.39383,134.14299,0.9436877,70.31497,135.31435,0.9811854,80.263695,132.08253,0.86298674,86.117294,132.70335,0.9595453,76.17677,144.36316,0.7910116,82.92803,145.6391,0.9104598,1.06883204,0.18742747,-0.76322038,0.7244084
65,2166.6666666666665,488.55966,216.14206,0.5676485,489.52817,217.50517,0.25624594,491.1402,214.77666,0.5154188,484.2373,220.86702,0.222665,488.92587,214.35522,0.56210315,468.1824,219.44019,0.83882976,479.74106,209.13303,0.9335859,470.88483,198.82466,0.7798574,472.4166,184.82175,0.9393441,491.96725,198.32211,0.81085116,490.76437,195.06456,0.9175988,433.12778,214.94643,0.89876944,440.07568,209.04211,0.93258506,418.89325,207.57312,0.7407515,423.56293,208.39626,0.8207996,386.65094,218.6629,0.5236527,389.5678,226.82687,0.58265513,1.11545825,0.16286293,-0.80399752,0.75585102
66,2200.0,490.94556,216.55687,0.5328824,490.39557,216.23792,0.19318175,491.98288,215.01651,0.5045432,482.9807,217.65004,0.15459333,487.55344,215.27217,0.58750993,469.284,218.93117,0.7985213,478.38623,211.82137,0.9291246,475.13397,199.73398,0.72216773,472.30304,190.9785,0.93723494,494.2127,202.43259,0.7610758,492.57523,198.6672,0.91219467,432.9872,214.83467,0.8796613,438.49133,209.65312,0.9296187,418.6419,211.8627,0.71663,423.50186,212.18085,0.8187654,390.3645,214.80893,0.5251606,390.90665,219.54478,0.5934881,1.09567992,0.17416262,-0.71237177,0.81406899
67,2233.3333333333335,488.3819,209.55067,0.2460043,487.65326,210.40112,0.106109135,490.96783,208.49554,0.15442313,484.21014,210.7165,0.15667681,490.40918,206.16978,0.26176894,477.37778,205.76498,0.76872945,480.5146,200.46619,0.84014773,483.64822,196.11542,0.78159004,479.84558,191.34335,0.87611955,500.39508,204.53601,0.80165386,500.6266,201.88821,0.8565553,446.17288,205.56671,0.90276337,447.30002,201.41974,0.9131141,425.4452,214.8405,0.75838435,428.55585,216.22264,0.7907992,392.1861,224.1534,0.51297987,394.35983,229.59634,0.53663564,1.07249558,0.196762,-0.53427883,0.90888813
68,2266.6666666666665,487.0028,218.51086,0.053143214,485.47617,217.27136,0.03406639,488.17215,218.56583,0.043217838,477.3774,213.63257,0.4857133,487.9297,217.95436,0.38251713,469.73755,210.92009,0.91553795,487.4838,215.47083,0.9195484,460.78165,203.69135,0.8423503,494.90707,204.05641,0.86121005,457.15314,216.44305,0.75322664,506.2608,205.79317,0.73652786,443.15027,207.47308,0.96253675,451.575,207.71037,0.9613801,420.2389,219.13315,0.8736701,427.3281,220.20259,0.85194516,393.75516,220.99057,0.7050512,395.89685,224.64813,0.67398006,1.07249558,0.196762,-0.53427883,0.90888813
69,2300.0,490.5759,221.58624,0.2066195,489.51093,220.70148,0.13996463,491.70563,221.84154,0.15866989,481.97357,218.25879,0.66236407,490.40625,222.31479,0.50236064,473.29135,216.76598,0.96040857,487.40186,221.08646,0.9473499,470.16205,207.16826,0.890578,493.06543,207.94199,0.83775246,471.92383,214.63719,0.82853156,506.92883,205.74411,0.7295885,439.2694,209.27116,0.9657326,445.89017,209.42628,0.95649254,418.75244,217.05214,0.89147097,424.39426,218.2349,0.84603614,393.3844,215.27667,0.7618364,395.8945,219.3253,0.69873416,1.11284862,0.10439931,-0.67134899,0.88137584
70,2333.3333333333335,494.35675,221.74228,0.2689212,493.37152,221.07036,0.17939138,495.5012,222.03653,0.19822606,485.15274,219.62207,0.6535486,493.72025,223.12282,0.48997825,475.55826,218.79619,0.9628884,488.97974,222.38661,0.9459483,470.8093,209.09213,0.8987236,491.72424,209.05978,0.82112813,472.3512,214.62541,0.8535792,504.47543,205.91087,0.7345994,440.68646,208.30592,0.96679884,446.65817,208.21304,0.95531416,421.56,213.17679,0.91062397,426.1966,214.14294,0.86496973,396.07828,212.1015,0.81277496,397.47342,215.91972,0.75054866,1.09510346,0.23532833,-0.57235387,0.90348393
71,2366.6666666666665,496.30252,212.5513,0.46094668,496.17697,213.46855,0.19630952,497.9685,211.68744,0.37475818,489.44125,215.0403,0.2055376,493.36237,210.30836,0.52272964,476.12048,213.04922,0.872217,481.50848,205.625,0.9333649,480.34995,201.3791,0.82389086,480.75482,189.341,0.92807704,498.92993,203.4088,0.82492596,501.6364,196.90445,0.8971029,440.90512,213.36998,0.93721294,443.35028,208.75127,0.9496659,414.7235,227.18494,0.8022299,420.57806,227.98657,0.8407237,394.08868,224.676,0.55454975,396.99045,228.51642,0.5877169,1.07841674,0.29182678,-0.45591794,0.93271573
72,2400.0,482.88538,204.58307,0.36613822,482.68414,205.26503,0.16741568,484.89294,204.1914,0.24257213,478.68146,209.27118,0.25854927,485.20584,206.04242,0.4099231,469.9432,211.08212,0.8711614,479.16415,206.70908,0.9204954,477.41956,199.5915,0.8334481,485.0152,193.6995,0.9144945,497.82883,205.20255,0.8282818,505.3979,199.7035,0.8808441,441.26694,214.83827,0.9326319,446.3908,211.42072,0.94226676,415.57126,223.68205,0.79117477,421.77954,225.28835,0.82270414,397.2872,225.09244,0.53896403,401.12012,229.11241,0.5657363,1.0151147,0.231398,-0.38664592,0.90962506
73,2433.333333333333,502.50717,213.37448,0.52088827,503.0452,214.23773,0.2637674,503.78592,212.23833,0.42071614,497.7091,216.11974,0.23844968,498.2259,210.98416,0.5013657,483.99213,215.43256,0.8772639,485.06628,207.26175,0.92079014,484.99823,205.28548,0.82125187,481.85995,192.09885,0.9016561,499.50024,205.78201,0.8212311,501.74582,198.39381,0.86955994,444.8648,214.98499,0.92748445,444.43243,209.61584,0.9346429,416.14682,227.94879,0.7897984,419.6427,227.50647,0.81160575,393.94354,224.08447,0.55083436,395.45438,226.41412,0.56434953,1.06631822,0.23385446,-0.61263973,0.84084434
74,2466.666666666667,505.39166,214.65073,0.6183728,506.74246,216.22287,0.3674127,507.16284,213.09802,0.51520824,501.96814,219.58855,0.30076748,501.87698,212.04239,0.5398694,484.9782,220.03195,0.89812714,487.521,208.36035,0.9235525,482.5066,208.66444,0.8319968,481.0288,190.11958,0.88923866,496.97058,208.71967,0.8303955,499.20538,197.91544,0.85930973,441.8022,216.78687,0.9204925,442.34616,209.8996,0.9223441,418.99777,223.67702,0.78357196,422.23645,220.82935,0.7941267,393.14838,220.21703,0.5623152,395.26666,220.87442,0.56472933,1.09043848,0.35790541,-0.56351064,0.86221549
75,2500.0,494.99493,208.47438,0.15530466,494.18976,209.986,0.063985765,497.7711,208.58493,0.10243226,488.37466,214.58545,0.121248454,496.12787,210.9757,0.23391168,474.8941,213.67819,0.66494,483.2509,207.70743,0.73796976,476.1141,197.58678,0.68553233,483.7304,186.44106,0.77661854,490.76562,209.4166,0.72145087,503.123,201.81277,0.7618435,444.8436,214.66638,0.82420576,449.49408,211.87585,0.8315991,430.80923,209.458,0.6609843,442.2075,210.89815,0.67810696,421.4526,218.92401,0.4689774,433.06042,222.75687,0.47643185,1.1111098,0.38320689,-0.62000909,0.83863353
76,2533.333333333333,463.52548,191.93292,0.05806495,462.1926,192.31236,0.028209442,466.31403,192.75122,0.030949822,460.3453,200.09535,0.12596253,472.04907,200.19223,0.13443744,453.09433,207.66118,0.5894832,469.58826,202.83536,0.6580314,438.2561,209.56793,0.6050875,487.99905,191.85603,0.6753738,421.93655,227.77983,0.5568486,504.1051,207.29501,0.60862976,447.40155,214.57022,0.8108039,456.72137,214.24669,0.82073665,458.62915,195.78772,0.7269296,471.97684,196.77245,0.746697,476.1316,214.76639,0.64199144,492.1574,217.89203,0.6605121,1.1764432,0.45616358,-0.67159463,0.85140709
77,2566.666666666667,464.7689,189.30295,0.03746214,463.70032,189.13593,0.018681526,467.2374,189.57524,0.022811243,462.78558,196.36537,0.07732184,471.77185,196.42368,0.095705345,457.89996,203.60692,0.3837643,467.7541,200.1541,0.4739485,455.344,205.5649,0.42340964,489.37543,192.94438,0.53581685,453.42108,224.57153,0.41007134,505.6013,212.49918,0.48334718,452.37,211.71783,0.69433963,457.54333,212.41566,0.7143813,470.03137,187.5484,0.67381567,474.82587,189.3533,0.7067939,490.17526,215.3261,0.65353864,496.45746,220.0346,0.67983776,1.13329175,0.45763745,-0.60993763,0.83838789
78,2600.0,468.74933,193.18854,0.050766177,467.74695,193.32254,0.026574625,471.07782,193.51065,0.029446587,467.3448,199.85382,0.08974329,474.99957,199.57692,0.09821979,462.63095,204.17953,0.43861488,470.42645,201.17519,0.47558424,466.6342,202.48283,0.479567,490.20816,193.11256,0.5311245,474.18808,222.16261,0.47199732,508.1221,214.62206,0.49689656,453.5845,211.47821,0.712416,457.60898,212.27121,0.7084461,472.212,185.84877,0.6876889,477.57718,188.16766,0.70124626,485.25812,216.08374,0.65681136,492.87662,221.00748,0.6701289,1.10546954,0.366503,-0.74577955,0.72907566
79,2633.3333333333335,466.84512,190.53076,0.027025018,465.4656,189.16086,0.012387833,468.0854,190.78458,0.020721743,463.01312,194.0242,0.041766874,469.06232,196.6607,0.07573102,463.4386,200.74026,0.21764673,465.46185,200.19054,0.3059571,473.3191,197.74826,0.28594014,486.47833,191.77362,0.42793047,490.9425,220.34807,0.34755,507.14734,215.4284,0.44334552,461.91873,211.83452,0.5642979,463.1312,213.3622,0.60838974,466.95117,178.51048,0.6640596,468.76263,180.74286,0.7072181,491.68076,218.656,0.7280298,495.36563,221.91156,0.75164676,1.11254338,0.34365797,-0.77427443,0.72121501
80,2666.6666666666665,472.26178,193.85173,0.041023687,471.27826,192.94095,0.021234248,473.47308,193.86464,0.024020622,470.9229,197.4671,0.062080402,475.11517,199.01904,0.062710665,471.78125,202.15756,0.31670377,472.30554,201.153,0.33947822,476.3285,197.54721,0.4374044,485.96994,192.55214,0.47339207,492.34286,219.1449,0.5140744,505.13696,213.40796,0.5265375,468.16858,215.64352,0.6297417,468.26138,216.18726,0.6313338,467.47284,179.19188,0.67537934,469.21912,181.13553,0.6809867,474.58676,219.02519,0.6928882,480.66946,222.10867,0.6948898,1.11416808,0.35004475,-0.70033515,0.79269783
81,2700.0,470.67,192.05728,0.01880549,468.83502,190.97467,0.010040859,472.1069,192.43437,0.011929396,467.88892,196.03629,0.03814598,474.64603,198.64267,0.04282675,471.08026,202.80255,0.17428179,472.61917,201.27783,0.21593748,473.617,198.78865,0.2811131,486.06653,190.52084,0.35796306,485.87256,222.39664,0.3696414,505.02634,213.72142,0.42265815,471.1241,215.20544,0.53468883,472.05896,215.46124,0.5602666,465.3179,178.16441,0.6626652,468.58383,179.97452,0.6865522,476.5539,218.81491,0.73243594,482.2944,221.71278,0.74537295,1.07617587,0.38689157,-0.64039766,0.77353749
82,2733.3333333333335,453.81534,198.2757,0.018670568,451.60245,197.03426,0.010199167,454.85764,199.44865,0.01310226,450.9325,202.23563,0.04121954,457.9154,206.875,0.051158465,455.90268,208.83774,0.17272966,459.73026,208.71063,0.23404264,457.64056,204.85408,0.25187483,482.86026,196.09671,0.36080608,462.51413,229.64099,0.3163591,505.34744,214.97748,0.40447176,462.91614,216.40073,0.55887,464.60358,217.8464,0.6020939,465.4165,180.206,0.70733273,468.72165,182.81894,0.74661463,487.90503,218.35733,0.78981584,492.26334,221.7236,0.81011987,1.10497973,0.33825377,-0.67454238,0.80719091
83,2766.6666666666665,471.70453,196.55595,0.036506746,470.6346,195.80402,0.021057716,472.9264,196.43088,0.01968094,471.31577,200.54437,0.06950775,475.7411,201.69144,0.052923474,473.01294,205.46571,0.32457647,474.9687,203.73238,0.31687203,475.26144,202.19385,0.45172143,489.1008,196.15207,0.4493585,487.09586,223.25497,0.51975495,507.89355,214.83203,0.5099213,469.1302,218.13126,0.6540426,469.87286,217.98425,0.6432286,469.07523,182.836,0.70436704,471.22906,184.5997,0.7026865,467.00726,219.80322,0.7215478,474.11578,223.51819,0.71947914,1.14111788,0.38787415,-0.67724448,0.83249239
84,2800.0,470.7759,200.67429,0.11737917,470.50223,199.90276,0.077503644,471.77362,199.89706,0.05708382,473.17426,203.69469,0.18023485,475.93918,203.65678,0.0968949,473.31097,207.74988,0.6018876,479.94617,206.26288,0.5514599,479.09677,203.33293,0.6472484,492.47876,201.54881,0.6027439,493.01105,220.27167,0.66273856,506.7078,214.7219,0.61922824,462.7516,219.70221,0.7929267,466.1091,218.22273,0.771922,456.12567,196.47462,0.7419089,457.3778,198.69484,0.7297549,436.1852,221.2027,0.68051463,440.0701,226.1763,0.6677646,1.09842231,0.35053604,-0.66717301,0.79908461
85,2833.3333333333335,471.4775,201.44635,0.09531451,470.7668,200.84384,0.06328409,472.79324,200.65959,0.044774465,473.3117,204.6949,0.17701836,478.41068,204.29562,0.090563424,474.60358,208.53056,0.5852672,484.94986,207.12277,0.5778791,479.93857,205.32701,0.62881994,494.79276,205.11769,0.6389834,495.72272,221.24535,0.63566786,505.9763,215.78008,0.63170654,465.42715,219.21352,0.8243565,471.30496,216.87819,0.8206152,447.89294,203.04242,0.76762253,450.391,205.10515,0.77239203,418.4567,221.3508,0.6965194,422.85248,226.31856,0.6959945,1.09842231,0.35053604,-0.66717301,0.79908461
86,2866.6666666666665,468.92856,202.76744,0.1551084,468.84756,201.97978,0.1280616,471.07977,201.73438,0.064199425,474.2151,206.22798,0.31613746,479.89838,205.14752,0.11864308,474.96783,211.28519,0.67573786,487.78705,210.64561,0.6507431,473.78082,212.17142,0.62723976,500.06305,213.87483,0.59697235,479.65027,222.66142,0.6161172,512.59094,217.39426,0.57831144,461.21252,220.76149,0.7946102,467.5719,217.84953,0.77768916,434.8705,217.55621,0.72007823,437.1303,218.6748,0.7115904,404.9589,228.09068,0.6027892,408.0515,231.02522,0.60119563,1.05168065,0.28912468,-0.59642713,0.81652544
87,2900.0,470.54742,202.06732,0.08963576,469.58618,201.4996,0.06559893,473.26898,201.24202,0.03728647,471.9751,205.96982,0.23942888,482.5868,204.92336,0.10755944,469.6899,210.64682,0.6035265,490.03372,209.56668,0.6313303,457.11182,214.12807,0.59614474,501.9688,212.74303,0.62393105,449.38412,228.53044,0.59075904,512.1948,218.4025,0.6042563,458.6546,221.20062,0.7887408,469.25403,218.35616,0.79097134,434.04935,213.7228,0.7247493,440.0606,214.99948,0.7332914,406.37674,226.72842,0.6205338,412.4066,230.24745,0.631402,1.08603294,0.24736496,-0.62786974,0.8509158
88,2933.333333333333,476.19745,204.06128,0.078732535,474.67346,203.98172,0.05132767,478.81833,203.55841,0.037063535,474.246,208.17935,0.18305781,485.94934,206.84695,0.11673886,471.7816,210.36879,0.56683785,489.7481,209.39517,0.6098877,467.689,208.64856,0.57354283,500.28534,208.89114,0.6284414,469.8084,223.8303,0.57836765,511.073,218.28271,0.6058846,456.90424,220.15392,0.7929339,466.6612,217.3854,0.7975593,431.86267,211.64679,0.7327365,438.25027,212.84813,0.7453194,404.06528,226.83716,0.6349705,410.2945,229.87987,0.6468737,1.08445351,0.33972764,-0.53354189,0.88088455
89,2966.666666666667,477.1645,201.65698,0.08168407,475.39407,200.70564,0.050819494,477.79608,200.9643,0.04953662,473.2324,205.44228,0.15689985,481.90207,206.3665,0.13385667,471.00873,213.16263,0.53724945,489.29272,210.46837,0.5671689,457.51755,216.97142,0.49400395,498.60782,213.5304,0.55220586,448.75314,232.13605,0.43997166,507.27725,219.94391,0.4958366,460.7588,221.07355,0.7877129,471.28262,217.15144,0.8044859,441.29422,205.47942,0.7756359,452.3477,204.30891,0.79934394,410.8862,219.6496,0.7646364,423.9748,220.57481,0.7717362,1.09479942,0.25227787,-0.64457363,0.8482137
90,3000.0,483.2196,203.26459,0.058320772,481.02005,202.44748,0.036549103,483.32123,202.67274,0.038599905,477.92715,206.89017,0.10385417,485.07596,208.00938,0.1043802,475.9295,212.8418,0.4111102,489.85126,210.41507,0.40726086,465.377,215.05382,0.4016833,499.05185,211.53133,0.41838065,457.949,232.54314,0.3734201,508.2232,221.36089,0.40046212,464.36182,220.51924,0.71480376,472.79208,217.274,0.7180843,451.8438,197.33585,0.7622606,463.65128,196.51648,0.77466875,419.4017,220.29077,0.7902542,436.3076,221.39128,0.78933614,1.08544396,0.21739621,-0.63622169,0.85214403
91,3033.333333333333,500.11838,206.56027,0.023792362,496.97418,205.9981,0.01365241,500.09286,205.78146,0.019438472,489.71774,210.42325,0.041944336,497.80966,210.97389,0.071962185,483.89307,214.6742,0.20785683,496.7877,212.04692,0.19868915,472.1661,213.63397,0.25018597,500.5503,209.87956,0.2541831,466.05365,233.14941,0.2565529,507.71863,224.87619,0.27298182,466.99484,221.42786,0.5789159,474.90744,218.3823,0.57047844,458.01913,192.77875,0.71457505,467.87524,192.83371,0.71742105,420.68243,220.65524,0.7946241,434.06046,222.90709,0.7856991,1.09246616,0.26603401,-0.59937487,0.87376083
92,3066.666666666667,507.07446,208.9604,0.024690535,503.95093,208.41289,0.013711487,507.00656,208.1434,0.021842683,495.71796,212.93004,0.038627427,503.49933,213.46936,0.0793715,487.9817,216.95683,0.1996601,500.0611,214.64029,0.18758905,477.58157,213.82825,0.23740962,500.9289,210.74385,0.2367525,473.66684,231.86871,0.24930456,506.88235,225.95618,0.25953218,467.03293,220.96913,0.55706096,474.64395,218.21043,0.542238,460.81012,193.66154,0.7002042,469.66986,194.42036,0.6978299,423.80246,220.1448,0.78494114,434.83008,223.26938,0.7722192,1.09589592,0.36723993,-0.57874066,0.85509178
93,3100.0,505.0444,208.204,0.026076011,502.19836,208.85667,0.017019778,505.6381,207.53589,0.019184202,496.20197,213.60919,0.0489328,503.75372,211.89548,0.06318521,489.09195,214.28456,0.21266986,501.4262,210.32172,0.18637934,480.12885,211.70589,0.26872572,502.4644,205.68732,0.24814603,478.25394,231.44524,0.30150414,508.7932,225.60724,0.2936212,471.53662,217.83246,0.5709376,478.65607,214.82747,0.53951836,465.92123,190.08975,0.7146734,475.54596,191.61731,0.70368546,420.9143,220.44293,0.7819889,434.34015,225.79852,0.77126956,1.09958017,0.3475883,-0.59544455,0.85656565
94,3133.3333333333335,511.58307,209.68971,0.041329008,509.41953,210.35712,0.02873219,512.22754,208.58118,0.030116087,504.34726,215.00009,0.060284317,509.8114,212.26968,0.070429355,497.00366,215.77689,0.2386609,505.2211,210.88141,0.18618767,490.1756,211.3071,0.28271645,502.1144,204.9254,0.22653188,491.8099,228.41557,0.32780987,507.82025,226.20593,0.2865471,475.94824,217.822,0.5339636,480.5976,214.48785,0.480906,473.6889,187.17102,0.6936357,479.7773,188.19174,0.66610575,427.63367,219.33078,0.7695509,436.82956,224.5754,0.75078046,1.10748044,0.35544895,-0.57505597,0.87719986
95,3166.6666666666665,512.98346,207.96507,0.021776915,510.0497,207.35309,0.013773461,512.2827,206.72643,0.020152511,502.9502,211.81592,0.03180166,507.38943,211.9129,0.058662776,496.82333,215.93013,0.1379545,503.26105,213.29526,0.11286109,488.14764,212.5513,0.17964837,501.33264,209.59009,0.15664834,487.53964,229.84753,0.2060554,507.42514,227.81024,0.1964933,476.83725,220.53105,0.4585293,480.89395,217.88446,0.4245461,474.30872,186.64728,0.67693824,477.83212,187.9563,0.6601632,429.2791,221.26834,0.8014358,435.1341,225.80331,0.78302664,1.10978611,0.401139,-0.5600716,0.87007615
