frame_id,timestamp_ms,nose_x,nose_y,nose_conf,left_eye_x,left_eye_y,left_eye_conf,right_eye_x,right_eye_y,right_eye_conf,left_ear_x,left_ear_y,left_ear_conf,right_ear_x,right_ear_y,right_ear_conf,left_shoulder_x,left_shoulder_y,left_shoulder_conf,right_shoulder_x,right_shoulder_y,right_shoulder_conf,left_elbow_x,left_elbow_y,left_elbow_conf,right_elbow_x,right_elbow_y,right_elbow_conf,left_wrist_x,left_wrist_y,left_wrist_conf,right_wrist_x,right_wrist_y,right_wrist_conf,left_hip_x,left_hip_y,left_hip_conf,right_hip_x,right_hip_y,right_hip_conf,left_knee_x,left_knee_y,left_knee_conf,right_knee_x,right_knee_y,right_knee_conf,left_ankle_x,left_ankle_y,left_ankle_conf,right_ankle_x,right_ankle_y,right_ankle_conf,acc_x,acc_y,acc_z,acc_mag,left_elbow_angle,right_elbow_angle,left_knee_angle,right_knee_angle,spine_angle,hip_height,shoulder_height,head_height,bbox_width,bbox_height,bbox_aspect_ratio,shoulder_tilt,avg_confidence,nose_vx,nose_vy,nose_speed,nose_ax,nose_ay,nose_accel,left_eye_vx,left_eye_vy,left_eye_speed,left_eye_ax,left_eye_ay,left_eye_accel,right_eye_vx,right_eye_vy,right_eye_speed,right_eye_ax,right_eye_ay,right_eye_accel,left_ear_vx,left_ear_vy,left_ear_speed,left_ear_ax,left_ear_ay,left_ear_accel,right_ear_vx,right_ear_vy,right_ear_speed,right_ear_ax,right_ear_ay,right_ear_accel,left_shoulder_vx,left_shoulder_vy,left_shoulder_speed,left_shoulder_ax,left_shoulder_ay,left_shoulder_accel,right_shoulder_vx,right_shoulder_vy,right_shoulder_speed,right_shoulder_ax,right_shoulder_ay,right_shoulder_accel,left_elbow_vx,left_elbow_vy,left_elbow_speed,left_elbow_ax,left_elbow_ay,left_elbow_accel,right_elbow_vx,right_elbow_vy,right_elbow_speed,right_elbow_ax,right_elbow_ay,right_elbow_accel,left_wrist_vx,left_wrist_vy,left_wrist_speed,left_wrist_ax,left_wrist_ay,left_wrist_accel,right_wrist_vx,right_wrist_vy,right_wrist_speed,right_wrist_ax,right_wrist_ay,right_wrist_accel,left_hip_vx,left_hip_vy,left_hip_speed,left_hip_ax,left_hip_ay,left_hip_accel,right_hip_vx,right_hip_vy,right_hip_speed,right_hip_ax,right_hip_ay,right_hip_accel,left_knee_vx,left_knee_vy,left_knee_speed,left_knee_ax,left_knee_ay,left_knee_accel,right_knee_vx,right_knee_vy,right_knee_speed,right_knee_ax,right_knee_ay,right_knee_accel,left_ankle_vx,left_ankle_vy,left_ankle_speed,left_ankle_ax,left_ankle_ay,left_ankle_accel,right_ankle_vx,right_ankle_vy,right_ankle_speed,right_ankle_ax,right_ankle_ay,right_ankle_accel,hip_velocity,hip_acceleration,hip_height_mean_5,hip_height_std_5,shoulder_height_mean_5,shoulder_height_std_5,head_height_mean_5,head_height_std_5,acc_mag_diff,acc_mag_mean_5,acc_mag_std_5,label_binary,label_3class
0,0.0,516.1031,61.199776,0.9463539,518.2262,58.382645,0.94008416,513.7304,59.17685,0.8426795,523.1282,58.86505,0.84988946,511.5518,60.987854,0.45624742,531.083,72.92638,0.99410653,511.00787,74.855286,0.98973095,540.6298,91.35358,0.9758018,507.87796,89.11027,0.90854603,542.2216,107.05211,0.9546918,507.79678,90.2102,0.873804,531.769,109.252426,0.9934402,519.53094,110.394226,0.99117225,533.2392,137.1853,0.97939944,525.3373,138.36707,0.96786827,533.9821,162.87878,0.94170994,529.78357,163.90268,0.92035705,1.01416415,0.14861549,1.00321598,0.00024565,158.4020304828671,171.8373210425915,178.64329532120928,178.15089637089494,7.302328634003646,109.823326,73.890833,61.199776,34.424819999999954,105.520035,0.3262396536710805,174.51162031132571,0.9132872176470588,0.0,0.0,0.0,0.0,0.0,0.0,0.0,0.0,0.0,0.0,0.0,0.0,0.0,0.0,0.0,0.0,0.0,0.0,0.0,0.0,0.0,0.0,0.0,0.0,0.0,0.0,0.0,0.0,0.0,0.0,0.0,0.0,0.0,0.0,0.0,0.0,0.0,0.0,0.0,0.0,0.0,0.0,0.0,0.0,0.0,0.0,0.0,0.0,0.0,0.0,0.0,0.0,0.0,0.0,0.0,0.0,0.0,0.0,0.0,0.0,0.0,0.0,0.0,0.0,0.0,0.0,0.0,0.0,0.0,0.0,0.0,0.0,0.0,0.0,0.0,0.0,0.0,0.0,0.0,0.0,0.0,0.0,0.0,0.0,0.0,0.0,0.0,0.0,0.0,0.0,0.0,0.0,0.0,0.0,0.0,0.0,0.0,0.0,0.0,0.0,0.0,0.0,0.0,0.0,109.823326,0.0,73.890833,0.0,61.199776,0.0,0.0,0.00024565,0.0,0,0
1,33.333333333333336,515.88666,61.110443,0.94889396,518.01996,58.273537,0.94288594,513.4618,59.076828,0.84935063,522.94727,58.790245,0.8534247,511.27112,60.92633,0.4647299,530.9514,73.008766,0.9941935,510.8284,74.91026,0.99006176,540.61346,91.47489,0.97551763,507.52112,89.155205,0.9095988,542.0527,107.28936,0.9543715,507.55203,90.41861,0.87502587,531.67737,109.431595,0.9933288,519.4837,110.54451,0.9911186,532.29517,137.34183,0.9791196,525.1803,138.49951,0.9676811,532.23413,163.20648,0.9412218,529.4835,164.21367,0.92015433,1.00693781,0.14566775,0.9963379,0.00393033,157.5800504736586,165.5275778975498,178.59673097500362,177.9823787047316,7.417753490766061,109.9880525,73.95951299999999,61.110443,34.53157999999996,105.940133,0.3259537126883374,174.60194594988667,0.9147457894117648,-0.2164400000000341,-0.0893330000000034,0.2341509310018121,-0.2164400000000341,-0.0893330000000034,0.2341509310018121,-0.2062399999999797,-0.1091079999999991,0.233322723419712,-0.2062399999999797,-0.1091079999999991,0.233322723419712,-0.2685999999999922,-0.1000220000000027,0.2866188418160891,-0.2685999999999922,-0.1000220000000027,0.2866188418160891,-0.1809299999999893,-0.0748049999999977,0.1957841998859862,-0.1809299999999893,-0.0748049999999977,0.1957841998859862,-0.280680000000018,-0.0615239999999985,0.2873438097053944,-0.280680000000018,-0.0615239999999985,0.2873438097053944,-0.1315999999999348,0.0823859999999996,0.1552611123107869,-0.1315999999999348,0.0823859999999996,0.1552611123107869,-0.1794700000000375,0.0549739999999872,0.1877008832584761,-0.1794700000000375,0.0549739999999872,0.1877008832584761,-0.0163400000000137,0.1213100000000082,0.1224055215257974,-0.0163400000000137,0.1213100000000082,0.1224055215257974,-0.3568399999999769,0.0449349999999952,0.3596580873899308,-0.3568399999999769,0.0449349999999952,0.3596580873899308,-0.1689000000000078,0.237250000000003,0.2912297589533118,-0.1689000000000078,0.237250000000003,0.2912297589533118,-0.2447500000000104,0.2084100000000006,0.3214611805490756,-0.2447500000000104,0.2084100000000006,0.3214611805490756,-0.0916300000000092,0.1791690000000017,0.2012401238843841,-0.0916300000000092,0.1791690000000017,0.2012401238843841,-0.0472399999999879,0.1502839999999992,0.1575338003604262,-0.0472399999999879,0.1502839999999992,0.1575338003604262,-0.944029999999998,0.1565299999999752,0.956919161580532,-0.944029999999998,0.1565299999999752,0.956919161580532,-0.1570000000000391,0.1324399999999741,0.2054004712750324,-0.1570000000000391,0.1324399999999741,0.2054004712750324,-1.7479699999998957,0.327699999999993,1.7784224500662462,-1.7479699999998957,0.327699999999993,1.7784224500662462,-0.3000700000000051,0.3109900000000039,0.4321536590149452,-0.3000700000000051,0.3109900000000039,0.4321536590149452,0.1647265000000004,0.1647265000000004,109.90568925,0.1164792251911261,73.925173,0.0485640937318773,61.1551095,0.0631679700837377,0.00368468,0.00208799,0.0026054622145024,0,0
2,66.66666666666667,515.6886,61.160667,0.9526705,517.8141,58.306534,0.9469666,513.22876,59.130432,0.8593831,522.79865,58.83242,0.85956657,511.07825,60.989784,0.47921497,531.178,73.26342,0.99452055,510.55865,75.04581,0.9909428,540.92834,92.086296,0.9761621,506.9629,89.35973,0.91603494,542.0209,107.97614,0.9552972,507.59396,90.46752,0.8817337,531.981,109.74141,0.9932908,519.46747,110.76391,0.99125624,531.73645,137.42674,0.9780352,524.3811,138.4833,0.9666157,530.89246,162.99173,0.93702847,528.39154,163.88072,0.91570055,0.99564418,0.15303711,0.98380999,0.00221081,156.54900081711392,136.23041781886292,178.61524052165515,178.92130902898293,7.661449562879079,110.25266,74.154615,61.160667,35.05799999999999,105.574186,0.3320698079351536,175.0594857512393,0.9173188229411764,-0.1980600000000549,0.050224,0.2043286905356704,0.0183799999999791,0.1395570000000034,0.1407621421014905,-0.205859999999916,0.0329970000000017,0.2084877493018847,0.0003800000000637,0.1421050000000008,0.1421055080741076,-0.2330400000000736,0.0536039999999999,0.2391255536659232,0.0355599999999185,0.1536260000000027,0.1576878609024646,-0.1486200000000508,0.0421750000000002,0.1544883006088653,0.0323099999999385,0.116979999999998,0.1213600284277965,-0.1928699999999708,0.0634540000000001,0.2030400133372452,0.0878100000000472,0.1249779999999987,0.1527419280486139,0.2265999999999621,0.2546540000000021,0.3408756660660657,0.358199999999897,0.1722680000000025,0.3974713874279847,-0.2697499999999877,0.1355500000000091,0.301892141335272,-0.0902799999999501,0.0805760000000219,0.121008140949254,0.3148800000000165,0.6114060000000023,0.687725752924822,0.3312200000000302,0.4900959999999941,0.5915241141458345,-0.5582200000000057,0.2045250000000038,0.5945082371380636,-0.2013800000000287,0.1595900000000085,0.2569491632600003,-0.0317999999999756,0.6867799999999988,0.687515824108796,0.1371000000000322,0.4495299999999957,0.4699719469287555,0.0419299999999793,0.0489099999999922,0.064422922938947,0.2866799999999898,-0.1595000000000084,0.3280635188496228,0.3036299999999983,0.3098150000000004,0.4337931662958733,0.3952600000000075,0.1306459999999987,0.4162917785832499,-0.0162299999999504,0.2193999999999931,0.2199994838630204,0.0310100000000375,0.0691159999999939,0.0757538220554018,-0.5587199999999939,0.0849100000000078,0.5651351577277727,0.385310000000004,-0.0716199999999673,0.3919097096271007,-0.7992000000000417,-0.0162099999999725,0.7993643750506184,-0.6422000000000025,-0.1486499999999466,0.659179537379603,-1.341670000000022,-0.2147500000000093,1.3587479351962464,0.4062999999998737,-0.5424500000000023,0.6777401364091549,-1.0919600000000855,-0.3329500000000109,1.1415920217399007,-0.7918900000000804,-0.6439400000000148,1.020660813248038,0.2646074999999825,0.0998809999999821,110.02134616666667,0.2165947184699538,74.00165366666666,0.1368470413320416,61.156962,0.0447815976825303,-0.00171952,0.00212893,0.0018437041320125,0,0
3,100.0,515.59235,60.764587,0.94732124,517.7639,57.97184,0.9340465,513.1434,58.639786,0.8472587,522.74426,58.668396,0.83587307,511.09354,60.43029,0.47795412,531.40015,73.547585,0.9941121,510.11462,74.57411,0.9913017,541.54193,93.454994,0.9720148,506.39722,88.69553,0.9259628,541.8708,110.32724,0.94741035,506.9117,90.85015,0.8909658,531.035,110.35095,0.9937151,518.2268,111.04588,0.99255306,530.1596,136.98438,0.9803915,522.4939,137.77786,0.9730535,528.6944,162.5414,0.94383043,526.2221,163.1033,0.9287826,0.98373939,0.18742747,0.96464964,0.04544441,154.12019984745334,151.82212361163607,178.60133197696334,179.3051083274701,6.035203665100811,110.698415,74.0608475,60.764587,35.47358000000003,105.13146,0.3374211645360853,177.23896862849404,0.9162674923529412,-0.0962499999999408,-0.3960799999999977,0.407606953939683,0.101810000000114,-0.4463039999999978,0.4577690864573767,-0.050200000000018,-0.3346939999999989,0.3384377544482901,0.155659999999898,-0.3676910000000006,0.3992827407752164,-0.0853599999999232,-0.4906459999999981,0.4980158902243833,0.1476800000001503,-0.5442499999999981,0.5639303546538725,-0.0543899999998984,-0.1640239999999977,0.1728066684939797,0.0942300000001523,-0.206198999999998,0.2267097715164212,0.0152899999999931,-0.5594940000000008,0.5597028855884171,0.2081599999999639,-0.622948000000001,0.656806513597411,0.222150000000056,0.2841650000000015,0.3606942884563405,-0.0044499999999061,0.0295109999999994,0.0298446246583723,-0.4440299999999979,-0.4716999999999984,0.64781442628271,-0.1742800000000102,-0.6072500000000076,0.6317642605434505,0.613589999999931,1.3686979999999949,1.4999422999915368,0.2987099999999145,0.7572919999999925,0.8140754494295585,-0.5656799999999862,-0.6641999999999939,0.8724422630753145,-0.0074599999999804,-0.8687249999999977,0.8687570300291076,-0.1500999999999521,2.3511000000000024,2.355886504057442,-0.1182999999999765,1.6643200000000036,1.6685190896121045,-0.6822599999999852,0.382630000000006,0.7822304165014197,-0.7241899999999646,0.3337200000000138,0.7973833422513653,-0.9460000000000264,0.6095399999999955,1.1253688335830363,-1.2496300000000249,0.2997249999999951,1.2850720651096026,-1.2406700000000228,0.2819700000000011,1.2723085827738714,-1.2244400000000724,0.062570000000008,1.226037649707454,-1.5768500000000358,-0.4423600000000078,1.6377235090515494,-1.018130000000042,-0.5272700000000157,1.1465610972818248,-1.8871999999998932,-0.7054400000000101,2.014738055827509,-1.0879999999998518,-0.6892300000000375,1.2879371075094193,-2.198060000000055,-0.4503299999999797,2.243716754071294,-0.8563900000000331,-0.2355799999999703,0.8882014233832564,-2.1694400000000087,-0.7774200000000064,2.3045285352974147,-1.0774799999999232,-0.4444699999999955,1.1655542592688812,0.4457550000000054,0.1811475000000229,110.190613375,0.3819437995053163,74.016452125,0.1155885776813423,61.05886825,0.1995656854695109,0.0432336,0.0129577999999999,0.0217099945921657,0,0
4,133.33333333333334,515.52673,60.437027,0.9478973,517.72437,57.63137,0.93469214,513.0774,58.295685,0.8489449,522.7352,58.424377,0.83688134,511.033,60.171043,0.48069102,531.51154,73.672455,0.994017,510.03687,74.58234,0.9912566,541.4584,94.25394,0.9708727,506.56152,89.06521,0.9247923,541.3616,111.76523,0.94487226,507.01898,91.49106,0.88813156,530.95123,110.78902,0.99329054,517.9957,111.39676,0.9921123,529.5072,137.36426,0.97856206,521.4864,138.06735,0.97078305,528.1774,162.93158,0.93867964,525.3664,163.3994,0.92277336,0.98941147,0.19577942,0.96907126,0.03881198,153.88918894785658,155.8270122185534,179.86708603194748,178.74852731244962,5.714768527331309,111.09289,74.1273975,60.437027,34.89688000000001,105.76803,0.3299378807571827,177.5738203540771,0.9152500041176472,-0.0656199999999671,-0.3275599999999983,0.3340681637031499,0.0306299999999737,0.0685199999999994,0.0750545621531317,-0.0395300000000133,-0.3404700000000034,0.342757117796266,0.0106700000000046,-0.0057760000000044,0.0121330571580352,-0.0660000000000309,-0.344101000000002,0.3503733697086658,0.0193599999998923,0.1465449999999961,0.1478182892100795,-0.0090600000000904,-0.2440190000000015,0.2441871330783061,0.045329999999808,-0.0799950000000038,0.0919456846457907,-0.0605400000000031,-0.259247000000002,0.2662218973131275,-0.0758299999999962,0.3002469999999988,0.3096747485814733,0.1113899999999148,0.1248700000000013,0.1673327493349146,-0.1107600000001411,-0.1592950000000002,0.1940172018791925,-0.0777499999999804,0.0082299999999975,0.0781843680027978,0.3662800000000175,0.4799299999999959,0.6037332550887097,-0.0835299999999961,0.7989460000000008,0.803300673357119,-0.6971199999999271,-0.569751999999994,0.9003297373206617,0.1642999999999688,0.3696799999999882,0.4045464032715913,0.729979999999955,1.033879999999982,1.2656139438232723,-0.509200000000078,1.4379899999999992,1.525483490602267,-0.3591000000001259,-0.9131100000000032,0.9811843262609204,0.1072800000000029,0.6409100000000052,0.6498266126437169,0.7895399999999881,0.2582799999999992,0.8307117249684037,-0.0837699999999586,0.4380699999999962,0.4460075535234686,0.8622300000000678,-0.1714699999999993,0.8791146306370499,-0.2310999999999694,0.3508800000000036,0.4201475745496913,1.0095700000000534,0.0689100000000024,1.011919054569143,-0.6523999999999432,0.3798800000000142,0.7549401131215222,0.9244500000000926,0.8222400000000221,1.2372091254513955,-1.00750000000005,0.2894900000000007,1.0482655723146217,0.8796999999998434,0.9949300000000108,1.3280654332146988,-0.5169999999999391,0.3901799999999866,0.6477109173079658,1.681060000000116,0.8405099999999663,1.8794732729412071,-0.8556999999999562,0.296100000000024,0.9054820263262764,1.3137400000000523,1.0735200000000304,1.696572420499698,0.3944749999999999,-0.0512800000000055,110.3710687,0.5217580100867607,74.0386412,0.1117242798794196,60.9345,0.3274250374559018,-0.0066324299999999,0.018128636,0.0220721685293579,0,0
5,166.66666666666666,515.6398,59.9965,0.9470901,517.8783,57.227837,0.9344497,513.2231,57.819366,0.8432304,522.9077,58.171463,0.83974874,511.21506,59.741577,0.46670598,531.4309,73.71356,0.9939243,510.57748,74.15024,0.9907046,541.37427,94.63435,0.9706025,507.68216,88.22882,0.9189866,540.5553,112.3138,0.9443637,507.40915,90.231346,0.88195074,530.0335,111.06413,0.99320036,517.4407,111.39882,0.9918093,528.41693,138.04239,0.978721,520.8205,138.49686,0.9703245,527.7848,163.85028,0.93980247,524.96857,164.02592,0.92283005,1.00452341,0.23508269,0.97644062,0.01916034,151.92665558171743,176.14230659036923,177.9739689412186,177.88048668754587,4.190548734844329,111.231475,73.9319,59.9965,33.96512000000001,106.79808300000002,0.3180311736678722,178.8003759162389,0.9134379435294118,0.1130699999999933,-0.440527000000003,0.4548064012621207,0.1786899999999605,-0.1129670000000047,0.2114040188572273,0.1539299999999457,-0.4035329999999959,0.4318950416350945,0.1934599999999591,-0.0630629999999925,0.2034790248870463,0.1457000000000334,-0.4763189999999966,0.4981046875517299,0.2117000000000644,-0.1322179999999946,0.2495966536715302,0.1725000000000136,-0.252913999999997,0.3061400682628838,0.181560000000104,-0.0088949999999954,0.1817777616350188,0.1820599999999785,-0.4294659999999979,0.4664620978771913,0.2425999999999817,-0.1702189999999959,0.2963600309775084,-0.0806400000000167,0.0411050000000017,0.0905120468501449,-0.1920299999999315,-0.0837649999999996,0.2095044059798591,0.5406099999999583,-0.4321000000000055,0.6920762834398818,0.6183599999999387,-0.440330000000003,0.7591176447033271,-0.0841299999999591,0.3804099999999977,0.3896018801289226,-0.000599999999963,-0.4185360000000031,0.4185364300703136,1.1206400000000372,-0.8363899999999944,1.3983498280831137,0.9563400000000684,-1.2060699999999829,1.5392176715786785,-0.8062999999999647,0.548569999999998,0.975217275739074,-0.2970999999998867,-0.8894200000000012,0.9377293566909032,0.3901700000000119,-1.2597140000000024,1.3187539538124675,0.2828900000000089,-1.900624000000008,1.921561433177725,-0.917730000000006,0.2751100000000122,0.9580782144480782,-0.8339600000000473,-0.162959999999984,0.8497324538936204,-0.5550000000000637,0.0020600000000001,0.5550038230499594,-0.3239000000000942,-0.3488200000000034,0.4760111368445737,-1.0902700000000325,0.6781300000000101,1.2839583208967822,-0.437870000000089,0.2982499999999959,0.5297954316527045,-0.6658999999999651,0.4295099999999934,0.7924024546276645,0.3416000000000849,0.1400199999999927,0.3691830987464837,-0.3926000000000158,0.9187000000000012,0.9990717942170196,0.1243999999999232,0.5285200000000145,0.5429629364882986,-0.397829999999999,0.6265199999999993,0.7421563307686584,0.4578699999999571,0.3304199999999753,0.5646435276348649,0.1385850000000061,-0.2558899999999937,110.6526985,0.5321244917298563,74.0468546,0.0989171104393731,60.6938448,0.4870129972600319,-0.01965164,0.021911574,0.0197384942413404,0,0
6,200.0,515.5012,59.601532,0.9499956,517.84015,56.774094,0.9500884,513.14075,57.428932,0.83947074,523.1382,57.850647,0.8798568,511.16827,59.626022,0.41641325,531.5988,73.57163,0.9942589,511.07547,74.459724,0.9881479,541.2332,93.582726,0.97597164,508.28198,88.94538,0.8824923,540.44183,110.83267,0.95349187,507.48645,91.378685,0.8443992,530.2029,111.14478,0.9924004,517.6678,111.502365,0.98882586,528.4699,138.97983,0.9768,520.84143,139.38908,0.9600309,527.69196,165.06752,0.9369928,524.6314,165.17319,0.9075797,1.01117892,0.22795897,0.98503821,-0.01473873,151.6646779696233,172.81088807169834,178.14544695678163,178.1306271444519,3.983810898162304,111.3235725,74.015677,59.601532,33.74675000000002,108.399096,0.3113194752904631,177.5222191770554,0.9080715447058824,-0.1385999999999967,-0.3949679999999986,0.4185805549998686,-0.25166999999999,0.0455590000000043,0.2557604570315657,-0.0381499999999732,-0.4537430000000029,0.4553439716840452,-0.1920799999999189,-0.0502100000000069,0.198534053753933,-0.0823500000000194,-0.390433999999999,0.399024098089329,-0.2280500000000529,0.0858849999999975,0.2436863470221992,0.2305000000000063,-0.3208160000000006,0.3950356387163104,0.0579999999999927,-0.0679020000000036,0.0893010728043043,-0.0467899999999872,-0.1155550000000005,0.124668609220601,-0.2288499999999658,0.3139109999999974,0.388474501635542,0.1679000000000314,-0.1419300000000021,0.2198511653369414,0.2485400000000481,-0.1830350000000038,0.308664774188804,0.4979900000000157,0.3094839999999976,0.5863227663633864,-0.0426199999999425,0.7415840000000031,0.7428077096099635,-0.1410700000000133,-1.051624000000004,1.0610437230746017,-0.0569400000000541,-1.4320340000000016,1.4331655664144358,0.5998199999999656,0.7165600000000012,0.934474326025044,-0.5208200000000716,1.5529499999999956,1.6379582335639884,-0.1134700000000066,-1.4811300000000074,1.4854701335940832,0.6928299999999581,-2.0297000000000054,2.1446900705929437,0.0772999999999797,1.1473390000000023,1.1499400292715278,-0.3128700000000322,2.4070530000000048,2.4273013372280423,0.169399999999996,0.0806499999999914,0.1876187157508473,1.087130000000002,-0.1944600000000207,1.1043850453985748,0.227100000000064,0.1035449999999968,0.2495916205024288,0.7821000000001277,0.1014849999999967,0.788656842501984,0.052970000000073,0.937439999999981,0.93893534095803,1.1432400000001053,0.2593099999999708,1.1722795629457274,0.0209299999999075,0.8922200000000089,0.8924654577629388,0.6868299999998726,0.4627100000000155,0.8281521557056042,-0.0928400000000237,1.217240000000004,1.220775361481388,0.299759999999992,0.2985400000000027,0.4230628667231346,-0.3371700000000146,1.1472699999999918,1.1957893049362798,0.0606599999999843,0.5207499999999925,0.5242711112582785,0.0920974999999941,-0.046487500000012,110.91980250000002,0.4427812053585543,74.0580874,0.0892342249681954,60.3920626,0.6150116563157999,-0.03389907,0.018177762,0.0250431902266358,0,0
7,233.3333333333333,515.6043,58.958282,0.9512147,518.04474,56.061813,0.94849193,513.21,56.70954,0.8500437,523.42554,57.212807,0.87041056,511.1602,58.96158,0.4479593,531.8678,73.33671,0.9944238,510.5456,74.42487,0.9898291,540.9725,94.223045,0.97513527,508.3001,90.48893,0.8990855,540.64453,111.136795,0.952237,507.7238,93.37209,0.8600655,530.15985,111.246,0.9931879,517.1414,111.70355,0.9906509,528.1802,139.45236,0.97953343,520.1829,139.95279,0.96706176,527.2684,166.04066,0.9445212,524.09717,166.26828,0.92230403,1.02363874,0.23778479,0.99510968,-0.0324252,155.33594571643897,176.65386812937638,177.94939454572977,177.6847984066324,3.719496908845744,111.474775,73.88078999999999,58.958282,33.248699999999985,110.206467,0.3016946337487196,177.07849412096004,0.9138915047058824,0.1030999999999267,-0.6432500000000019,0.6514600313910188,0.2416999999999234,-0.2482820000000032,0.3465008535688831,0.2045900000000529,-0.7122809999999973,0.7410811636123386,0.2427400000000261,-0.2585379999999944,0.3546330568968575,0.0692500000000109,-0.7193920000000062,0.7227173805603477,0.1516000000000303,-0.3289580000000072,0.362209781430615,0.2873399999999719,-0.6378400000000042,0.6995742571021244,0.0568399999999655,-0.3170240000000035,0.3220791861887357,-0.0080700000000319,-0.6644420000000011,0.6644910054048903,0.0387199999999552,-0.5488870000000006,0.550251012874122,0.2690000000000054,-0.2349200000000024,0.3571391975126842,0.1010999999999739,-0.0929900000000003,0.1373621130442991,-0.5298700000000167,-0.0348539999999957,0.5310150828517185,-1.0278600000000324,-0.3443379999999933,1.0840040764886736,-0.2607000000000425,0.6403190000000052,0.6913558503122895,-0.1196300000000292,1.691943000000009,1.6961669882853627,0.0181200000000103,1.5435499999999962,1.5436563532405745,-0.5816999999999553,0.826989999999995,1.01108226673201,0.2027000000000498,0.3041250000000133,0.3654850279081597,0.3161700000000564,1.785255000000021,1.813035819813031,0.2373499999999921,1.993404999999996,2.0074856205026674,0.1600500000000124,0.8460659999999933,0.8610712391294884,-0.0430499999999938,0.1012199999999978,0.1099945039536023,-0.2124499999999898,0.0205700000000064,0.2134434993153831,-0.5264000000000806,0.2011850000000095,0.5635355926870003,-0.7535000000001446,0.0976400000000126,0.7597998549619633,-0.2897000000000389,0.4725300000000061,0.554265902703773,-0.3426700000001119,-0.4649099999999748,0.5775500298675893,-0.6585299999999279,0.5637099999999862,0.8668510396832257,-0.6794599999998354,-0.3285100000000227,0.7547083620179329,-0.4235599999999522,0.9731400000000008,1.0613220685541034,-0.3307199999999284,-0.2441000000000031,0.4110480852649166,-0.5342299999999796,1.095089999999999,1.2184513945988884,-0.1970599999999649,-0.0521799999999927,0.2038514066666831,0.1512024999999965,0.0591050000000024,111.1642255,0.2951368873421909,74.0033224,0.0987063219640732,59.9515856,0.7084898547631509,-0.01768647,0.01125056,0.033817270277807,0,0
8,266.6666666666667,515.5419,58.28221,0.9505687,518.18066,55.45761,0.9476187,513.3064,55.931366,0.8504908,523.8457,56.848022,0.86912143,511.41028,58.169434,0.45051703,532.08984,73.15219,0.99426067,510.14957,74.069176,0.98980343,540.50195,93.79943,0.97371125,507.5633,91.35556,0.897903,540.4102,110.4919,0.9497603,508.0036,97.878494,0.8564887,529.9393,111.21885,0.9931571,516.5869,111.536804,0.9907041,528.3775,139.65355,0.9799906,520.0602,139.90097,0.96816707,527.11127,166.66379,0.9470826,524.3801,166.48631,0.9264471,1.07104372,0.24539979,1.04178231,-0.04004021,157.51808516759064,167.62928714065987,179.54017018594882,177.7518987681748,3.248244018973076,111.377827,73.610683,58.28221,32.93864999999994,111.20618,0.2961944174667767,177.60673556623863,0.913870151764706,-0.0623999999999114,-0.6760719999999978,0.6789455863204252,-0.1654999999998381,-0.0328219999999959,0.168723245831587,0.1359199999999418,-0.6042029999999983,0.6193024395309469,-0.068670000000111,0.108077999999999,0.128048518085978,0.0964000000000169,-0.7781739999999999,0.7841222699783518,0.027150000000006,-0.0587819999999936,0.0647491005651783,0.4201600000000098,-0.3647849999999977,0.5564193758533276,0.1328200000000379,0.2730550000000065,0.3036448343460063,0.2500800000000254,-0.7921459999999954,0.8306836291368727,0.2581500000000574,-0.1277039999999942,0.2880099548905006,0.2220399999999927,-0.184519999999992,0.2887029476815119,-0.0469600000000127,0.0504000000000104,0.068886875382777,-0.3960299999999961,-0.3556939999999997,0.5323138008130136,0.1338400000000206,-0.320840000000004,0.3476369531566057,-0.4705500000000029,-0.4236149999999981,0.633140561585657,-0.2098499999999603,-1.0639340000000033,1.0844319152699216,-0.7367999999999597,0.8666300000000007,1.1375068337816443,-0.7549199999999701,-0.6769199999999955,1.01396493667185,-0.2343299999999999,-0.6448950000000053,0.6861487520392403,-0.4370300000000497,-0.9490200000000186,1.0448129886731303,0.2798000000000229,4.506404000000003,4.515081953986665,0.0424500000000307,2.512999000000008,2.513357510681885,-0.2205500000000029,-0.0271499999999917,0.2222148172377369,-0.1775000000000091,-0.1283699999999896,0.2190550316701275,-0.5544999999999618,-0.1667460000000034,0.5790289099137959,-0.0280999999998812,-0.3679310000000129,0.3690024806976273,0.1973000000000411,0.2011899999999968,0.2817884066103766,0.48700000000008,-0.2713400000000092,0.5574893681498178,-0.1227000000000089,-0.0518199999999922,0.1331938527110068,0.535829999999919,-0.6155299999999784,0.8160826978927359,-0.1571300000000519,0.6231300000000033,0.6426358485176659,0.2664299999999002,-0.3500099999999975,0.4398771930890996,0.2829299999999648,0.2180299999999988,0.3571924772443837,0.8171599999999444,-0.8770600000000002,1.19874297044859,-0.0969479999999975,-0.2481504999999941,111.3001079,0.1455585576523948,73.91328949999999,0.1931959483743131,59.4551102,0.8516507501107563,-0.0076150099999999,-0.005846364,0.0338172690138874,0,0
9,300.0,516.0062,57.900177,0.95431465,518.7747,55.097977,0.9512684,513.7376,55.470318,0.86279446,524.5436,56.544304,0.8711572,511.70532,57.605072,0.4637594,532.34827,72.93226,0.9942676,510.4245,73.34718,0.990433,540.4697,93.49866,0.9734774,507.16043,90.0891,0.9048416,540.54803,110.87497,0.95023715,507.50348,97.756805,0.86523384,529.8151,111.19064,0.9930369,516.4737,111.26263,0.99085075,528.6897,139.70361,0.9793432,520.2322,139.66072,0.9681055,527.3,166.91046,0.9458366,524.35315,166.36783,0.92628324,1.07104372,0.24539979,1.04178231,-0.04004021,158.70979752718972,166.4061002843843,179.33619828340028,178.76764872812822,2.642814107489193,111.226635,73.13972,57.900177,33.38760000000002,111.812483,0.2986035083524306,178.9157737420139,0.916778875882353,0.4642999999999802,-0.3820329999999998,0.6012684118502996,0.5266999999998916,0.2940389999999979,0.603217890584227,0.5940400000000636,-0.3596330000000023,0.6944202015272002,0.4581200000001217,0.2445699999999959,0.5193153370545777,0.4311999999999898,-0.4610479999999981,0.6312675330665989,0.3347999999999729,0.3171260000000018,0.4611506693868967,0.6979000000000042,-0.3037180000000035,0.7611235336816278,0.2777399999999943,0.0610669999999942,0.2843742008146944,0.2950399999999717,-0.5643620000000027,0.6368304865849204,0.0449599999999463,0.2277839999999926,0.2321787075853249,0.2584299999999757,-0.219930000000005,0.3393453547641247,0.036389999999983,-0.035410000000013,0.0507749958148662,0.2749300000000403,-0.7219960000000043,0.7725702097000818,0.6709600000000364,-0.3663020000000045,0.7644373596339024,-0.0322499999999763,-0.30077,0.3024940584540438,0.4383000000000265,0.1228449999999981,0.4551898329543651,-0.4028700000000071,-1.266459999999995,1.328994043816598,0.3339299999999525,-2.133089999999996,2.159069751768097,0.1378300000000081,0.3830700000000036,0.4071114513250701,0.372160000000008,1.027965000000009,1.0932589385982738,-0.5001199999999812,-0.1216890000000034,0.5147117903458032,-0.7799200000000042,-4.628093000000007,4.693348487279532,-0.1241999999999734,-0.0282100000000014,0.127363433135235,0.0963500000000294,-0.0010600000000096,0.0963558306487246,-0.1132000000000061,-0.2741740000000021,0.2966237048450487,0.4412999999999556,-0.1074279999999987,0.4541876981865103,0.3121999999999616,0.0500600000000019,0.3161879877540831,0.1148999999999205,-0.1511299999999948,0.189848062671127,0.1720000000000254,-0.2402500000000031,0.2954726087135833,0.2947000000000344,-0.1884300000000109,0.3497913019216235,0.1887299999999641,0.2466699999999946,0.3105883156205072,0.345860000000016,-0.3764600000000087,0.5112154841160601,-0.0269499999999425,-0.1184800000000052,0.1215064315170112,-0.3098799999999073,-0.3365100000000041,0.4574544725980339,-0.1511919999999946,-0.054243999999997,111.3268569,0.1044397419237388,73.71575399999999,0.3559370958252262,58.9477402,0.875752686335711,0.0,-0.021616802,0.0250287263765092,0,0
10,333.3333333333333,516.2227,57.400146,0.95508814,519.0897,54.63379,0.95188236,514.0609,54.877007,0.8648137,524.96967,56.11702,0.87194693,512.06476,56.84417,0.4666726,532.8012,72.66507,0.99449724,510.0419,72.88892,0.99077725,540.7003,93.48619,0.97439575,506.63596,90.64346,0.9067845,540.66156,111.38806,0.9512778,507.10272,100.81807,0.866025,529.8065,111.37901,0.99335265,515.9643,111.36212,0.9912082,529.2397,139.8271,0.9800199,520.14197,139.65837,0.9689501,527.97754,167.13103,0.9472257,524.8077,166.38777,0.9278047,1.0728936,0.26824482,1.03834327,-0.03144262,159.10030675601766,166.51399708884065,178.49471933406758,178.4970355588141,2.172220637365032,111.370565,72.776995,57.400146,34.06433999999996,112.49724,0.3028015593733535,179.43648325333203,0.9178072070588236,0.2164999999999963,-0.5000309999999999,0.5448882921856537,-0.2477999999999838,-0.117998,0.2744601391896316,0.3149999999999409,-0.4641870000000025,0.5609764442193318,-0.2790400000001227,-0.1045540000000002,0.2979846649008444,0.3232999999999038,-0.5933109999999999,0.6756780540471459,-0.107900000000086,-0.1322630000000018,0.1706924461393035,0.4260699999999815,-0.4272840000000002,0.6034130107612732,-0.2718300000000226,-0.1235659999999967,0.2985968942504451,0.3594400000000064,-0.7609020000000015,0.841527757833339,0.0644000000000346,-0.1965399999999988,0.2068219804566333,0.4529300000000376,-0.2671899999999994,0.5258669803287079,0.1945000000000618,-0.0472599999999943,0.2001593305345107,-0.3826000000000249,-0.4582599999999956,0.5969798887734956,-0.6575300000000652,0.2637360000000086,0.7084506888952048,0.2305999999999812,-0.0124700000000075,0.2309369197421485,0.2628499999999576,0.2882999999999924,0.3901371713897221,-0.524470000000008,0.5543600000000026,0.7631407409515045,-0.1216000000000008,1.8208199999999977,1.8248758950679336,0.1135299999999688,0.5130899999999912,0.5255001512844538,-0.0243000000000392,0.1300199999999876,0.1322712757933433,-0.4007600000000479,3.061265000000006,3.087385945719303,0.0993599999999332,3.1829540000000094,3.184504447432292,-0.0086000000000012,0.1883699999999919,0.1885662135696556,0.1155999999999721,0.2165799999999933,0.2455000130346039,-0.5094000000000278,0.0994900000000029,0.5190246815904124,-0.3962000000000216,0.3736640000000051,0.5446092405532805,0.5499999999999545,0.1234900000000038,0.5636929839016545,0.2377999999999929,0.0734300000000018,0.2488790969527109,-0.0902300000000195,-0.0023500000000069,0.0902605971617935,-0.262230000000045,0.2378999999999962,0.3540635294689666,0.6775400000000218,0.2205700000000092,0.7125388245562719,0.4888100000000577,-0.0260999999999853,0.4895063085395894,0.4545499999999265,0.0199399999999911,0.4549871493788949,0.481499999999869,0.1384199999999964,0.5010013437106461,0.1439299999999974,0.2951219999999921,111.3546749,0.0902415152665272,73.48477299999999,0.5183032702236108,58.4284694,0.8681461486425047,0.00859759,-0.0317373939999999,0.0103366829017983,0,0
11,366.6666666666666,516.9214,57.106094,0.95895845,519.8691,54.324017,0.9538373,514.6297,54.48085,0.88022256,525.6746,55.746235,0.86728674,512.304,56.228256,0.50015336,533.16736,72.29724,0.9948402,509.97772,72.200226,0.9923056,540.9047,93.39891,0.9753577,506.43857,90.32819,0.9235256,540.70135,111.58294,0.9537658,506.90283,101.770546,0.88595384,529.7587,111.3267,0.9939658,515.5992,111.15415,0.99250025,529.1887,140.01709,0.9811948,519.47296,139.66092,0.9724367,527.7219,167.42563,0.94908947,523.819,166.4932,0.93320286,1.0693593,0.33972764,1.01377873,-0.01916034,159.22284453299088,166.6295773524773,178.0748310859638,178.53813949552475,1.6254138449435904,111.240425,72.248733,57.106094,34.46613000000002,113.101613,0.3047359695503551,-179.7603041562401,0.9240351194117647,0.698699999999917,-0.2940520000000006,0.7580555841782873,0.4821999999999207,0.2059789999999992,0.5243512071512024,0.7794000000000096,-0.3097729999999998,0.838703565945093,0.4644000000000687,0.1544140000000027,0.4893986548776617,0.5688000000000102,-0.3961570000000023,0.6931621806251502,0.2455000000001064,0.1971539999999976,0.3148649706081184,0.704930000000104,-0.3707849999999979,0.7964972197849438,0.2788600000001224,0.0564990000000023,0.2845259858098528,0.2392399999999952,-0.6159139999999965,0.660746421099648,-0.1202000000000111,0.144988000000005,0.1883336405000555,0.3661600000000362,-0.3678299999999979,0.5190106496980819,-0.0867700000000013,-0.1006399999999985,0.1328813098219607,-0.0641800000000216,-0.6886939999999981,0.6916780306154015,0.3184200000000032,-0.2304340000000024,0.3930535901833276,0.2044000000000778,-0.0872799999999927,0.2222547151356536,-0.0261999999999034,-0.0748099999999851,0.0792652262974926,-0.1973899999999844,-0.3152699999999981,0.3719650319586408,0.3270800000000236,-0.8696300000000008,0.9291058407415256,0.039790000000039,0.1948799999999977,0.1989006246847963,-0.0737399999999297,-0.3182099999999934,0.3266422993122377,-0.1998899999999821,0.95247599999999,0.9732248161015902,0.2008700000000658,-2.108789000000016,2.118334204846132,-0.047800000000052,-0.0523099999999914,0.0708602575496595,-0.0392000000000507,-0.2406799999999833,0.243851394090737,-0.365099999999984,-0.2079700000000031,0.4201779752676116,0.1443000000000438,-0.307460000000006,0.33963825108491,-0.0509999999999308,0.1899899999999945,0.1967160392545327,-0.6009999999998854,0.0664999999999906,0.6046678840486412,-0.6690100000000712,0.0025500000000135,0.6690148597752484,-0.5787800000000516,0.0049000000000205,0.5788007415337855,-0.2556399999999712,0.2946000000000026,0.3900525215916273,-0.933179999999993,0.0740299999999933,0.9361118273475588,-0.9886999999999944,0.1054300000000125,0.9943053730620144,-1.4432499999999209,0.0854900000000213,1.445779755910206,-0.1301399999999972,-0.2740699999999947,111.3380454,0.1040157479944621,73.13138419999999,0.6511664004412991,57.9293818,0.7317563826590175,0.0122822799999999,-0.032621716,0.0085543210745348,0,0
12,400.0,517.48676,56.19715,0.9620248,520.5449,53.467438,0.95588446,515.2149,53.521942,0.88742864,526.2417,55.125847,0.873675,512.6617,55.426605,0.51791567,533.3534,71.6824,0.99577725,509.77542,71.9402,0.99367976,540.86176,92.20212,0.98259693,506.23465,90.98068,0.944256,541.1675,111.38036,0.9682072,505.83545,106.30534,0.9177369,529.6912,110.62514,0.9960128,515.2343,110.603455,0.9949824,528.64246,139.08633,0.9887959,518.48846,138.84494,0.9830957,528.02386,166.10709,0.96581227,522.7843,165.33437,0.9539189,1.06554165,0.32425198,1.01500696,0.00073694,160.81528130988752,170.95778920534963,179.2011826947286,177.3614199223668,1.3262988707798091,110.6142975,71.8113,56.19715,35.33205000000004,112.639652,0.3136732851973544,179.37355687899898,0.9342235635294118,0.5653600000000552,-0.9089439999999982,1.0704256745501104,-0.1333399999998619,-0.6148919999999976,0.6291833812681007,0.6757999999999811,-0.8565789999999964,1.091069760941512,-0.1036000000000285,-0.5468059999999966,0.5565337021564841,0.5851999999999862,-0.958907999999994,1.1233715291318238,0.0163999999999759,-0.5627509999999916,0.5629899182054593,0.5670999999999822,-0.6203879999999984,0.840525835738544,-0.1378300000001218,-0.2496030000000004,0.2851293855586158,0.3577000000000225,-0.8016509999999997,0.8778346175681474,0.1184600000000273,-0.1857370000000031,0.2202975369108961,0.1860399999999344,-0.6148400000000009,0.6423699146130497,-0.1801200000001017,-0.247010000000003,0.3057076291165109,-0.2022999999999797,-0.2600259999999963,0.3294522889220682,-0.138119999999958,0.4286680000000018,0.4503702794634543,-0.0429400000000441,-1.1967900000000071,1.1975600810397868,-0.247340000000122,-1.1095100000000144,1.1367451410496956,-0.2039200000000391,0.6524900000000002,0.6836128776581204,-0.0065300000000547,0.9677599999999984,0.9677820304696702,0.4661499999999705,-0.2025799999999975,0.5082661496696111,0.4263599999999314,-0.3974599999999952,0.5828870398284197,-1.0673800000000142,4.534794000000005,4.658718352383634,-0.8674900000000321,3.582318000000015,3.685856908945892,-0.0674999999999954,-0.7015600000000006,0.7047997471622703,-0.0196999999999434,-0.6492500000000092,0.6495488068652038,-0.3649000000000342,-0.5506950000000046,0.6606186441700158,0.0001999999999497,-0.3427250000000015,0.3427250583558211,-0.5462400000000116,-0.9307599999999924,1.0792091156027168,-0.4952400000000807,-1.1207499999999868,1.2252931159930878,-0.9844999999999118,-0.8159799999999962,1.2786960586471752,-0.3154899999998406,-0.8185300000000097,0.877225912179933,0.3019600000000082,-1.318540000000013,1.352674230256509,0.5575999999999794,-1.6131400000000156,1.7067918501094466,-1.0346999999999298,-1.1588299999999947,1.553541457090812,-0.0459999999999354,-1.2642600000000073,1.2650965763924953,-0.6261275000000097,-0.4959875000000124,111.1659499,0.3163498209894992,72.7174862,0.7107260713964788,57.37715539999999,0.7998579588488214,0.01989728,-0.025989288,0.0172157009870138,0,0
13,433.33333333333337,518.20917,55.742355,0.9643204,521.2534,52.99208,0.9568524,515.7681,53.0701,0.897654,526.7054,54.781662,0.8687085,512.79944,55.118202,0.54494745,533.6054,71.589516,0.9958632,509.67584,71.92984,0.99428636,541.1657,92.281555,0.98249704,505.85504,91.3418,0.95018905,541.222,111.57301,0.96826315,504.59845,107.34925,0.92450184,529.9382,110.819756,0.9960581,515.21606,110.835304,0.9952427,528.2148,139.46307,0.98848253,517.5689,139.25447,0.9832476,528.3721,166.5103,0.964268,522.46564,165.86118,0.9530553,1.1515498,0.18669053,1.13611016,0.0216168,160.0963020870191,173.3535057002921,176.22358488525694,174.3046472020894,1.3732566014511929,110.82753,71.75967800000001,55.742355,36.623549999999966,113.51822,0.322622656322283,179.1851996284958,0.9369669188235294,0.722409999999968,-0.4547949999999972,0.8536478782993321,0.1570499999999128,0.454149000000001,0.4805372167699122,0.7085000000000719,-0.4753579999999999,0.8531925211604364,0.0327000000000907,0.3812209999999965,0.3826208839582639,0.5532000000000608,-0.4518420000000063,0.7142768601628313,-0.0319999999999254,0.5070659999999876,0.5080747271376354,0.4637000000000171,-0.344185000000003,0.5774781417724986,-0.103399999999965,0.2762029999999953,0.2949231377986308,0.1377400000000079,-0.3084030000000055,0.3377642935672828,-0.2199600000000146,0.4932479999999941,0.5400703575498295,0.2520000000000664,-0.0928839999999979,0.2685729648643606,0.0659600000001319,0.521956000000003,0.5261072015625908,-0.0995800000000031,-0.0103600000000056,0.1001174610145539,0.1027199999999766,0.2496659999999906,0.2699713132093677,0.3039400000000114,0.0794350000000037,0.3141487590696604,0.3468800000000556,1.2762250000000108,1.3225263645860017,-0.3796100000000137,0.3611199999999996,0.5239383613556181,-0.1756899999999746,-0.2913700000000006,0.3402402871501131,0.0544999999999618,0.1926500000000004,0.2002105704002563,-0.4116500000000087,0.3952299999999979,0.5706684461226199,-1.2369999999999663,1.0439099999999968,1.6186157938497665,-0.1696199999999521,-3.4908840000000083,3.495002438605164,0.2470000000000709,0.1946159999999963,0.314458880389843,0.3145000000000664,0.896175999999997,0.949758744616777,-0.0182399999999915,0.2318489999999968,0.2325653809168472,0.3466600000000426,0.7825440000000015,0.8558903361623098,-0.4276600000000599,0.3767399999999838,0.5699351745593871,0.1185799999999517,1.307499999999976,1.312866126609993,-0.9195600000000468,0.4095299999999895,1.006630723999659,0.064939999999865,1.2255099999999857,1.2272293851191582,0.3482400000000325,0.4032100000000014,0.5327751887053523,0.0462800000000243,1.7217500000000143,1.7223718822890868,-0.3186600000000226,0.5268099999999833,0.6156890219095975,0.7160399999999072,1.685639999999978,1.8314189829746208,0.2132325000000037,0.8393600000000134,111.0558905,0.3199138956540205,72.3472852,0.6030916838886694,56.8691844,0.8835110146440129,0.02087986,-0.013657886,0.0249705590199875,0,0
14,466.6666666666667,518.8996,55.165955,0.9665159,521.92523,52.413162,0.9572489,516.35144,52.523453,0.90794075,527.1766,54.34455,0.8616365,513.05695,54.74568,0.57880485,533.70886,71.27957,0.99596965,509.68704,71.81874,0.99497825,541.2178,91.67285,0.9824776,505.58875,91.38478,0.9573763,541.3108,110.32472,0.9686875,504.04315,107.509315,0.93333215,530.11536,110.77747,0.99613273,515.2587,110.89265,0.9955812,527.89014,139.32523,0.9880824,516.7069,139.2118,0.9835328,528.8839,165.92874,0.9621569,522.03235,165.47969,0.9520842,1.27278515,0.3448862,1.22429687,-0.04618134,160.07164025524045,173.6451885382881,173.403702941857,171.4668806603187,1.442258123524672,110.83506,71.54915500000001,55.165955,37.267649999999946,113.515578,0.3283042761910235,178.7142115208297,0.940149328235294,0.6904299999999921,-0.5764000000000067,0.8994056620346554,-0.0319799999999759,-0.1216050000000095,0.1257397965045306,0.6718299999999999,-0.5789180000000016,0.8868492541711932,-0.0366700000000719,-0.1035600000000016,0.1098606503713027,0.5833400000000211,-0.546646999999993,0.7994426172084004,0.0301399999999603,-0.0948049999999867,0.0994806897090841,0.4711999999999534,-0.437111999999999,0.642725711749542,0.0074999999999363,-0.0929269999999959,0.0932291656564527,0.2575100000000248,-0.3725219999999964,0.4528620546965821,0.1197700000000168,-0.0641189999999909,0.135853226170757,0.1034599999999272,-0.3099459999999965,0.3267575469916231,-0.1485400000001391,-0.2170619999999985,0.2630209943028135,0.0112000000000307,-0.1110999999999933,0.1116631093960722,0.1107800000000338,-0.1007399999999876,0.1497356203446762,0.0520999999999958,-0.6087050000000005,0.610930591004412,-0.2518400000000156,-0.6881400000000042,0.7327755762851363,-0.2662899999999695,0.04298,0.2697362498812196,0.1133200000000442,-0.3181399999999996,0.3377195315642994,0.088799999999992,-1.2482899999999972,1.2514445109951906,0.0343000000000301,-1.4409399999999977,1.441348179171152,-0.5552999999999884,0.160065000000003,0.5779090708969604,0.681699999999978,-0.8838449999999938,1.1161975067276215,0.177159999999958,-0.0422860000000042,0.1821366832793039,-0.0698400000001129,-0.2369020000000006,0.2469821515899804,0.0426400000000057,0.0573460000000096,0.0714614113770614,0.0608799999999973,-0.1745029999999872,0.1848179412529942,-0.3246599999999944,-0.1378399999999828,0.3527094855543179,0.1030000000000654,-0.5145799999999667,0.5247871724804059,-0.8619999999999663,-0.0426699999999868,0.8630554610799591,0.0575600000000804,-0.4521999999999764,0.4558486520765284,0.5117999999999938,-0.5815599999999961,0.7746943097764364,0.1635599999999613,-0.9847699999999976,0.9982604001461656,-0.4332900000000563,-0.3814899999999852,0.5772996138921606,-0.1146300000000337,-0.9082999999999686,0.915504738873563,0.0075300000000027,-0.205702500000001,110.9775755,0.3155652990488288,72.02917220000002,0.4893765975091911,56.32234,0.9307547355106452,-0.06779814,-0.014886112,0.0266848300350427,0,0
15,500.0,519.13477,54.36921,0.9695458,522.2089,51.593334,0.9611648,516.4888,51.715256,0.9157531,527.493,53.73438,0.868029,513.06793,54.186512,0.5899132,534.15326,71.0603,0.9963064,509.82343,71.54671,0.99558735,541.79065,91.86731,0.98402566,505.6142,91.1377,0.9628364,541.6435,110.582924,0.9713704,501.9901,106.979324,0.940911,530.1382,110.364365,0.9964296,515.0011,110.38616,0.9960168,527.5132,138.96426,0.9886586,515.405,138.77989,0.9845463,529.0046,165.70767,0.96331537,520.39417,165.23297,0.95393926,1.27278515,0.3448862,1.22429687,-0.04618134,159.3934345028075,179.24009413270076,171.56397405100924,170.13419830648002,0.8524755097468535,110.3752625,71.303505,54.36921,39.80055000000005,114.114336,0.3487778227200325,178.85467642174774,0.9434322964705882,0.2351700000000391,-0.7967449999999943,0.8307271055677726,-0.4552599999999529,-0.2203449999999875,0.5057801761881853,0.2836699999999155,-0.8198280000000011,0.8675175032723859,-0.3881600000000844,-0.2409099999999995,0.4568433141680694,0.1373599999999442,-0.8081970000000069,0.8197866554226142,-0.4459800000000768,-0.2615500000000139,0.5170169851175838,0.3164000000000442,-0.6101699999999965,0.6873255334265007,-0.1547999999999092,-0.1730579999999975,0.2321898175286139,0.0109800000000177,-0.5591679999999997,0.5592757929894696,-0.246530000000007,-0.1866460000000032,0.3092147639036737,0.4444000000000869,-0.2192700000000087,0.4955508983949894,0.3409400000001596,0.0906759999999877,0.3527920358739786,0.1363899999999489,-0.2720300000000009,0.3043066759044017,0.1251899999999182,-0.1609300000000075,0.2038896785028167,0.5728500000000167,0.1944600000000065,0.6049560431138957,0.5207500000000209,0.803165000000007,0.9572118781779888,0.0254499999999779,-0.247080000000011,0.2483872559130286,0.2917399999999475,-0.2900600000000111,0.4113964404318246,0.3327000000000453,0.2582040000000063,0.421139639093773,0.2439000000000533,1.5064940000000036,1.5261098853084063,-2.0530500000000416,-0.5299909999999954,2.120354867134548,-1.4977500000000532,-0.6900559999999984,1.6490701457597725,0.0228399999999737,-0.4131049999999874,0.413735914110666,-0.1543199999999842,-0.3708189999999831,0.4016483451490652,-0.2576000000000249,-0.5064899999999994,0.5682340011826222,-0.3002400000000307,-0.5638360000000091,0.638791900775228,-0.3769399999999905,-0.3609700000000089,0.5219033478528369,-0.0522799999999961,-0.223130000000026,0.2291728502681136,-1.301900000000046,-0.4319100000000162,1.3716741078332468,-0.4399000000000796,-0.3892400000000293,0.5873838503058225,0.1206999999999425,-0.2210699999999974,0.2518738471933618,-0.3911000000000513,0.3604899999999986,0.5318949615290967,-1.6381799999999205,-0.2467200000000105,1.6566546021424453,-1.204889999999864,0.1347699999999747,1.212403754942909,-0.4597974999999934,-0.4673274999999961,110.778515,0.3195859123195825,71.7344742,0.3503845051135637,55.7161528,1.0345233113307228,0.0,-0.017833856,0.0296232509229098,0,0
16,533.3333333333334,519.39453,54.13002,0.9710074,522.45795,51.371155,0.9617343,516.76965,51.472885,0.92164934,527.70355,53.45455,0.8648153,513.32446,53.861572,0.6112877,534.3359,70.666176,0.99648154,509.8026,71.19204,0.9961444,542.08795,91.34088,0.98462576,505.45575,91.018265,0.96848184,541.79596,109.728935,0.9726972,501.4422,107.45571,0.9484347,530.058,109.92271,0.99667525,514.77014,109.94241,0.9964593,527.3587,138.51854,0.98910207,514.79944,138.32753,0.9857845,529.08295,165.1922,0.9639821,519.81647,164.75572,0.95616764,0.89677537,-0.0648504,0.89439505,0.00761501,158.53655447099257,178.64478746455043,170.90895757088492,169.31022735853406,0.5066909346078076,109.93256,70.929108,54.13002,40.64574999999997,113.821045,0.3571022357323966,178.77207001391233,0.9462076670588234,0.2597600000000284,-0.2391900000000006,0.3531106253003654,0.0245899999999892,0.5575549999999936,0.5580969863070327,0.2490500000000111,-0.222178999999997,0.3337505214093368,-0.0346199999999043,0.5976490000000041,0.5986508762216909,0.2808499999999867,-0.2423709999999985,0.3709722686953727,0.1434900000000425,0.5658260000000084,0.5837366207254961,0.2105499999998983,-0.279830000000004,0.3501944194300638,-0.1058500000001458,0.3303399999999925,0.3468843295682668,0.2565299999999979,-0.324939999999998,0.4139971551834597,0.2455499999999801,0.2342280000000016,0.3393487269520707,0.1826399999999921,-0.394124000000005,0.4343858848719662,-0.2617600000000948,-0.1748539999999963,0.3147891658174536,-0.0208299999999894,-0.3546699999999987,0.3552811531730871,-0.1572199999999384,-0.0826399999999978,0.1776161535446038,0.2972999999999501,-0.5264300000000048,0.6045790559554437,-0.2755500000000666,-0.7208900000000114,0.7717578600831048,-0.1584499999999593,-0.1194349999999957,0.19842157575472,-0.1838999999999373,0.1276450000000153,0.2238581158345188,0.1524600000000191,-0.8539889999999986,0.8674913623322156,-0.1802400000000261,-1.1121930000000049,1.126703034010746,-0.5478999999999701,0.4763859999999909,0.7260427198147218,1.5051500000000717,1.0063769999999863,1.8105996765241037,-0.0801999999999907,-0.4416550000000114,0.4488776882682059,-0.1030399999999645,-0.028550000000024,0.1069221403638837,-0.2309599999999818,-0.4437500000000085,0.5002565182983618,0.026640000000043,0.0627399999999909,0.0681615522123811,-0.1544999999999845,-0.4457199999999943,0.4717378174367518,0.2224400000000059,-0.0847499999999854,0.238038055991054,-0.6055599999999686,-0.4523599999999987,0.7558653869572021,0.6963400000000775,-0.0204499999999825,0.6966402214200004,0.0783500000000003,-0.5154699999999934,0.5213904903237048,-0.0423499999999421,-0.294399999999996,0.2974304666640469,-0.5777000000000498,-0.4772499999999979,0.7493362746458065,1.0604799999998704,-0.2305299999999874,1.085247396357033,-0.44270250000001,0.0170949999999834,110.516942,0.3770667923897921,71.47054920000001,0.3629558445233827,55.120938,0.8794076636904392,0.05379635,-0.012478786,0.0316727379947089,0,0
17,566.6666666666666,519.85376,53.30488,0.9722446,522.8222,50.544495,0.96049744,517.1077,50.67318,0.9299766,527.80524,52.79752,0.8509879,513.37866,53.234074,0.6517606,534.4943,70.27324,0.9965391,509.5286,70.80846,0.99674964,542.4326,91.11926,0.98390055,504.97665,90.884735,0.974373,542.27893,109.18699,0.97189593,500.89252,107.19701,0.956015,530.0992,109.373436,0.9969618,514.44916,109.38516,0.9970312,527.2838,138.10225,0.9900669,513.6245,137.91599,0.98812705,528.54736,165.25648,0.9673519,517.7489,164.92986,0.9626913,0.75202569,-0.13068337,0.72883002,0.13142031,158.66553943117069,178.71855987465253,171.7387263684869,169.663654488516,0.3878001972884917,109.379298,70.54085,53.30488,41.54007999999999,114.711985,0.3621250180430141,178.77186898708632,0.9498335594117648,0.4592299999999341,-0.8251400000000046,0.944324209421715,0.1994699999999056,-0.585950000000004,0.6189714722020451,0.36424999999997,-0.826660000000004,0.9033519901455824,0.1151999999999588,-0.6044810000000069,0.6153603166933979,0.3380500000000666,-0.7997049999999959,0.8682199545766259,0.0572000000000798,-0.5573339999999973,0.5602615706578545,0.101690000000076,-0.6570299999999989,0.6648528235632409,-0.1088599999998223,-0.3771999999999949,0.3925943703110851,0.0541999999999234,-0.6274980000000028,0.6298344068118185,-0.2023300000000745,-0.3025580000000047,0.3639763347582271,0.158399999999915,-0.3929359999999917,0.4236617283824049,-0.024240000000077,0.0011880000000132,0.0242690944207601,-0.2740000000000009,-0.3835800000000091,0.4713911501078563,-0.2531700000000114,-0.0289100000000104,0.2548152997761445,0.3446500000000014,-0.2216200000000014,0.4097548619601744,0.0473500000000512,0.3048100000000033,0.3084658143133642,-0.4791000000000167,-0.1335299999999932,0.4973601018377069,-0.3206500000000574,-0.0140949999999975,0.3209596415829204,0.4829699999999093,-0.5419450000000126,0.7259231391303945,0.3305099999998901,0.312043999999986,0.4545418770981598,-0.5496800000000235,-0.2586999999999904,0.6075144380177485,-0.0017800000000534,-0.7350859999999813,0.7350881551188079,0.0412000000000034,-0.5492739999999969,0.5508169996250996,0.1213999999999941,-0.1076189999999854,0.1622338101660546,-0.3209799999999632,-0.5572499999999962,0.6430829829034291,-0.0900199999999813,-0.1134999999999877,0.1448649384771686,-0.0748999999999568,-0.4162900000000036,0.4229744366980072,0.0796000000000276,0.0294299999999907,0.0848662765767643,-1.1749399999999923,-0.4115400000000022,1.2449293856279495,-0.5693800000000238,0.0408199999999965,0.5708413586978669,-0.5355899999999565,0.0642799999999965,0.5394335607838586,-0.6139399999999569,0.57974999999999,0.8444124502279294,-2.0675699999999324,0.1741399999999942,2.07489046566312,-1.4898699999998826,0.6513899999999921,1.6260447561489937,-0.5532619999999895,-0.1105594999999795,110.2699421,0.6221793326783114,71.2164592,0.487946880965221,54.542484,0.9434273416206848,0.1238053,0.013657888,0.0726796310965539,0,0
18,600.0,519.2923,52.7776,0.9738584,522.2253,50.029037,0.96248025,516.6259,50.262497,0.93578917,527.38,52.086708,0.85193825,513.4481,52.79399,0.67276525,534.3564,69.33501,0.9966714,509.80423,70.18193,0.9971974,542.4217,90.22701,0.98147154,504.9826,90.487816,0.9750768,542.6454,108.59172,0.9658553,500.3527,106.85409,0.9531085,529.91986,108.76844,0.9966145,514.39435,108.87924,0.9968996,528.1527,137.96793,0.98665583,513.1607,137.88454,0.9851798,528.33716,165.77473,0.95795554,515.49347,165.58804,0.95466,1.02585859,-0.04175972,1.0098484,0.17563649,159.58893688664728,177.56167302530122,176.15659578025603,172.75134004610743,0.1133686777901307,108.82384,69.75846999999999,52.7776,42.29269999999997,115.745693,0.3653932905702735,178.02438200181865,0.949657501764706,-0.561460000000011,-0.5272799999999975,0.7702347239640717,-1.020689999999945,0.2978600000000071,1.0632632109218734,-0.5969000000000051,-0.5154579999999953,0.7886612452529929,-0.9611499999999752,0.3112020000000086,1.0102752136442612,-0.4818000000000211,-0.4106829999999988,0.6330811689578354,-0.8198500000000877,0.3890219999999971,0.907464676438781,-0.4252400000000307,-0.7108119999999971,0.8283011269725654,-0.5269300000001067,-0.0537819999999982,0.529667564066474,0.0694399999999859,-0.4400839999999988,0.4455287203492015,0.0152400000000625,0.1874140000000039,0.1880326168408114,-0.137899999999945,-0.9382300000000044,0.9483100457656204,-0.2962999999998601,-0.5452940000000126,0.6205958720745175,0.2756300000000351,-0.6265300000000025,0.6844791726561317,0.549630000000036,-0.2429499999999933,0.6009308108260354,-0.0108999999999923,-0.89224999999999,0.8923165763897822,-0.3555499999999938,-0.6706299999999885,0.7590523034679364,0.0059499999999843,-0.3969190000000111,0.3969635941254671,0.4850500000000011,-0.2633890000000178,0.5519486097645419,0.3664700000000493,-0.5952699999999993,0.6990326414410384,-0.1164999999998599,-0.0533249999999867,0.1281241804850511,-0.5398199999999633,-0.3429200000000065,0.6395308896370565,0.0098600000000601,-0.0842200000000161,0.0847952121290106,-0.1793400000000247,-0.6049959999999999,0.6310174289320453,-0.2205400000000281,-0.0557220000000029,0.227470509921644,-0.0548099999999749,-0.5059200000000033,0.5088803223745251,0.2661699999999882,0.0513299999999929,0.2710742293173458,0.8688999999999396,-0.1343200000000024,0.8792207188186,0.9437999999998964,0.2819700000000011,0.9850205687699144,-0.463799999999992,-0.0314500000000066,0.4648650798887705,0.7111400000000003,0.3800899999999956,0.8063426738676287,-0.2101999999999861,0.5182499999999948,0.5592558470860978,0.3253899999999703,0.4539699999999982,0.5585404309447787,-2.2554300000000467,0.6581800000000158,2.34950322351348,-0.1878600000001142,0.4840400000000215,0.5192168152131283,-0.5554580000000158,-0.0021960000000262,109.8692041,0.7946352594470621,70.8162176,0.70392609437448,53.949533,0.932388233312692,0.0442161799999999,0.044461826,0.1031487098191685,0,0
19,633.3333333333333,519.104,52.51849,0.9741478,522.05646,49.734127,0.9626269,516.40955,49.988205,0.9366439,527.3336,51.725098,0.85044396,513.2309,52.49777,0.67429674,534.28253,68.94878,0.9967475,509.66965,69.95298,0.99731594,542.3125,89.74088,0.9817847,504.8526,90.529465,0.9761194,542.8787,107.76934,0.9666504,499.9768,106.99748,0.9549476,529.69226,109.04482,0.9969593,514.0885,109.19026,0.99724686,527.8379,138.93195,0.988345,512.40216,138.88614,0.98716205,528.0094,167.59818,0.96361107,514.2055,167.47025,0.96099037,1.04620407,0.04397053,1.03220214,0.16482809,160.6821267801838,176.6831131433957,176.10683219275205,173.13989134202782,0.1244687323427914,109.11754,69.45088,52.51849,42.90189999999996,117.864053,0.3639947765584234,177.66364081831517,0.9509434994117648,-0.1882999999999128,-0.2591099999999997,0.3203043585403843,0.3731600000000981,0.2681699999999978,0.459525336080691,-0.1688399999999319,-0.2949100000000015,0.3398217969759708,0.4280600000000731,0.2205479999999937,0.4815358594165754,-0.216350000000034,-0.2742920000000026,0.3493471393385327,0.2654499999999871,0.1363909999999961,0.2984396209972665,-0.0463999999999487,-0.3616099999999989,0.3645747551600281,0.378840000000082,0.3492019999999982,0.5152298345438285,-0.2171999999999343,-0.2962199999999981,0.3673174763062198,-0.2866399999999203,0.1438640000000006,0.3207169158244611,-0.0738700000000562,-0.3862299999999976,0.3932307081091283,0.0640299999998887,0.5520000000000067,0.5557012154926361,-0.1345800000000281,-0.2289499999999975,0.2655746202106038,-0.4102100000000632,0.3975800000000049,0.5712635998381621,-0.109199999999987,-0.4861300000000028,0.498243933129145,-0.0982999999999947,0.4061199999999871,0.4178472740128724,-0.1299999999999954,0.0416490000000067,0.1365087513714757,-0.1359499999999798,0.4385680000000178,0.4591560661953734,0.2332999999999856,-0.8223799999999954,0.8548320036123974,-0.1331700000000637,-0.2271099999999961,0.2632740036540167,-0.3759000000000014,0.1433899999999965,0.402320148762152,0.1639199999999618,0.4863100000000031,0.5131931239796481,-0.2275999999999385,0.2763800000000032,0.3580330493124535,-0.0482599999999138,0.881376000000003,0.8826962563509585,-0.3058500000000776,0.3110199999999992,0.4362082792658193,-0.2510400000001027,0.8169400000000024,0.8546414717295525,-0.3147999999999911,0.964020000000005,1.0141171531928663,-1.1836999999999307,1.0983400000000074,1.6147744256086831,-0.7585400000000391,1.0016000000000247,1.2564177217789108,-0.2947400000000471,1.033050000000031,1.0742736942232611,-0.327760000000012,1.823450000000008,1.8526728043829104,-0.1175600000000258,1.3052000000000137,1.3104836487343294,-1.287969999999973,1.8822099999999864,2.280697525977498,0.9674600000000736,1.2240299999999706,1.5602013628054778,0.2937000000000012,0.849158000000017,109.5257001,0.626084477488834,70.3965626,0.7791735557459747,53.42003999999999,0.8129850353788572,-0.0108083999999999,0.086663712,0.0999068108369811,0,0
20,666.6666666666666,519.3683,52.455154,0.9753519,522.2886,49.652645,0.96284235,516.5883,49.93273,0.9415001,527.44684,51.53118,0.8440337,513.22363,52.36759,0.6959884,534.0955,68.498665,0.99689436,509.71088,69.676796,0.9976599,542.15356,88.896034,0.98234826,504.8487,90.13385,0.9797743,543.2542,106.927795,0.9682294,499.85104,106.72429,0.9610247,529.7253,108.78665,0.99730194,514.2127,109.035,0.9976761,527.9278,138.90475,0.98961836,512.29346,138.97073,0.9890956,527.8637,167.88539,0.96733975,513.2626,167.94748,0.9662008,1.0429434,0.13142031,1.02507842,0.14026355,161.93625001697157,176.6055758253152,176.71126737482695,174.41610371908183,0.0955512075826014,108.910825,69.08773049999999,52.455154,43.40315999999996,118.294835,0.3669066331855767,177.23393334082792,0.9536988188235294,0.2642999999999347,-0.0633359999999996,0.2717828892626712,0.4525999999998475,0.1957740000000001,0.4931269806813069,0.2321399999999585,-0.0814820000000011,0.2460249904460539,0.4009799999998904,0.2134280000000004,0.4542427452188007,0.1787500000000363,-0.0554750000000012,0.187160460901904,0.3951000000000704,0.2188170000000013,0.4516468636989039,0.1132399999999052,-0.1939180000000036,0.2245606562245041,0.1596399999998539,0.1676919999999953,0.2315286946880489,-0.0072700000000622,-0.1301800000000028,0.1303828412790642,0.209929999999872,0.1660399999999953,0.2676562842526674,-0.187029999999936,-0.4501149999999967,0.4874256190691797,-0.1131599999998798,-0.063884999999999,0.1299479850746931,0.0412299999999845,-0.2761840000000006,0.2792445429296677,0.1758100000000126,-0.0472340000000031,0.1820445188848177,-0.1589400000000296,-0.844846000000004,0.8596666140522244,-0.0497400000000425,-0.3587160000000011,0.3621480860863482,-0.0038999999999873,-0.3956150000000065,0.3956342227677037,0.1261000000000081,-0.4372640000000132,0.4550835260652857,0.3754999999999882,-0.8415449999999964,0.921519526122472,0.1422000000000025,-0.0191650000000009,0.1434856690579263,-0.1257600000000138,-0.2731899999999996,0.3007463278246357,0.2501399999999876,-0.4165799999999962,0.4859103991478167,0.0330399999999144,-0.2581700000000069,0.2602756048883527,0.260639999999853,-0.5345500000000101,0.5947074172229014,0.1242000000000871,-0.1552599999999984,0.1988248163585751,0.4300500000001648,-0.4662799999999976,0.6343185642089781,0.0899000000000569,-0.0271999999999934,0.0939247038856651,0.404700000000048,-0.9912199999999984,1.0706536220459144,-0.1086999999999989,0.0845899999999915,0.1377358272200748,0.6498400000000402,-0.9170100000000332,1.1239214232766066,-0.1457000000000334,0.2872099999999875,0.3220529057468704,0.1820599999999785,-1.5362400000000207,1.5469903623487948,-0.9429000000000088,0.47723000000002,1.0567917878655355,0.3450699999999642,-1.4049799999999664,1.4467349810175605,-0.2067150000000026,-0.5004150000000038,109.2328126,0.4459054750265837,69.9534077,0.7643643342670439,53.0372288,0.6966236252217978,-0.02456454,0.12395269,0.0674504981408336,0,0
21,700.0,519.22253,52.53129,0.97530746,522.133,49.668297,0.9623487,516.3693,49.972267,0.9418509,527.3154,51.301292,0.83991194,512.9084,52.197792,0.69785786,533.8987,68.01593,0.9969068,509.5343,69.256836,0.99771786,542.1215,88.359406,0.9824569,504.62213,89.682526,0.9805016,543.5464,106.72553,0.96869576,499.58524,106.44908,0.9624396,529.54724,108.48273,0.99749583,514.0414,108.769066,0.9978682,527.96045,138.69014,0.99071515,512.2,138.80069,0.9903571,527.6182,167.94202,0.9711355,512.6387,168.07385,0.9703757,1.15995043,0.35446637,1.10073721,0.09064317,162.42781558061117,176.80131370526104,177.663360750266,175.63268559122173,0.1122318687202918,108.625898,68.636383,52.53129,43.96115999999995,118.405553,0.3712761649677341,177.0843814772197,0.95434958,-0.1457699999999704,0.0761359999999982,0.1644554146143905,-0.4100699999999051,0.1394719999999978,0.4331395198823602,-0.1555999999999358,0.0156520000000028,0.1563852458001716,-0.3877399999998943,0.097134000000004,0.3997215550303971,-0.2190000000000509,0.0395370000000028,0.2225402758356844,-0.3977500000000873,0.0950120000000041,0.4089405123536554,-0.1314399999999977,-0.2298880000000025,0.2648111896125248,-0.2446799999999029,-0.0359699999999989,0.2473098123810546,-0.3152299999999286,-0.1697980000000001,0.3580521103190917,-0.3079599999998663,-0.0396179999999972,0.3104979026079201,-0.1968000000000529,-0.4827350000000052,0.521309236658076,-0.0097700000001168,-0.0326200000000085,0.0340516857145551,-0.1765800000000013,-0.419959999999989,0.4555731532915336,-0.2178099999999858,-0.1437759999999883,0.2609841647993044,-0.0320600000000013,-0.5366279999999932,0.5375848342206027,0.1268800000000283,0.3082180000000107,0.333311970868155,-0.226569999999981,-0.4513239999999996,0.5050022949215093,-0.2226699999999937,-0.0557089999999931,0.2295330511734561,0.2921999999999798,-0.202264999999997,0.3553758154756553,-0.0833000000000083,0.6392799999999994,0.6446842703215278,-0.2658000000000129,-0.2752100000000013,0.3826097020463642,-0.140039999999999,-0.0020200000000016,0.1400545679369285,-0.1780599999999594,-0.3039199999999908,0.3522395917553562,-0.2110999999998739,-0.0457499999999839,0.2160006307859894,-0.1713000000000875,-0.2659340000000014,0.3163298632061645,-0.2955000000001746,-0.110674000000003,0.3155455343941724,0.0326499999999896,-0.2146099999999933,0.2170794200286993,-0.0572500000000673,-0.1874099999999998,0.1959593595621491,-0.0934599999999363,-0.1700400000000002,0.1940318870701106,0.0152400000000625,-0.2546299999999917,0.2550856611023004,-0.2454999999999927,0.0566300000000126,0.2519468334788073,-0.0997999999999592,-0.2305799999999749,0.2512512216885329,-0.6239000000000487,0.1263699999999801,0.6365693889122032,0.31899999999996,-0.3508600000000399,0.4741979961999022,-0.2849269999999819,-0.0782119999999793,108.9714802,0.2883368525146551,69.4948627,0.7190717526546091,52.71748279999999,0.3506179690334767,-0.0496203799999999,0.140558322,0.033145935127996,0,0
22,733.3333333333333,518.45374,52.35434,0.97452265,521.3464,49.46566,0.96228325,515.66034,49.809696,0.9384951,526.6924,51.013504,0.8446112,512.44025,52.03023,0.6825917,533.7189,67.750885,0.996912,509.245,69.16642,0.997598,542.32715,88.0254,0.9826105,504.47888,89.64145,0.9790252,543.81366,106.31009,0.96869856,499.43524,106.16022,0.96014583,529.53143,108.45044,0.99759954,513.94666,108.79133,0.9978998,528.0244,138.7076,0.99150366,511.9052,138.86769,0.9909271,527.76166,168.27567,0.9741545,512.2263,168.43135,0.97292554,0.96451912,0.27905322,0.90987071,0.15672179,161.64247693169062,176.12490865254057,177.65771512700277,175.49466991894687,0.366991671089855,108.620885,68.4586525,52.35434,44.378420000000006,118.96569,0.3730354493548901,176.6897828658648,0.9536767135294116,-0.7687899999999672,-0.1769499999999979,0.7888912260888372,-0.6230199999999968,-0.2530859999999961,0.6724629683454652,-0.7866000000000213,-0.2026370000000028,0.8122815483371727,-0.6310000000000855,-0.2182890000000057,0.6676908622417341,-0.7089599999999336,-0.1625709999999998,0.727360716316812,-0.4899599999998827,-0.2021080000000026,0.5300079671701984,-0.6229999999999336,-0.287787999999999,0.6862586487206677,-0.4915599999999358,-0.0578999999999965,0.494958224095667,-0.4681500000000369,-0.1675619999999966,0.4972337944508935,-0.1529200000001083,0.0022360000000034,0.1529363465499066,-0.1798000000000001,-0.2650450000000006,0.3202762745271656,0.0170000000000527,0.2176900000000046,0.218352779006826,-0.2892999999999688,-0.0904160000000047,0.3030998895677509,-0.1127199999999675,0.3295439999999843,0.3482887398926103,0.2056499999999914,-0.3340060000000022,0.3922396340708037,0.2377099999999927,0.2026219999999909,0.3123487137543436,-0.1432500000000232,-0.0410759999999896,0.1490228179709597,0.0833199999999578,0.4102480000000099,0.4186235109307659,0.2672600000000784,-0.4154400000000038,0.4939820859100511,-0.0249399999999013,-0.2131750000000067,0.214628945450044,-0.1499999999999772,-0.2888599999999997,0.3254844076142404,0.1158000000000356,-0.0136499999999983,0.1166017259735387,-0.0158099999999876,-0.0322900000000032,0.0359527495471461,0.1622499999999718,0.2716299999999876,0.3163983555582805,-0.0947400000000016,0.0222640000000069,0.0973208780067289,0.0765600000000858,0.2881980000000084,0.2981937638583644,0.063949999999977,0.0174599999999998,0.0662906788319222,0.0312999999999874,0.2320699999999931,0.2341712512243892,-0.2948000000000661,0.0670000000000072,0.3023177798278493,-0.2013400000001297,0.2370400000000074,0.3110076481375591,0.1434600000000045,0.3336499999999773,0.3631846556505192,0.3889599999999973,0.2770199999999647,0.477524828673838,-0.4123999999999341,0.3575000000000159,0.5457838491563827,0.2115000000001146,0.2311300000000358,0.3132943135456899,-0.0050130000000052,0.2799139999999767,108.8197976,0.2086361321922484,69.0784232,0.5433207162635694,52.5273748,0.1564159559800743,0.06607862,0.145618618,0.0333329173583489,0,0
23,766.6666666666667,517.641,52.140453,0.9712247,521.07117,49.460815,0.93204963,514.66,49.665092,0.9232167,527.36444,50.981384,0.80426854,511.65732,51.401867,0.7423346,533.67566,69.03071,0.9938041,508.8488,69.67945,0.9925748,543.56537,88.77537,0.9709189,502.23755,88.82914,0.9639937,544.07947,106.99847,0.9434626,498.6146,106.431435,0.93479896,528.547,109.89533,0.99450666,512.98804,109.91658,0.99396485,526.2375,141.31224,0.98398316,511.24365,141.7614,0.9833325,526.84143,169.93365,0.9442568,513.4392,171.155,0.94394046,0.86320066,0.18988392,0.82192964,0.18300585,155.0105837544656,172.58359671064025,174.586872559862,172.59282897324144,0.6990745508592493,109.905955,69.35508,52.140453,45.46487000000002,121.694185,0.3735993599562761,178.50316924990943,0.9421548035294118,-0.8127400000000762,-0.2138869999999997,0.8404129677540225,-0.0439500000001089,-0.0369370000000017,0.057410316747164,-0.275229999999965,-0.004845000000003,0.2752726410760444,0.5113700000000563,0.1977919999999997,0.5482891136654616,-1.000340000000051,-0.144604000000001,1.010737568519199,-0.2913800000001174,0.0179669999999987,0.2919334127657682,0.6720399999999245,-0.032119999999999,0.6728071462164313,1.295039999999858,0.255668,1.3200358812637,-0.7829299999999648,-0.6283630000000002,1.0039021091067322,-0.3147799999999279,-0.4608010000000035,0.5580537698116176,-0.0432399999999688,1.2798250000000024,1.280555242160604,0.1365600000000313,1.544870000000003,1.5508939198088367,-0.3962000000000216,0.5130300000000005,0.6482084702470476,-0.1069000000000528,0.6034460000000053,0.6128414843301795,1.2382200000000694,0.7499699999999905,1.4476338519460497,1.032570000000078,1.0839759999999927,1.49706538717457,-2.241330000000005,-0.8123100000000107,2.383989870993591,-2.0980799999999817,-0.7712340000000211,2.2353392514685453,0.2658099999999876,0.6883799999999951,0.7379173263313356,-0.0014500000000907,1.103819999999999,1.1038209523740694,-0.8206400000000258,0.271214999999998,0.8642960059059867,-0.6706400000000485,0.5600749999999977,0.8737516896836667,-0.9844299999999748,1.444890000000001,1.74837339747548,-0.9686199999999872,1.4771800000000042,1.7664329754621282,-0.9586199999999964,1.125249999999994,1.478221859837007,-0.8638799999999947,1.1029859999999871,1.4010234725356898,-1.7869000000000597,2.604639999999989,3.158664455050608,-1.8508500000000367,2.5871799999999894,3.1810605267583454,-0.661549999999977,2.8937099999999987,2.9683675592149905,-0.3667499999999108,2.8267099999999914,2.8504026007916647,-0.9202300000000604,1.6579800000000091,1.8962386277312624,-1.063690000000065,1.3243300000000318,1.6986130710082925,1.2128999999999903,2.723649999999992,2.981508969045697,1.6252999999999247,2.366149999999976,2.870586336012147,1.2850700000000046,1.29008300000001,109.0362206,0.529065951596928,68.9977452,0.4365547615307452,52.3999454,0.1610654943020345,0.0262840599999999,0.14709249,0.0351077074953834,0,0
24,800.0,517.4521,52.041832,0.9732554,520.4239,49.125107,0.96092016,514.7086,49.42129,0.934025,525.92395,50.78863,0.8447652,511.44196,51.72582,0.6625058,533.4617,67.92822,0.9968359,507.677,69.366295,0.9973711,542.0774,88.49256,0.9848023,502.71017,90.26981,0.97999567,543.93304,106.203766,0.97375023,498.71512,106.64137,0.96422076,528.90796,109.073906,0.997962,512.6982,109.436554,0.9981483,527.2751,140.0711,0.9940236,511.8057,140.2136,0.99336505,526.9556,170.70485,0.98049337,513.18164,170.76373,0.97890526,0.88637705,0.07050024,0.86098727,0.19848152,163.24928968026214,179.65249466995496,177.58213205442655,175.76016282455916,0.3300225172004442,109.25523,68.6472575,52.041832,45.21791999999999,121.638623,0.371739818431356,176.80778310510456,0.9538438294117648,-0.1888999999999896,-0.0986210000000014,0.2130946072546096,0.6238400000000865,0.1152659999999983,0.6343993981366215,-0.6472700000000486,-0.3357079999999968,0.7291490342612138,-0.3720400000000836,-0.3308629999999937,0.4978795902314716,0.0486000000000785,-0.2438020000000023,0.248598823818635,1.0489400000001297,-0.0991980000000012,1.053620124525093,-1.4404899999999543,-0.1927540000000007,1.4533291246706197,-2.112529999999879,-0.1606340000000017,2.1186283965942416,-0.2153600000000324,0.3239529999999959,0.3890057529253408,0.5675699999999324,0.9523159999999962,1.108621427158936,-0.2139600000000427,-1.102490000000003,1.123059696409779,-0.1707200000000739,-2.382315000000005,2.3884241829342314,-1.171799999999962,-0.3131550000000089,1.2129226249126184,-0.7755999999999403,-0.8261850000000095,1.1331976942373838,-1.4879700000000184,-0.2828099999999978,1.5146076115615072,-2.726190000000088,-1.0327799999999885,2.915260956501228,0.4726200000000062,1.4406700000000114,1.516212291633345,2.713950000000011,2.252980000000022,3.5272430427885406,-0.1464300000000093,-0.7947039999999959,0.8080817981590701,-0.412239999999997,-1.483083999999991,1.5393115242393174,0.1005200000000172,0.2099350000000015,0.2327594780562203,0.921160000000043,-0.0612799999999964,0.92319607018232,0.3609599999999773,-0.8214240000000075,0.897234367027922,1.345389999999952,-2.2663140000000084,2.635574586062005,-0.2898399999999128,-0.4800259999999952,0.5607425311815974,0.6687800000000834,-1.6052759999999893,1.7390163094623572,1.0375999999999976,-1.2411400000000017,1.6177274985608667,2.8245000000000573,-3.845779999999991,4.771564110268272,0.5620499999999993,-1.5477999999999952,1.646689115315937,1.2235999999999765,-4.441509999999994,4.6069738484280425,0.1141700000000582,0.7711999999999932,0.77960517500848,1.0344000000001188,-0.8867800000000159,1.362483808491049,-0.2575600000000122,-0.3912699999999915,0.4684328836663793,-1.4704600000000028,-3.114919999999984,3.444557913288715,-0.6507250000000084,-1.935795000000013,109.0637586,0.5378670118646114,68.8370207,0.371035340513443,52.30461379999999,0.2076777486255015,0.0154756699999999,0.153823176,0.0419224722826359,0,0
25,833.3333333333334,516.7018,51.34895,0.97446907,519.7943,48.373466,0.9637267,513.87616,48.69693,0.9358757,525.5125,50.30487,0.8543916,510.60602,51.32305,0.6593855,533.256,67.98428,0.99688524,506.95654,69.513535,0.9972932,541.8712,89.04199,0.9848743,501.9301,90.85859,0.97869337,543.90186,106.98266,0.973513,498.4271,107.29264,0.9620824,528.95795,109.30245,0.99780494,512.3991,109.70845,0.9979588,527.596,140.5902,0.9933322,511.88458,140.74667,0.99243873,527.07666,171.33556,0.9780612,513.4829,171.3591,0.97591645,0.91999255,0.06337652,0.90127312,0.17342568,164.20706921293768,178.78191295434027,178.47522501388676,176.06151197683874,0.8045265841605295,109.50545,68.7489075,51.34895,45.47476000000006,122.985634,0.3697566793064902,176.6721254046778,0.9539236705882352,-0.7502999999999247,-0.6928819999999973,1.0212911220234333,-0.5613999999999351,-0.5942609999999959,0.8175060220701266,-0.6295999999999822,-0.7516409999999993,0.9804898535329044,0.0176700000000664,-0.4159330000000025,0.4163081663731862,-0.8324400000000196,-0.7243599999999972,1.1034734990927642,-0.8810400000000982,-0.4805579999999949,1.0035773378091837,-0.4114499999999452,-0.4837599999999966,0.6350707362963213,1.029040000000009,-0.2910059999999959,1.0693960041238308,-0.8359399999999937,-0.4027699999999967,0.9279112869773634,-0.6205799999999613,-0.7267229999999927,0.9556389774014772,-0.2056999999999789,0.0560600000000022,0.2132022832898174,0.0082600000000638,1.1585500000000053,1.1585794448806752,-0.7204600000000028,0.1472400000000107,0.7353517724191648,0.4513399999999592,0.4603950000000196,0.6447257956875785,-0.206199999999967,0.549430000000001,0.5868490137164648,1.2817700000000514,0.8322399999999988,1.5282531696352306,-0.7800700000000234,0.5887799999999999,0.977328549311866,-1.2526900000000296,-0.8518900000000116,1.5149088448484591,-0.0311799999999493,0.778893999999994,0.7795178353546425,0.11525000000006,1.5735979999999898,1.57781279881486,-0.2880200000000172,0.6512700000000109,0.7121152528207946,-0.3885400000000345,0.4413350000000093,0.5879965253511581,0.0499899999999797,0.2285439999999994,0.233947344579924,-0.3109699999999975,1.049968000000007,1.0950502919610647,-0.2991000000000667,0.2718959999999981,0.4042131180652589,-0.0092600000001539,0.7519219999999933,0.7519790167843734,0.3209000000000515,0.5191000000000088,0.6102799521531427,-0.7166999999999462,1.7602400000000102,1.9005535371569933,0.0788800000000264,0.5330699999999808,0.5388744559728024,-0.4831699999999728,2.080869999999976,2.136228734428941,0.1210599999999431,0.6307099999999934,0.6422231914996359,0.0068899999998848,-0.1404899999999997,0.1406588504147476,0.3012599999999565,0.5953700000000026,0.6672503461969704,0.5588199999999688,0.9866399999999942,1.133904000345688,0.2502199999999988,0.9009450000000072,109.1826836,0.5608454596652949,68.76925609999999,0.3437358079878088,52.08337300000001,0.4523310949923218,-0.0250558399999999,0.160455602,0.0418641375813962,0,0
26,866.6666666666667,516.2033,50.963356,0.97526735,519.3318,47.96472,0.96485525,513.3042,48.30453,0.9380343,525.0759,50.066444,0.8563434,509.95178,51.13127,0.66495967,532.8866,68.01893,0.99693596,506.32123,69.67126,0.99732804,541.5573,89.29363,0.98494995,501.55057,91.35513,0.97873664,543.8065,107.20558,0.9735145,498.21237,107.6235,0.96201915,528.79987,109.35114,0.9977584,512.0485,109.835884,0.9979145,527.6739,140.91704,0.99303985,511.8238,141.15067,0.9921238,526.9991,171.84297,0.97691697,513.3287,171.952,0.97471625,0.91999255,0.06337652,0.90127312,0.17342568,164.98335340198298,179.18793260290582,179.2070839533678,176.79172983134885,1.1532842617583454,109.593512,68.845095,50.963356,45.59413000000001,123.98728,0.3677323160268351,176.44086517099885,0.954436116470588,-0.4985000000000354,-0.3855940000000046,0.6302261362685929,0.2517999999998892,0.3072879999999927,0.397277176469955,-0.4624999999999772,-0.4087460000000007,0.617235402837507,0.1671000000000049,0.3428949999999986,0.3814438242061348,-0.57195999999999,-0.3924000000000021,0.6936252602089908,0.2604800000000296,0.3319599999999951,0.4219564811683927,-0.4365999999999985,-0.238426000000004,0.497460066212355,-0.0251500000000532,0.2453339999999926,0.2466197357390504,-0.6542400000000157,-0.1917800000000014,0.6817694228989895,0.181699999999978,0.2109899999999953,0.2784450935103544,-0.3693999999999278,0.0346499999999991,0.3710215391320922,-0.1636999999999489,-0.021410000000003,0.1650941491997321,-0.635310000000004,0.1577249999999992,0.6545960370526275,0.0851499999999987,0.0104849999999885,0.0857931100089019,-0.3138999999999896,0.2516399999999947,0.4023131859633622,-0.1077000000000225,-0.2977900000000062,0.3166672924379917,-0.3795299999999884,0.496539999999996,0.6249759935389416,0.400540000000035,-0.0922400000000038,0.4110237331347531,-0.0953600000000278,0.222920000000002,0.2424600090736742,-0.0641800000000785,-0.555973999999992,0.5596661157118601,-0.2147299999999745,0.3308600000000012,0.3944328998701679,0.0732900000000427,-0.3204100000000096,0.3286852479196662,-0.1580799999999271,0.0486900000000076,0.1654085925820594,-0.2080699999999069,-0.1798539999999917,0.2750283371144841,-0.3505999999999858,0.1274339999999938,0.3730412636103256,-0.051499999999919,-0.1444620000000043,0.153367269793763,0.0778999999999996,0.3268399999999758,0.3359952315137584,-0.2430000000000518,-0.1922600000000329,0.3098594965464797,-0.0607800000000224,0.4039999999999963,0.4085464580681122,-0.1396600000000489,-0.1290699999999844,0.1901682952019333,-0.0775599999999485,0.5074100000000215,0.5133034791427131,-0.1986199999998916,-0.1232999999999719,0.2337793712027433,-0.1541999999999461,0.592899999999986,0.6126239058345395,-0.4554599999999027,-0.0024700000000166,0.4554666974652608,0.0880620000000078,-0.1621579999999909,109.3762064,0.4821060354809899,68.81099850000001,0.3361552323826433,51.7697862,0.5874816409294408,0.0,0.177012104,0.0152830177887723,0,0
27,900.0,515.79663,50.656628,0.9755148,518.9348,47.601223,0.9646418,512.81537,47.9942,0.93977654,524.6362,49.729492,0.85351914,509.34644,50.935665,0.675549,532.5331,67.86905,0.99690264,505.71606,69.75111,0.997375,541.2587,89.39546,0.9844471,501.295,91.70922,0.9791798,543.481,107.71172,0.9726379,498.14545,107.9183,0.9623743,528.7131,109.4005,0.99766845,511.803,110.02531,0.99786806,527.62463,140.98453,0.9925721,511.8331,141.35287,0.9917721,526.9033,171.74054,0.97521496,513.6457,172.02737,0.97328496,0.98668716,0.1643368,0.95605205,0.18030375,164.8529709859091,179.61219928493333,179.36973919877028,176.67329268570182,1.5873841975207448,109.712905,68.81008,50.656628,45.33555000000001,124.426147,0.3643570963878108,175.98547891100517,0.95472345,-0.4066699999999628,-0.3067279999999996,0.5093746704381457,0.0918300000000726,0.0788660000000049,0.1210479031458791,-0.3970000000000482,-0.3634970000000024,0.5382741578499195,0.065499999999929,0.0452489999999983,0.0796098109593946,-0.4888300000000072,-0.3103300000000004,0.5790159564295334,0.0831299999999828,0.0820700000000016,0.1168164449039492,-0.4397000000000162,-0.3369519999999966,0.5539609555772066,-0.0031000000000176,-0.0985259999999925,0.0985747567889398,-0.6053400000000124,-0.1956050000000004,0.6361586528728626,0.0489000000000032,-0.003824999999999,0.0490493692620028,-0.3535000000000536,-0.149879999999996,0.3839612798187296,0.0158999999998741,-0.1845299999999952,0.1852137438204687,-0.6051699999999869,0.0798499999999933,0.6104152286763356,0.0301400000000171,-0.0778750000000059,0.0835041030429161,-0.2986000000000786,0.1018300000000067,0.3154858299512805,0.015299999999911,-0.149809999999988,0.1505892628974379,-0.2555699999999774,0.3540899999999993,0.4366872484971229,0.1239600000000109,-0.1424499999999966,0.1888334824653767,-0.3255000000000336,0.506140000000002,0.6017706785811552,-0.2301400000000057,0.28322,0.364935594317686,-0.0669200000000387,0.294799999999995,0.302300060205092,0.1478099999999358,-0.0360600000000062,0.1521450613723018,-0.0867700000000013,0.0493599999999929,0.0998270629639054,0.0713099999999258,0.0006699999999852,0.0713131474553563,-0.2454999999999927,0.1894260000000116,0.3100846005141191,0.105099999999993,0.0619920000000178,0.1220205641029443,-0.0492699999999786,0.0674900000000207,0.0835609538002091,-0.1271699999999782,-0.2593499999999551,0.2888505347060503,0.009299999999996,0.2022000000000048,0.2024137594137361,0.0700800000000185,-0.2017999999999915,0.2136222048383528,-0.0958000000000538,-0.1024299999999982,0.1402481547116038,-0.0182400000001052,-0.6098400000000197,0.6101127135210573,0.3170000000000073,0.0753699999999923,0.3258368255737885,0.4711999999999534,-0.5175299999999936,0.6999048084560853,0.1193930000000023,0.0313309999999944,109.5946104,0.2418981767463761,68.88128400000001,0.2752972227465701,51.43024380000001,0.652210000663239,0.00687807,0.181728496,0.0102737390298046,0,0
28,933.3333333333334,515.3912,50.658638,0.9753804,518.5261,47.593643,0.964367,512.3888,47.978752,0.9397992,524.18164,49.67798,0.85223174,508.86722,50.86478,0.67718244,532.0987,67.8123,0.9968579,505.1594,69.70943,0.9973162,540.831,89.53675,0.98414445,501.01535,91.85495,0.9786754,543.2899,108.17742,0.97196275,497.9403,108.082016,0.96138805,528.3366,109.320724,0.9975702,511.38446,109.99331,0.99777055,527.5935,141.06215,0.99215466,512.03925,141.48782,0.9913216,526.67145,171.78271,0.9736353,513.8203,172.12485,0.97162306,0.94547408,0.25006706,0.89709715,0.16310857,165.61651124076442,179.86861802260464,179.62193506529547,177.8639584897359,1.7248369368436365,109.657017,68.760865,50.658638,45.34960000000001,124.531207,0.3641625318530597,175.9717443816129,0.9543165235294117,-0.4054300000000239,0.0020100000000056,0.4054349824571375,0.0012399999999388,0.3087380000000053,0.3087404901272315,-0.4086999999999534,-0.0075799999999972,0.40877028561279,-0.0116999999999052,0.3559170000000051,0.3561092541468157,-0.4265700000000834,-0.0154479999999992,0.4268496287969232,0.0622599999999238,0.2948820000000012,0.3013829814770423,-0.4545600000000149,-0.0515120000000024,0.4574694303929103,-0.0148599999999987,0.2854399999999941,0.28582654390381,-0.479219999999998,-0.0708849999999969,0.4844341974148787,0.1261200000000144,0.1247200000000035,0.1773734275476586,-0.4343999999999823,-0.056750000000008,0.4380912262303202,-0.0808999999999287,0.0931299999999879,0.1233612860665217,-0.5566600000000221,-0.0416799999999994,0.5582182171875302,0.0485099999999647,-0.1215299999999928,0.130853968224104,-0.4276999999999589,0.1412899999999979,0.4504332959495382,-0.1290999999998803,0.0394599999999911,0.1349959317904372,-0.2796500000000037,0.1457300000000003,0.3153432342702189,-0.0240800000000263,-0.208359999999999,0.209746837878431,-0.1911000000000058,0.4656999999999982,0.5033842468731025,0.1344000000000278,-0.0404400000000038,0.1403522482898218,-0.2051500000000032,0.1637159999999937,0.2624680002514579,-0.1382299999999645,-0.1310840000000013,0.1905007820351154,-0.3765000000000782,-0.0797759999999954,0.3848590133751036,-0.2897300000000768,-0.1291359999999883,0.3172058943273935,-0.4185400000000072,-0.0320000000000106,0.4197615175310938,-0.1730400000000145,-0.2214260000000223,0.2810201328659833,-0.0311300000000755,0.077619999999996,0.0836297871574721,0.018139999999903,0.0101299999999753,0.0207768260327698,0.2061500000000364,0.1349500000000034,0.2463926236720896,0.1968500000000403,-0.0672500000000013,0.2080203956346975,-0.2318499999998948,0.0421699999999987,0.2356538380760032,-0.136049999999841,0.1445999999999969,0.1985415888421261,0.1745999999999412,0.0974800000000186,0.1999687735622317,-0.142400000000066,0.0221100000000262,0.1441062528137484,-0.0558880000000101,-0.1752810000000124,109.5448228,0.1793209482035364,68.762441,0.075090006172463,51.1338808,0.5816645949008202,-0.01719518,0.17774904,0.0131157206753442,0,0
29,966.6666666666666,514.45654,50.387684,0.9751094,517.51636,47.303886,0.9637469,511.42917,47.740265,0.939269,523.0944,49.414,0.8503868,507.89056,50.726017,0.6784402,531.36926,67.74542,0.9968369,504.08832,69.814224,0.9972473,540.4285,89.83374,0.9838576,500.34842,92.272766,0.9779454,543.01855,109.06558,0.97113323,497.73117,108.38307,0.9599283,527.87964,109.46391,0.9974821,510.74002,110.26297,0.9976713,527.5862,141.5304,0.99170846,512.1128,142.09503,0.9908242,526.5067,172.536,0.9719063,514.20044,173.04657,0.9697705,0.91512382,0.23655656,0.86761969,0.16949535,165.3698096385159,179.7731076256893,178.5302748880368,178.61070895760628,2.2038888496226017,109.86344,68.779822,50.387684,45.28737999999999,125.742684,0.3601591615448643,175.66337150921473,0.9537214052941176,-0.934660000000008,-0.2709540000000032,0.9731420172390136,-0.5292299999999841,-0.2729640000000088,0.5954777394630197,-1.009740000000079,-0.2897570000000016,1.0504922592047787,-0.6010400000001255,-0.2821770000000043,0.6639826360147931,-0.9596299999999474,-0.2384869999999992,0.9888204013211392,-0.533059999999864,-0.223039,0.5778402539810246,-1.0872400000000653,-0.2639799999999965,1.1188280734769485,-0.6326800000000503,-0.2124679999999941,0.6674029018696737,-0.9766599999999812,-0.1387630000000044,0.9864684109331452,-0.4974399999999832,-0.0678780000000074,0.5020497749068157,-0.7294399999999541,-0.0668799999999976,0.7324995890783371,-0.2950399999999717,-0.0101299999999895,0.2952138521478678,-1.071079999999995,0.1047939999999982,1.0761942895388308,-0.5144199999999728,0.1464739999999977,0.534866870422885,-0.4025000000000318,0.2969900000000081,0.500209266307643,0.025199999999927,0.1557000000000101,0.1577261233911475,-0.6669300000000362,0.4178160000000019,0.7869979890419352,-0.3872800000000325,0.2720860000000016,0.4733039084943478,-0.271349999999984,0.8881599999999992,0.928686711491012,-0.0802499999999781,0.4224600000000009,0.4300145510328659,-0.2091299999999591,0.3010540000000077,0.366563593140382,-0.0039799999999559,0.1373380000000139,0.1373956572967409,-0.4569599999999809,0.143186,0.4788681156602333,-0.0804599999999027,0.2229619999999954,0.2370355775911757,-0.6444399999999746,0.2696600000000018,0.6985838741339283,-0.2258999999999673,0.3016600000000125,0.3768681010645406,-0.0072999999999865,0.4682499999999834,0.4683068999064441,0.023830000000089,0.3906299999999874,0.3913561878902573,0.0735499999999547,0.6072100000000091,0.6116482539826338,-0.1326000000000817,0.4722600000000057,0.4905224435232572,-0.1647500000000263,0.7532899999999927,0.7710955755287393,0.0670999999998684,0.711119999999994,0.71427870218842,0.380139999999983,0.9217199999999934,0.9970326865253591,0.2055400000000418,0.8242399999999748,0.8494811764836084,0.2064230000000009,0.262311000000011,109.6664648,0.1344368433154573,68.7889539,0.0389686645415702,50.8030512,0.366922323323519,0.0063867799999999,0.1719518059999999,0.0062915931358148,0,0
30,1000.0,513.94653,49.95261,0.96968013,516.8593,46.958023,0.9539783,511.1649,47.332603,0.92272824,522.3551,48.984272,0.8256815,508.10403,50.04324,0.62161607,531.2504,67.43442,0.9956096,503.92426,69.196075,0.99578685,540.67755,90.64441,0.97695947,500.03397,92.10077,0.9675597,544.54535,111.96661,0.9580151,496.5634,109.412575,0.9428898,527.83746,110.199486,0.99589074,510.9633,110.9484,0.99610424,526.90485,142.2821,0.9859805,511.80328,142.90329,0.9842799,526.20135,172.93187,0.9535943,514.27606,173.43109,0.9490052,0.94485343,0.19799022,0.89562327,0.22673074,168.17612397678414,178.30345734531727,179.64979882513154,176.87485299689249,2.456719932326403,110.573943,68.3152475,49.95261,47.98194999999998,126.473067,0.3793847240267784,176.3113739497019,0.9409035082352942,-0.5100099999999657,-0.4350740000000002,0.6703727213841306,0.4246500000000424,-0.1641199999999969,0.4552614599326798,-0.6570600000000013,-0.3458630000000013,0.7425288266249349,0.3526800000000776,-0.0561059999999997,0.3571149193691783,-0.2642700000000104,-0.4076620000000019,0.4858260379436317,0.6953599999999369,-0.1691750000000027,0.7156435636718276,-0.7392999999999574,-0.4297280000000043,0.8551202511833882,0.3479400000001078,-0.1657480000000077,0.3854019241053132,0.2134700000000293,-0.6827770000000015,0.7153697453967526,1.1901300000000106,-0.5440139999999971,1.308571988503507,-0.1188600000000406,-0.3109999999999928,0.3329394833900077,0.6105799999999135,-0.2441199999999952,0.6575731980547048,-0.1640600000000063,-0.6181490000000025,0.6395497398959719,0.9070199999999886,-0.7229430000000008,1.1598844173662222,0.2490500000000111,0.8106699999999876,0.8480635302853115,0.6515500000000429,0.5136799999999795,0.8296894267736783,-0.3144499999999652,-0.1719960000000071,0.358415159439414,0.3524800000000709,-0.5898120000000091,0.6871101409119653,1.5267999999999802,2.9010300000000058,3.2782759647259674,1.7981499999999642,2.0128700000000066,2.699071888520181,-1.1677700000000186,1.0295050000000003,1.5567810757858809,-0.9586400000000594,0.7284509999999926,1.2040064405978497,-0.0421800000000303,0.7355759999999947,0.7367843674888839,0.4147799999999506,0.5923899999999946,0.7231655139039421,0.2232799999999883,0.6854300000000109,0.7208801865081393,0.867719999999963,0.4157700000000091,0.9621864119285533,-0.6813499999999522,0.751700000000028,1.0145396554595472,-0.6740499999999656,0.2834500000000446,0.731223156772253,-0.3095200000000204,0.80825999999999,0.8654980404368322,-0.3830699999999751,0.2010499999999808,0.4326242334867214,-0.3053499999999758,0.3958700000000021,0.4999516770648808,-0.1405999999999494,-0.3574199999999905,0.384079960945607,0.0756200000000717,0.3845200000000091,0.3918852061510077,-0.3045199999999113,-0.5371999999999844,0.6175081136308488,0.7105030000000028,0.5040800000000019,109.8801634,0.4004836197676995,68.7022219,0.2186641645267004,50.5237832,0.3787544128813849,0.05723539,0.182612818,0.0254391921944972,0,0
31,1033.3333333333337,512.87036,49.86004,0.9706693,515.86975,46.870758,0.9580247,510.17148,47.229378,0.9194814,521.6297,48.907185,0.84457326,507.35388,49.942665,0.5916142,530.5036,67.28212,0.9959929,503.378,69.06654,0.9956293,540.0803,90.42529,0.98031384,499.36127,91.99895,0.9651901,544.50354,112.43053,0.96343416,496.4871,109.9445,0.94085705,527.276,110.192,0.9961383,510.55566,110.95225,0.99607074,526.3062,142.39183,0.9867758,511.64502,143.02528,0.9839468,525.85516,173.42282,0.955375,514.4791,173.88281,0.9480605,0.94485343,0.19799022,0.89562327,0.22673074,168.88559015053167,179.1643679935279,179.10761764094778,176.69774794744706,2.667128448416138,110.572125,68.17433,49.86004,48.016440000000046,127.012052,0.3780463260443483,176.23629942334065,0.94071455,-1.0761700000000474,-0.092570000000002,1.0801440060473892,-0.5661600000000817,0.3425039999999981,0.6616994299650645,-0.9895500000000084,-0.087264999999995,0.9933903476101504,-0.332490000000007,0.2585980000000063,0.4212155335502336,-0.9934200000000146,-0.1032250000000019,0.998768590327624,-0.7291500000000042,0.304437,0.7901529025884839,-0.725400000000036,-0.0770869999999988,0.7294844519035701,0.0138999999999214,0.3526410000000055,0.3529148408341617,-0.7501500000000192,-0.1005749999999991,0.7568621757790704,-0.9636200000000484,0.5822020000000023,1.125843094398192,-0.7468000000000075,-0.1522999999999967,0.7621715882923019,-0.6279399999999669,0.158699999999996,0.6476838222465937,-0.546260000000018,-0.1295349999999899,0.5614083218344889,-0.3822000000000116,0.4886140000000125,0.6203390048965333,-0.5972500000000309,-0.2191199999999895,0.6361769697969523,-0.846300000000042,-1.0297899999999771,1.332925779666679,-0.6727000000000203,-0.1018200000000035,0.6803621112319733,-0.358250000000055,0.0701760000000035,0.3650585343147588,-0.0418099999999412,0.4639200000000016,0.4658002173679147,-1.5686099999999217,-2.437110000000004,2.8982826784493905,-0.0763000000000033,0.5319250000000011,0.5373694219296458,1.0914700000000153,-0.4975799999999992,1.1995385017997684,-0.561460000000011,-0.0074860000000001,0.5615099035600462,-0.5192799999999806,-0.7430619999999948,0.9065279114533497,-0.4076400000000149,0.0038499999999999,0.4076581804649726,-0.6309200000000033,-0.681580000000011,0.9287687240642952,-0.5986500000000206,0.1097299999999847,0.6086234430253417,0.0826999999999316,-0.6419700000000432,0.6472748804797265,-0.1582599999999843,0.1219900000000109,0.1998193876979851,0.1512600000000361,-0.6862699999999791,0.7027418448477237,-0.3461900000000923,0.490949999999998,0.6007324018230263,-0.0408400000001165,0.0950799999999958,0.1034800077310044,0.2030399999999872,0.4517199999999945,0.4952536723740571,0.1274199999999155,0.0671999999999855,0.1440544910788154,-0.001818,-0.7123210000000029,110.075886,0.4600689265772614,68.56806889999999,0.2998032962334128,50.30312,0.3800293314284026,0.0,0.19327383,0.0311540994520809,0,0
32,1066.6666666666667,511.67007,49.400543,0.97263914,514.886,46.406887,0.9641004,508.86093,46.6425,0.92723995,520.693,48.73027,0.85370487,505.7565,49.498062,0.6052934,529.36835,67.617584,0.9956903,501.83902,69.13224,0.99516714,539.7442,90.28218,0.97962964,498.24533,92.64921,0.9575174,542.0742,110.37088,0.96422696,495.26794,110.642365,0.9312865,525.66394,110.07007,0.99608374,508.67804,110.556885,0.9957481,525.7172,143.83272,0.98767173,511.32486,144.04498,0.9840096,525.90454,175.89616,0.9604225,515.9378,175.88445,0.9528093,1.00317775,0.29231807,0.9427872,0.17907553,162.01762114447152,179.29250255580445,179.75560713041853,176.27540830793734,2.1402668895652037,110.3134775,68.374912,49.400543,46.80626000000001,129.48927300000005,0.3614682402188771,176.8507774953445,0.9425435688235294,-1.2002899999999954,-0.4594969999999989,1.2852367786166827,-0.124119999999948,-0.3669269999999969,0.3873515170087563,-0.9837499999999864,-0.4638710000000046,1.0876306207260706,0.005800000000022,-0.3766060000000095,0.376650659412681,-1.310549999999978,-0.5868779999999987,1.4359551139864857,-0.3171299999999633,-0.4836529999999968,0.5783525406782385,-0.9366999999999734,-0.176915000000001,0.9532606187318086,-0.2112999999999374,-0.0998280000000022,0.2336949284515477,-1.597379999999987,-0.4446030000000007,1.658099723179809,-0.8472299999999677,-0.3440280000000015,0.9144145327388156,-1.1352500000000418,0.3354639999999875,1.1837772838655447,-0.3884500000000344,0.4877639999999843,0.6235440018122309,-1.538979999999981,0.0656999999999925,1.540381748268896,-0.992719999999963,0.1952349999999825,1.01173598513887,-0.3360999999999876,-0.1431100000000071,0.365299441691325,0.2611500000000433,0.0760099999999823,0.2719868426965171,-1.1159399999999664,0.650260000000003,1.2915727432862345,-0.4432399999999461,0.7520800000000065,0.8729753856781771,-2.4293400000000247,-2.059650000000005,3.184941280165168,-2.3875300000000834,-2.5235700000000065,3.474004180452354,-1.219159999999988,0.6978649999999931,1.4047656971270908,-1.1428599999999849,0.1659399999999919,1.1548441726916936,-1.6120599999999286,-0.1219299999999918,1.6166645813216072,-1.0505999999999176,-0.1144439999999917,1.056814926624253,-1.877619999999979,-0.3953650000000124,1.9187939825903488,-1.469979999999964,-0.3992150000000123,1.5232248083014222,-0.5889999999999418,1.440889999999996,1.556626156821194,0.0096500000000787,1.3311600000000112,1.3311949774920395,-0.3201599999999871,1.0197000000000005,1.0687799191601572,-0.1619000000000028,0.8977099999999893,0.9121923339405904,0.0493800000000419,2.4733400000000074,2.473832884412373,0.3955700000001343,1.9823900000000092,2.0214711813429704,1.4587000000000216,2.0016399999999805,2.4767657094686983,1.2556600000000344,1.549919999999986,1.994726558202914,-0.258647499999995,-0.2568294999999949,110.1960005,0.4180941035723464,68.4810353,0.2740410751964502,50.051903,0.4878054428775018,-0.0476552099999999,0.193028186,0.0312864934655935,0,0
33,1100.0,510.78452,49.32567,0.9735648,514.01654,46.290047,0.9649827,507.90088,46.53022,0.9299642,519.7546,48.417583,0.85514605,504.55017,49.18633,0.61344725,528.14905,67.02236,0.9959615,500.59595,68.56679,0.9955782,538.337,89.616516,0.9810832,496.649,92.04529,0.96157354,540.6614,109.63093,0.9667478,494.0208,110.246925,0.9372013,524.8925,109.85544,0.9964611,507.8047,110.407135,0.9962037,525.2116,143.61548,0.9886875,510.35965,143.8741,0.9854199,525.6693,175.51428,0.96294767,514.866,175.54068,0.955938,1.0069026,0.32154988,0.94303284,0.1454221,162.35331336889487,178.67363495433668,179.71948068529878,176.26646769538937,2.6724158208923834,110.1312875,67.79457500000001,49.32567,46.64059999999995,129.250633,0.3608539359273081,176.7917650090438,0.944759318235294,-0.8855500000000234,-0.0748729999999966,0.888709608718754,0.314739999999972,0.3846240000000023,0.4969878157218587,-0.8694600000000037,-0.1168399999999962,0.8772754853522384,0.1142899999999826,0.3470310000000083,0.3653665543820367,-0.9600500000000238,-0.1122799999999983,0.9665933999878364,0.350499999999954,0.4745980000000003,0.5899945013336718,-0.9384000000000016,-0.3126869999999968,0.9891247241723364,-0.001700000000028,-0.1357719999999957,0.1357826424253076,-1.2063300000000368,-0.3117319999999992,1.2459570252316443,0.3910499999999501,0.1328710000000015,0.413007027955895,-1.2192999999999756,-0.5952239999999875,1.3568286922732455,-0.0840499999999337,-0.9306879999999752,0.9344755512285714,-1.2430699999999888,-0.5654499999999985,1.365634185058345,0.2959099999999921,-0.631149999999991,0.6970746377540815,-1.407199999999989,-0.6656639999999925,1.5567017700561527,-1.0711000000000013,-0.5225539999999853,1.1917709062214883,-1.5963300000000231,-0.6039200000000022,1.7067480292357382,-0.4803900000000567,-1.2541800000000052,1.3430346326510227,-1.4128000000000611,-0.7399499999999932,1.5948447706595656,1.0165399999999636,1.3197000000000116,1.6658216175809333,-1.2471400000000017,-0.3954399999999936,1.308331369798951,-0.0279800000000136,-1.0933049999999866,1.0936629752464748,-0.7714399999999841,-0.2146299999999996,0.8007407261404751,0.8406199999999444,-0.0927000000000077,0.8457158354908036,-0.8733399999999847,-0.1497499999999973,0.8860856719866158,1.0042799999999945,0.245615000000015,1.0338786421166637,-0.5056000000000722,-0.2172400000000038,0.5502949914364792,0.0833999999998695,-1.65813,1.660226086079838,-0.9652100000000132,-0.170880000000011,0.9802195256676074,-0.6450500000000261,-1.1905800000000113,1.3540938811249612,-0.2352399999999761,-0.3818799999999953,0.4485200017836275,-0.2846200000000181,-2.8552200000000028,2.8693709751093577,-1.071800000000053,-0.3437699999999779,1.1255812067106037,-2.5305000000000746,-2.3454099999999585,3.4502722092756946,-0.1821900000000056,0.0764574999999894,110.2908546,0.3032774206195469,68.28777729999999,0.3558700090037698,49.7853094,0.434667364965108,-0.03365343,0.189490892,0.0361385267129495,0,0
34,1133.3333333333333,509.71198,48.34277,0.97422826,512.8649,45.314358,0.96685,506.83215,45.621975,0.9290356,518.4806,47.608875,0.86658335,503.42743,48.538765,0.6037757,526.8647,66.514404,0.99643564,499.49203,68.24814,0.99577016,537.1434,89.01842,0.9837981,495.15897,91.54683,0.9620248,540.0614,109.52156,0.9707563,492.38586,109.73859,0.9385112,524.13385,109.67376,0.9969681,507.13998,110.36775,0.99659723,524.6018,143.38773,0.9903268,509.7314,143.80698,0.9868384,525.7557,175.18845,0.96785194,514.6217,175.3933,0.9601155,1.01501626,0.36159009,0.93050493,0.18349714,163.55138963353625,178.13188066668565,178.71712688177666,175.63050997908857,3.299986943961952,110.020755,67.381272,48.34277,47.67554000000007,130.078942,0.3665123570384491,176.37582894299257,0.9462627694117646,-1.0725400000000036,-0.9829000000000008,1.4547970516879698,-0.1869899999999802,-0.908027000000004,0.9270805212218624,-1.1516399999999294,-0.9756890000000028,1.509385210713568,-0.2821799999999257,-0.8588490000000064,0.9040172328008848,-1.0687299999999595,-0.9082450000000007,1.4025308527533058,-0.1086799999999357,-0.7959650000000025,0.8033502496576385,-1.274000000000001,-0.8087080000000029,1.5090012025389532,-0.3355999999999994,-0.496021000000006,0.5988857924855169,-1.1227399999999648,-0.6475650000000002,1.296103983801038,0.083590000000072,-0.3358330000000009,0.3460796035437695,-1.2843500000000176,-0.5079560000000072,1.3811496010338826,-0.065050000000042,0.0872679999999803,0.1088448727501761,-1.1039200000000164,-0.318649999999991,1.1489896382909772,0.1391499999999723,0.2468000000000074,0.2833248356568763,-1.1935999999999467,-0.5980959999999982,1.3350654610227437,0.2136000000000422,0.0675679999999943,0.2240321285530654,-1.4900299999999902,-0.4984599999999943,1.5711943776948685,0.1063000000000329,0.1054600000000078,0.1497381100455347,-0.599999999999909,-0.1093700000000126,0.6098867082498959,0.8128000000001521,0.6305799999999806,1.0287249274710042,-1.6349400000000287,-0.5083350000000024,1.7121428900138844,-0.387800000000027,-0.1128950000000088,0.4038986519227601,-0.7586499999999887,-0.18168,0.7801009196892302,0.0127899999999954,0.0329499999999995,0.0353452486198619,-0.6647200000000453,-0.0393849999999957,0.6658857684506103,0.2086199999999394,0.1103650000000016,0.236014274197505,-0.6097999999999502,-0.2277499999999861,0.6509424724965586,-0.1041999999998779,-0.0105099999999822,0.1047286975951395,-0.62824999999998,-0.0671199999999885,0.6318252582003772,0.3369600000000332,0.1037600000000225,0.3525736507455245,0.086400000000026,-0.3258300000000247,0.337090713161933,0.3216400000000021,0.0560499999999706,0.3264872005148105,-0.2442999999999529,-0.1473799999999983,0.2853127308760976,0.8275000000001,0.1963899999999796,0.8504853215077598,-0.1105324999999908,0.0716575000000148,110.3223176,0.2516096814575023,68.0080673,0.4168420878652712,49.376326600000006,0.6398189159853805,0.03807504,0.19229125,0.0347162274392437,0,0
35,1166.6666666666667,508.55258,48.160328,0.9754695,511.7985,45.137985,0.9689369,505.75665,45.439907,0.93176526,517.6665,47.31682,0.8734153,502.51062,48.260494,0.6044351,525.89636,65.98012,0.99666554,498.51047,67.731186,0.9960814,535.8912,88.12607,0.9851811,493.31854,90.58249,0.96527416,539.3115,108.71073,0.97319084,490.7219,109.06718,0.94345254,523.1468,109.35244,0.99719787,506.15033,110.06752,0.9968712,524.26074,143.19768,0.990802,509.17282,143.61,0.9874955,525.6546,175.07988,0.9687284,514.21686,175.23886,0.96116984,1.07558368,0.51069687,0.92706589,0.1913578,165.14348882083658,175.19573419576116,179.38175255770014,176.08798311700804,3.265622264030508,109.70998,66.85565299999999,48.160328,48.58960000000002,130.10087499999997,0.373476347691925,176.3414627540465,0.9480077911764704,-1.159400000000005,-0.1824420000000017,1.1736666662063862,-0.0868600000000014,0.800457999999999,0.805156922198399,-1.0664000000000442,-0.1763729999999981,1.0808868558406537,0.0852399999998851,0.7993160000000046,0.8038481980175036,-1.0755000000000337,-0.182068000000001,1.0908020015676871,-0.0067700000000741,0.7261769999999999,0.7262085569786415,-0.8140999999999394,-0.2920549999999977,0.8649016898034713,0.4599000000000615,0.5166530000000051,0.691692368332239,-0.916809999999998,-0.2782709999999966,0.9581102888190872,0.2059299999999666,0.3692940000000035,0.4228300170706768,-0.968340000000012,-0.5342839999999995,1.1059573898916824,0.3160100000000057,-0.0263279999999923,0.3171048465161061,-0.9815600000000018,-0.5169540000000126,1.1093698534375342,0.1223600000000146,-0.1983040000000215,0.2330159780272849,-1.2522000000000162,-0.8923500000000075,1.537625885090406,-0.0586000000000694,-0.2942540000000093,0.3000322924553516,-1.8404300000000264,-0.9643399999999928,2.0777714553097706,-0.350400000000036,-0.4658799999999985,0.5829445380137152,-0.7499000000000251,-0.8108299999999957,1.1044434339974278,-0.149900000000116,-0.7014599999999831,0.7172978053779414,-1.6639599999999746,-0.6714100000000087,1.7943116423018404,-0.0290199999999458,-0.1630750000000063,0.1656370007727709,-0.9870500000000676,-0.32132,1.0380338361056125,-0.2284000000000787,-0.13964,0.2677048553912237,-0.9896499999999832,-0.3002299999999991,1.034188172142752,-0.324929999999938,-0.2608450000000033,0.4166768759182125,-0.3410599999999704,-0.1900500000000136,0.3904368400906668,0.2687399999999798,0.0376999999999725,0.2713714752880027,-0.5585800000000063,-0.1969799999999963,0.5922944679802484,0.0696699999999737,-0.1298600000000078,0.1473686822225074,-0.1011000000000876,-0.108569999999986,0.1483531425350157,-0.1875000000001137,0.2172600000000386,0.2869811101798504,-0.4048400000000356,-0.1544400000000223,0.4332979796860767,-0.1605400000000827,-0.007060000000024,0.1606951623417049,-0.3107750000000067,-0.2002425000000158,110.149525,0.3223295319185572,67.7161484,0.6129121322730697,49.0178702,0.7317048697378655,0.0078606599999999,0.185216662,0.0290921366998321,0,0
36,1200.0,507.26874,47.727158,0.9737812,510.45273,44.660877,0.96749264,504.493,45.031815,0.92733395,516.3694,46.713177,0.87254703,501.34512,47.82526,0.5933877,525.22253,65.342064,0.9964682,496.96588,67.58881,0.99567527,535.1531,87.37015,0.98407793,491.34216,91.27288,0.9608377,538.3184,107.94476,0.9707766,489.18286,110.93842,0.9363669,523.14124,109.05422,0.9970392,505.58926,110.020134,0.99661463,524.38116,142.88376,0.990612,508.6571,143.52756,0.98695534,524.93604,174.89804,0.9688288,513.39264,175.27052,0.96066725,2.03731108,0.53280496,1.9499335,0.25399738,164.47957560549517,172.90867973946936,178.89389870008657,176.74621249488663,4.342957988106689,109.537177,66.465437,47.727158,49.13553999999999,130.609643,0.3762014694718867,175.4538558089667,0.9458507258823527,-1.283839999999998,-0.4331699999999969,1.354947008004369,-0.1244399999999927,-0.2507279999999952,0.2799104206420257,-1.345770000000016,-0.4771080000000012,1.4278406551727136,-0.2793699999999717,-0.3007350000000031,0.4104742831469299,-1.2636499999999842,-0.4080919999999963,1.3279120463961298,-0.1881499999999505,-0.2260239999999953,0.2940871827808538,-1.2971000000000004,-0.6036429999999982,1.4306828025278695,-0.4830000000000609,-0.3115880000000004,0.5747835085874151,-1.1655000000000086,-0.4352340000000012,1.244113694465269,-0.2486900000000105,-0.1569630000000046,0.2940817904410381,-0.6738299999999526,-0.638056000000006,0.9279883232217654,0.2945100000000593,-0.1037720000000064,0.3122575348715164,-1.544589999999971,-0.1423759999999987,1.5511380317289338,-0.5630299999999693,0.3745780000000138,0.6762480750316231,-0.7381000000000313,-0.7559200000000033,1.056506817961934,0.5140999999999849,0.1364300000000042,0.5318946840305754,-1.976380000000006,0.6903899999999936,2.0934937918465426,-0.1359499999999798,1.6547299999999865,1.6603053259566296,-0.9931000000000269,-0.7659699999999958,1.2541760844873604,-0.2432000000000016,0.0448599999999999,0.2473027690908469,-1.53904,1.87124,2.422846107205326,0.1249199999999746,2.542650000000009,2.5457168006084334,-0.0055599999999458,-0.2982200000000006,0.2982718256892523,0.9814900000001217,0.0230999999999994,0.981761799063418,-0.5610699999999724,-0.047386000000003,0.5630674718858916,0.4285800000000108,0.252843999999996,0.4976051695229937,0.1204199999999673,-0.313919999999996,0.3362242448128772,0.4614799999999377,-0.1238699999999823,0.4778154113252712,-0.5157199999999875,-0.0824400000000196,0.5222676248821004,0.0428600000000187,0.1145399999999767,0.1222963253740531,-0.7185599999999113,-0.181839999999994,0.741211345838601,-0.6174599999998236,-0.0732700000000079,0.621792042808352,-0.8242199999999684,0.0316600000000164,0.8248278390063887,-0.4193799999999328,0.1861000000000388,0.458816732911909,-0.1728030000000018,0.1379720000000048,109.9425354,0.3153336126828678,67.3743698,0.7538120949500414,48.5912938,0.7396652877491993,0.06263958,0.19066999,0.0395097590351877,0,0
37,1233.3333333333337,506.5833,47.145145,0.9736298,509.62375,44.02292,0.96383214,503.59015,44.487705,0.9344042,515.12585,46.176018,0.84840804,499.99576,47.49266,0.6448656,524.2259,65.00814,0.9960913,495.4053,67.64682,0.99606556,534.53546,87.30837,0.98042494,490.20465,91.79761,0.9659285,537.30634,108.09579,0.9649347,487.90408,111.29734,0.9414491,523.15125,108.429054,0.996819,505.1695,109.684875,0.99674726,524.6509,142.44704,0.989876,508.40854,143.38646,0.98756915,525.1323,174.5717,0.96708775,513.10364,175.37299,0.9620247,1.14282372,-0.03291649,1.14225129,0.01498437,162.78109430901767,174.57608539007364,178.33433786602714,177.13934810553525,5.8059486256794886,109.0569645,66.32748000000001,47.145145,49.40225999999996,131.35007,0.3761114068982875,174.7688490632125,0.9476563376470588,-0.6854399999999714,-0.5820130000000034,0.8992036064034468,0.5984000000000265,-0.1488430000000065,0.6166334394508893,-0.8289800000000014,-0.6379570000000001,1.0460387059038507,0.5167900000000145,-0.1608489999999989,0.541243295479043,-0.9028500000000008,-0.5441100000000034,1.0541317823687917,0.3607999999999833,-0.136018000000007,0.3855872616204922,-1.2435500000000277,-0.5371590000000026,1.3546056229696786,0.0535499999999729,0.0664839999999955,0.0853681717972014,-1.34935999999999,-0.3325999999999993,1.3897464407581597,-0.1838599999999814,0.1026340000000018,0.2105664682611967,-0.996629999999982,-0.3339239999999961,1.0510835336337263,-0.3228000000000293,0.3041320000000098,0.4435043555863063,-1.5605800000000158,0.0580100000000101,1.5616578039058526,-0.0159900000000448,0.2003860000000088,0.2010229566392977,-0.6176400000000513,-0.0617799999999988,0.6207221101266356,0.12045999999998,0.6941400000000044,0.7045146919688767,-1.1375099999999634,0.5247300000000052,1.2527053017369736,0.8388700000000426,-0.1656599999999883,0.8550708230901506,-1.0120600000000195,0.1510299999999915,1.023267073886401,-0.0189599999999927,0.9169999999999874,0.9171959886523582,-1.2787799999999834,0.3589200000000119,1.3281949611408583,0.2602600000000166,-1.5123199999999883,1.5345510907102355,0.0100099999999656,-0.6251660000000072,0.6252461336593841,0.0155699999999114,-0.3269460000000066,0.3273165315348456,-0.4197599999999966,-0.3352589999999935,0.5372122994505922,0.1413099999999758,-0.2878729999999905,0.3206857967372233,0.2697399999999561,-0.4367200000000082,0.5133069510536395,0.1493199999999888,-0.1228000000000122,0.1933295176634951,-0.2485599999999976,-0.1410999999999944,0.2858168707406847,0.2671599999999898,-0.0586599999999748,0.2735241510360495,0.1962599999999383,-0.326340000000016,0.3808093790861594,0.9148199999998496,-0.144500000000022,0.9261619093871932,-0.2889999999999872,0.1024699999999825,0.3066286041777398,0.5352199999999812,0.070809999999966,0.5398837879580891,-0.4802125000000075,-0.3074095000000056,109.6912328,0.4267944302269749,66.96488339999999,0.6183503655716787,48.1402142,0.8073903962712883,-0.23901301,0.157851758,0.0888677501264351,0,0
38,1266.6666666666663,506.4899,47.30412,0.9748137,509.3994,44.10814,0.9632219,503.27182,44.691433,0.9408465,514.5965,46.164288,0.8363361,499.23477,47.768417,0.67860967,523.71246,64.90735,0.99607396,494.67917,67.81882,0.9965005,534.1011,87.240555,0.979428,489.2884,91.67548,0.97071695,536.4483,108.25136,0.9636679,486.8161,110.437904,0.9479482,523.10614,108.329124,0.99680376,504.90756,109.7637,0.9969476,524.99176,142.42328,0.98933965,508.20718,143.56088,0.98782235,525.1247,174.42728,0.96483076,512.4343,175.56131,0.9614986,0.98895649,0.02235374,0.97275594,0.17686472,161.42807677585105,174.77354394262102,177.07240614960187,178.0511550043665,6.430941430839064,109.046412,66.363085,47.30412,49.63220000000001,131.45317,0.3775656351416582,174.27350050668412,0.9497297705882352,-0.093400000000031,0.1589749999999981,0.1843816981834292,0.5920399999999404,0.7409880000000015,0.9484590543317786,-0.2243499999999585,0.0852199999999996,0.2399903558478576,0.6046300000000429,0.7231769999999997,0.9426358842252144,-0.3183300000000031,0.2037280000000052,0.3779405864471347,0.5845199999999977,0.7478380000000087,0.949170851134826,-0.5293500000000222,-0.01173,0.5294799480622694,0.7142000000000053,0.5254290000000026,0.8866551043337033,-0.7609899999999925,0.2757569999999987,0.8094119489783851,0.5883699999999976,0.608356999999998,0.8463317885728946,-0.5134400000000596,-0.1007900000000034,0.5232391974040763,0.4831899999999223,0.2331339999999926,0.5364923466890479,-0.7261300000000119,0.171999999999997,0.7462230074850389,0.8344500000000039,0.1139899999999869,0.84219981156493,-0.4343599999999696,-0.0678149999999959,0.4396219783233921,0.1832800000000816,-0.0060349999999971,0.1833793326005683,-0.9162499999999908,-0.1221300000000127,0.9243537198497048,0.2212599999999724,-0.646860000000018,0.6836547719426898,-0.85803999999996,0.1555700000000115,0.8720290514082285,0.1540200000000595,0.0045400000000199,0.1540868975611441,-1.087980000000016,-0.8594360000000023,1.3864814165707515,0.1907999999999674,-1.2183560000000142,1.233205571969257,-0.0451100000000224,-0.0999300000000005,0.1096399425392139,-0.055119999999988,0.5252360000000067,0.528120317821617,-0.2619400000000382,0.0788249999999948,0.2735433132522512,0.1578199999999583,0.4140839999999883,0.4431396071848884,0.3408600000000206,-0.0237599999999815,0.3416871042342879,0.0711200000000644,0.4129600000000266,0.4190393967159068,-0.2013600000000224,0.1744199999999978,0.2663985472933519,0.0471999999999752,0.3155199999999922,0.3190308925480302,-0.0076000000000249,-0.1444199999999966,0.1446198340477523,-0.2038599999999633,0.1819200000000194,0.2732284502023757,-0.6693400000000338,0.1883200000000044,0.6953275904205491,-0.3803400000000465,0.0858500000000219,0.389908627886123,-0.0105524999999886,0.4696600000000188,109.4742577,0.422897356846649,66.6785854,0.4453563566186849,47.73590420000001,0.5205603195078444,0.16188035,0.164140282,0.0888807863174905,0,0
39,1300.0,505.90482,46.826675,0.97718835,508.79053,43.604504,0.96533257,502.61987,44.23771,0.9482037,513.99713,45.772285,0.8353991,498.55597,47.513744,0.70830595,523.4237,64.82277,0.99628013,493.9847,67.81068,0.99714357,533.62006,87.5448,0.979483,487.81042,91.78121,0.9767716,535.5245,108.370056,0.9640284,483.95328,110.47281,0.95663303,523.0296,108.11114,0.9969501,504.58527,109.565575,0.99732214,524.8529,142.59846,0.98924446,507.8423,143.75073,0.9886513,524.69666,174.93433,0.96355605,511.8093,176.10637,0.9622923,0.77179373,0.0054042,0.72809308,0.25596255,161.05724234858295,177.2155575361297,176.69682411378983,178.45256235545943,6.843633489241939,108.8383575,66.316725,46.826675,51.57121999999998,132.501866,0.3892112705098712,174.20461289056615,0.9531050441176472,-0.5850800000000049,-0.4774449999999959,0.7551637798683156,-0.4916799999999739,-0.636419999999994,0.8042261117372195,-0.6088700000000244,-0.5036360000000002,0.7901720682206059,-0.3845200000000659,-0.5888559999999998,0.7032830291824554,-0.6519499999999994,-0.4537230000000036,0.79429425481304,-0.3336199999999962,-0.6574510000000089,0.7372544484782776,-0.5993700000000217,-0.3920030000000025,0.7161778751881602,-0.0700199999999995,-0.3802730000000025,0.3866656888437373,-0.6788000000000238,-0.2546729999999968,0.72500191512094,0.0821899999999686,-0.5304299999999955,0.536759891385329,-0.2887599999999111,-0.0845799999999883,0.3008921966418316,0.2246800000001485,0.0162100000000151,0.2252639929062504,-0.6944700000000239,-0.0081399999999973,0.694517703518084,0.031659999999988,-0.1801399999999944,0.1829009983570271,-0.4810400000000072,0.3042449999999945,0.5691787958322092,-0.0466800000000375,0.3720599999999905,0.374976887287732,-1.4779800000000023,0.1057300000000083,1.4817569683655982,-0.5617300000000114,0.227860000000021,0.6061854274890006,-0.9238000000000284,0.1186959999999999,0.9313942132180404,-0.0657600000000684,-0.0368740000000116,0.0753927680617302,-2.8628199999999997,0.0349059999999923,2.863032794299778,-1.774839999999983,0.8943419999999946,1.987436700517511,-0.0765400000000227,-0.217983999999987,0.2310311577601554,-0.0314300000000002,-0.1180539999999865,0.1221662466313705,-0.3222900000000095,-0.1981250000000045,0.3783178025483442,-0.0603499999999712,-0.2769499999999993,0.2834491576985125,-0.1388600000000224,0.1751799999999832,0.2235400008946952,-0.479720000000043,0.1989399999999648,0.5193345761645639,-0.364879999999971,0.1898500000000069,0.4113154955748463,-0.1635199999999486,0.0154300000000091,0.1642463859571451,-0.4280400000000099,0.5070499999999925,0.6635645741749637,-0.420439999999985,0.6514699999999891,0.7753598870846836,-0.625,0.5450600000000065,0.8292860806742188,0.0443400000000338,0.356740000000002,0.359484997183477,-0.2080545000000029,-0.1975020000000142,109.2377782,0.3679217625946321,66.465676,0.225771768468519,47.4326852,0.5202487419740751,0.07909783,0.178633364,0.0982415015731637,0,0
