frame_id,timestamp_ms,nose_x,nose_y,nose_conf,left_eye_x,left_eye_y,left_eye_conf,right_eye_x,right_eye_y,right_eye_conf,left_ear_x,left_ear_y,left_ear_conf,right_ear_x,right_ear_y,right_ear_conf,left_shoulder_x,left_shoulder_y,left_shoulder_conf,right_shoulder_x,right_shoulder_y,right_shoulder_conf,left_elbow_x,left_elbow_y,left_elbow_conf,right_elbow_x,right_elbow_y,right_elbow_conf,left_wrist_x,left_wrist_y,left_wrist_conf,right_wrist_x,right_wrist_y,right_wrist_conf,left_hip_x,left_hip_y,left_hip_conf,right_hip_x,right_hip_y,right_hip_conf,left_knee_x,left_knee_y,left_knee_conf,right_knee_x,right_knee_y,right_knee_conf,left_ankle_x,left_ankle_y,left_ankle_conf,right_ankle_x,right_ankle_y,right_ankle_conf,acc_x,acc_y,acc_z,acc_mag,left_elbow_angle,right_elbow_angle,left_knee_angle,right_knee_angle,spine_angle,hip_height,shoulder_height,head_height,bbox_width,bbox_height,bbox_aspect_ratio,shoulder_tilt,avg_confidence,nose_vx,nose_vy,nose_speed,nose_ax,nose_ay,nose_accel,left_eye_vx,left_eye_vy,left_eye_speed,left_eye_ax,left_eye_ay,left_eye_accel,right_eye_vx,right_eye_vy,right_eye_speed,right_eye_ax,right_eye_ay,right_eye_accel,left_ear_vx,left_ear_vy,left_ear_speed,left_ear_ax,left_ear_ay,left_ear_accel,right_ear_vx,right_ear_vy,right_ear_speed,right_ear_ax,right_ear_ay,right_ear_accel,left_shoulder_vx,left_shoulder_vy,left_shoulder_speed,left_shoulder_ax,left_shoulder_ay,left_shoulder_accel,right_shoulder_vx,right_shoulder_vy,right_shoulder_speed,right_shoulder_ax,right_shoulder_ay,right_shoulder_accel,left_elbow_vx,left_elbow_vy,left_elbow_speed,left_elbow_ax,left_elbow_ay,left_elbow_accel,right_elbow_vx,right_elbow_vy,right_elbow_speed,right_elbow_ax,right_elbow_ay,right_elbow_accel,left_wrist_vx,left_wrist_vy,left_wrist_speed,left_wrist_ax,left_wrist_ay,left_wrist_accel,right_wrist_vx,right_wrist_vy,right_wrist_speed,right_wrist_ax,right_wrist_ay,right_wrist_accel,left_hip_vx,left_hip_vy,left_hip_speed,left_hip_ax,left_hip_ay,left_hip_accel,right_hip_vx,right_hip_vy,right_hip_speed,right_hip_ax,right_hip_ay,right_hip_accel,left_knee_vx,left_knee_vy,left_knee_speed,left_knee_ax,left_knee_ay,left_knee_accel,right_knee_vx,right_knee_vy,right_knee_speed,right_knee_ax,right_knee_ay,right_knee_accel,left_ankle_vx,left_ankle_vy,left_ankle_speed,left_ankle_ax,left_ankle_ay,left_ankle_accel,right_ankle_vx,right_ankle_vy,right_ankle_speed,right_ankle_ax,right_ankle_ay,right_ankle_accel,hip_velocity,hip_acceleration,hip_height_mean_5,hip_height_std_5,shoulder_height_mean_5,shoulder_height_std_5,head_height_mean_5,head_height_std_5,acc_mag_diff,acc_mag_mean_5,acc_mag_std_5,label_binary,label_3class
0,0.0,497.03625,94.52039,0.9358175,499.4632,92.31372,0.92327774,495.45547,92.37498,0.8314213,504.08582,93.50306,0.83197916,493.7329,93.74939,0.48161167,509.32004,106.49738,0.9932561,491.51553,106.86716,0.98979247,513.2631,123.55493,0.96348244,489.23517,123.35605,0.89606375,511.75824,140.04108,0.9270856,487.8368,137.67291,0.8372663,506.27844,138.86514,0.99290633,494.8016,138.85707,0.9911601,507.35788,163.24248,0.9806507,493.75638,163.08311,0.9717693,509.54553,186.89021,0.9572294,496.13095,186.28636,0.94328403,1.0239081,-0.24368028,0.99191629,0.07148282,161.76848978866906,177.70467174989014,177.25003998101758,171.68635140589728,0.2181117788003244,138.861105,106.68227,94.52039,25.426300000000023,94.57649,0.2688437658360578,178.81020101962045,0.9087090523529412,0.0,0.0,0.0,0.0,0.0,0.0,0.0,0.0,0.0,0.0,0.0,0.0,0.0,0.0,0.0,0.0,0.0,0.0,0.0,0.0,0.0,0.0,0.0,0.0,0.0,0.0,0.0,0.0,0.0,0.0,0.0,0.0,0.0,0.0,0.0,0.0,0.0,0.0,0.0,0.0,0.0,0.0,0.0,0.0,0.0,0.0,0.0,0.0,0.0,0.0,0.0,0.0,0.0,0.0,0.0,0.0,0.0,0.0,0.0,0.0,0.0,0.0,0.0,0.0,0.0,0.0,0.0,0.0,0.0,0.0,0.0,0.0,0.0,0.0,0.0,0.0,0.0,0.0,0.0,0.0,0.0,0.0,0.0,0.0,0.0,0.0,0.0,0.0,0.0,0.0,0.0,0.0,0.0,0.0,0.0,0.0,0.0,0.0,0.0,0.0,0.0,0.0,0.0,0.0,138.861105,0.0,106.68227,0.0,94.52039,0.0,0.0,0.07148282,0.0,0,0
1,33.333333333333336,496.37802,94.541595,0.9324567,498.8104,92.35628,0.922271,494.9166,92.39877,0.8171511,503.5864,93.52743,0.83814126,493.4412,93.73672,0.45318526,509.0313,106.47343,0.9931821,491.2331,106.837616,0.98868525,513.0713,123.40808,0.9644127,488.83588,123.339035,0.8841577,511.52023,139.60248,0.92808676,487.57544,137.65279,0.823637,506.00677,138.95879,0.99283713,494.5641,138.93753,0.9906094,507.2662,163.32002,0.9808349,493.81546,163.15327,0.9705803,509.53806,186.98138,0.9577533,496.38837,186.30867,0.9418511,1.00243341,-0.26284062,0.96489529,0.06902637,161.11108390587432,176.7666263108126,177.47497076995765,171.88883336641,0.27225150185803,138.94816,106.655523,94.541595,25.495859999999936,94.6251,0.269440769209852,178.82777981457832,0.9046960564705884,-0.6582300000000032,0.0212049999999948,0.6585714729055641,-0.6582300000000032,0.0212049999999948,0.6585714729055641,-0.6527999999999565,0.0425599999999946,0.6541859014071939,-0.6527999999999565,0.0425599999999946,0.6541859014071939,-0.5388699999999744,0.0237900000000053,0.5393948841062295,-0.5388699999999744,0.0237900000000053,0.5393948841062295,-0.4994199999999864,0.0243699999999904,0.500014233097405,-0.4994199999999864,0.0243699999999904,0.500014233097405,-0.2916999999999916,-0.0126699999999999,0.2919750312954776,-0.2916999999999916,-0.0126699999999999,0.2919750312954776,-0.2887400000000184,-0.0239500000000134,0.2897315828486968,-0.2887400000000184,-0.0239500000000134,0.2897315828486968,-0.2824300000000335,-0.0295440000000013,0.2839710422490628,-0.2824300000000335,-0.0295440000000013,0.2839710422490628,-0.1918000000000574,-0.1468500000000006,0.2415619227031078,-0.1918000000000574,-0.1468500000000006,0.2415619227031078,-0.3992900000000077,-0.0170150000000006,0.3996523668452448,-0.3992900000000077,-0.0170150000000006,0.3996523668452448,-0.2380099999999743,-0.4385999999999797,0.49901775529531,-0.2380099999999743,-0.4385999999999797,0.49901775529531,-0.2613599999999678,-0.0201199999999914,0.2621332943370278,-0.2613599999999678,-0.0201199999999914,0.2621332943370278,-0.2716699999999719,0.0936499999999966,0.2873585067472061,-0.2716699999999719,0.0936499999999966,0.2873585067472061,-0.2375000000000113,0.0804600000000164,0.2507589711256768,-0.2375000000000113,0.0804600000000164,0.2507589711256768,-0.0916799999999966,0.077539999999999,0.1200736190842902,-0.0916799999999966,0.077539999999999,0.1200736190842902,0.0590799999999944,0.0701599999999871,0.0917217095348617,0.0590799999999944,0.0701599999999871,0.0917217095348617,-0.007470000000012,0.0911700000000053,0.0914755147566885,-0.007470000000012,0.0911700000000053,0.0914755147566885,0.2574200000000246,0.0223100000000044,0.2583849695706251,0.2574200000000246,0.0223100000000044,0.2583849695706251,0.0870549999999923,0.0870549999999923,138.9046325,0.0615571808361995,106.6688965,0.0189129850764018,94.5309925,0.014994199295062,-0.0024564499999999,0.070254595,0.0017369724526456,0,0
2,66.66666666666667,495.80655,94.664055,0.93050265,498.18393,92.49613,0.9206438,494.3887,92.541145,0.810622,502.9089,93.53582,0.83838946,492.97903,93.74549,0.4440005,508.55365,106.23537,0.9932215,490.67242,106.65194,0.98833966,512.9192,122.99562,0.9653638,488.22253,123.11041,0.8815515,511.54306,139.13571,0.9294608,487.14597,137.42506,0.82090014,505.70114,138.71037,0.99298793,494.2378,138.73196,0.9906282,507.21582,163.18259,0.9812344,493.84766,163.06349,0.97067845,509.521,186.96259,0.9581578,496.59265,186.32838,0.9416574,1.04955503,-0.28863339,1.00739195,0.05846361,160.52715838211418,175.8344625356767,178.00491088551112,172.35224463540663,0.6328424540553444,138.72116499999998,106.443655,94.664055,25.77323000000007,94.46646,0.2728294224973672,178.66545050887078,0.903431764117647,-0.5714699999999766,0.1224600000000037,0.5844436777825338,0.0867600000000266,0.1012550000000089,0.1333411887790356,-0.6264700000000403,0.1398499999999956,0.6418899309071994,0.0263299999999162,0.0972900000000009,0.1007899449349774,-0.5279000000000451,0.1423750000000012,0.5467623346802959,0.0109699999999293,0.1185849999999959,0.119091322626787,-0.6775000000000091,0.0083900000000056,0.6775519478977331,-0.1780800000000226,-0.0159799999999847,0.1787955446872421,-0.4621699999999578,0.0087699999999983,0.462253200962374,-0.1704699999999661,0.0214399999999983,0.1718129637134182,-0.4776499999999828,-0.2380599999999901,0.5336872549536656,-0.1889099999999643,-0.2141099999999767,0.2855347267846357,-0.5606799999999907,-0.1856760000000008,0.590624787302387,-0.2782499999999572,-0.1561319999999995,0.3190615362653042,-0.1520999999999048,-0.4124599999999958,0.4396108069644872,0.0397000000001526,-0.2656099999999952,0.2685605371234009,-0.6133499999999685,-0.2286249999999938,0.6545743755486908,-0.2140599999999608,-0.2116099999999932,0.3009991290684748,0.022829999999999,-0.4667700000000252,0.4673279809727035,0.2608399999999733,-0.0281700000000455,0.2623567313792208,-0.4294700000000375,-0.2277300000000082,0.486112573176251,-0.1681100000000697,-0.2076100000000167,0.2671383240945229,-0.3056300000000078,-0.2484199999999816,0.3938555487739073,-0.0339600000000359,-0.3420699999999783,0.343751605814413,-0.3263000000000033,-0.2055700000000229,0.3856562133559001,-0.088799999999992,-0.2860300000000393,0.2994972468989006,-0.0503800000000183,-0.1374299999999948,0.1463733216812422,0.0412999999999783,-0.2149699999999939,0.2189013268575491,0.0322000000000457,-0.0897799999999904,0.0953797064369629,-0.0268799999999487,-0.1599399999999775,0.1621830385705918,-0.0170599999999581,-0.0187899999999956,0.0253792769794256,-0.009589999999946,-0.1099600000000009,0.1103773966897171,0.2042799999999829,0.0197100000000034,0.2052286590610413,-0.0531400000000417,-0.002600000000001,0.0532035675495961,-0.2269950000000165,-0.3140500000000088,138.84347666666667,0.114519653808128,106.593816,0.1307290898881988,94.57534666666668,0.077551849161283,-0.01056276,0.0663242666666666,0.006917440211092,0,0
3,100.0,495.85315,94.63814,0.9323413,498.18912,92.473465,0.9191567,494.3241,92.534164,0.8221148,502.696,93.56176,0.8286414,492.6671,93.79957,0.47105443,508.18832,106.22184,0.9932528,490.2777,106.75195,0.98935014,512.74963,122.75638,0.9642251,487.78485,123.21854,0.89282197,511.5057,138.52863,0.92815435,486.70636,137.49313,0.83378375,505.63583,138.55363,0.9932681,494.12552,138.66618,0.9914152,507.35858,163.11009,0.98195285,493.80054,163.07318,0.9731312,509.75162,187.05115,0.9597846,496.4545,186.55597,0.94581944,1.11739888,-0.25891029,1.08575284,0.05183119,160.06816842435464,175.71211747268882,178.3049202634624,172.78909907077244,1.1551310122034728,138.609905,106.486895,94.63814,26.043270000000007,94.577685,0.275363789298038,178.30468173265467,0.9070745958823528,0.0466000000000121,-0.0259149999999976,0.0533211705141683,0.6180699999999888,-0.1483750000000014,0.6356301326439666,0.0051900000000273,-0.0226649999999892,0.023251630587978,0.6316600000000676,-0.1625149999999848,0.6522311559754567,-0.0645999999999844,-0.0069809999999961,0.0649761060775262,0.4633000000000606,-0.1493559999999973,0.4867793183117535,-0.2128999999999905,0.0259400000000056,0.2144744590854497,0.4646000000000185,0.0175499999999999,0.4649313524597123,-0.311930000000018,0.054079999999999,0.3165832770378295,0.1502399999999397,0.0453100000000006,0.1569237193670286,-0.3653300000000286,-0.0135300000000029,0.3655804559874898,0.1123199999999542,0.2245299999999872,0.2510567730613615,-0.3947200000000066,0.1000099999999974,0.4071926798212422,0.1659599999999841,0.2856859999999983,0.3303925123182936,-0.1695700000000215,-0.2392400000000094,0.2932401106602093,-0.0174700000001166,0.1732199999999863,0.1740987343434735,-0.4376800000000003,0.1081300000000027,0.4508390835985727,0.1756699999999682,0.3367549999999966,0.379820851092968,-0.0373600000000351,-0.6070799999999963,0.6082284899608026,-0.0601900000000341,-0.140309999999971,0.1526752507775769,-0.4396099999999592,0.0680700000000058,0.4448488248832011,-0.0101399999999216,0.295800000000014,0.2959737481602156,-0.0653100000000108,-0.1567400000000134,0.1698023076992937,0.2403199999999969,0.0916799999999682,0.2572137725705852,-0.1122799999999983,-0.0657799999999895,0.130129961192641,0.2140200000000049,0.1397900000000334,0.2556282545025324,0.1427600000000097,-0.0724999999999909,0.1601145452480863,0.193140000000028,0.0649300000000039,0.2037620290927908,-0.0471200000000067,0.0096900000000061,0.0481060339250779,-0.0793200000000524,0.0994699999999966,0.1272239886971307,0.2306199999999876,0.088560000000001,0.247039385523836,0.2476799999999457,0.1073499999999967,0.2699433364615107,-0.138149999999996,0.2275899999999922,0.2662379210405523,-0.3424299999999789,0.2078799999999887,0.40059006390571,-0.1112599999999872,0.1157350000000292,138.78508375,0.1496064780446176,106.56708575,0.119379318514195,94.591045,0.0706772727496931,-0.00663242,0.0627009975,0.0091876531569542,0,0
4,133.33333333333334,495.2966,94.72061,0.93163943,497.6002,92.56197,0.91921127,493.82043,92.64104,0.8176841,502.17337,93.584274,0.831605,492.3196,93.88231,0.46185696,507.88315,106.119644,0.9933831,490.02502,106.76072,0.98931515,512.64026,122.51056,0.96564454,487.54547,123.259,0.8931777,511.46402,138.2182,0.93060255,486.49933,137.6822,0.8349179,505.45856,138.50287,0.9934676,493.98486,138.64731,0.9915741,507.3036,163.11299,0.9823658,493.6589,163.10233,0.9734259,509.73975,187.14041,0.96027535,496.3017,186.66266,0.9460185,1.12440572,-0.24392592,1.09656124,0.04839215,159.5332632545495,175.60140074334487,178.49802691075604,172.8361457512629,1.368471565890115,138.57509,106.440182,94.72061,26.140930000000026,94.57844,0.2763941731710298,177.94406339761997,0.9068332323529412,-0.5565500000000156,0.0824699999999865,0.5626270553395163,-0.6031500000000278,0.1083849999999841,0.6128109257552693,-0.5889200000000301,0.0885049999999978,0.595533291617719,-0.5941100000000574,0.1111699999999871,0.604421592102785,-0.5036699999999996,0.1068759999999997,0.5148844028284403,-0.4390700000000151,0.1138569999999958,0.4535921971870905,-0.5226300000000492,0.0225139999999868,0.5231147073979577,-0.3097300000000587,-0.0034260000000188,0.3097489473364461,-0.347500000000025,0.0827400000000011,0.3572144420372972,-0.0355700000000069,0.0286600000000021,0.0456795413724855,-0.3051699999999755,-0.1021960000000063,0.3218272072339229,0.060160000000053,-0.0886660000000034,0.1071488924628108,-0.252679999999998,0.0087700000000126,0.2528321484700852,0.1420400000000086,-0.0912399999999848,0.1688197239661281,-0.1093700000000126,-0.2458199999999948,0.2690525400363286,0.0602000000000089,-0.0065799999999853,0.060558536970446,-0.2393799999999828,0.0404599999999959,0.2427751964266355,0.1983000000000174,-0.0676700000000067,0.2095283248155433,-0.0416799999999852,-0.3104299999999966,0.3132155923641042,-0.0043199999999501,0.2966499999999996,0.2966814535827936,-0.2070300000000315,0.1890699999999867,0.2803727622291582,0.2325799999999276,0.1209999999999809,0.2621725698847263,-0.1772700000000213,-0.0507599999999968,0.1843942257772928,-0.1119600000000105,0.1059800000000166,0.1541648533226879,-0.1406599999999684,-0.0188699999999926,0.141920091953151,-0.02837999999997,0.0469099999999969,0.0548267498580575,-0.0549800000000004,0.0028999999999825,0.0550564292340136,-0.1977400000000102,0.0753999999999734,0.2116276626530663,-0.1416399999999953,0.0291499999999871,0.1446084786587492,-0.0945199999999886,0.0194599999999809,0.0965024455648514,-0.0118699999999876,0.0892599999999959,0.0900457911287305,-0.2424899999999752,0.0006999999999948,0.2424910103488126,-0.1528000000000133,0.1066899999999861,0.1863614662423569,-0.0146500000000173,-0.120900000000006,0.1217843688656387,-0.0348150000000089,0.0764449999999783,138.743085,0.1600189011101432,106.541705,0.1179384526755275,94.616958,0.0842844915005172,-0.0034390399999999,0.059839228,0.0102106978828589,0,0
5,166.66666666666666,495.5556,95.0643,0.9360443,497.81573,92.91368,0.9195921,493.97806,92.98636,0.8367995,502.14563,93.82595,0.820825,492.1811,94.078094,0.50294834,507.66074,106.09759,0.99364156,489.53156,106.732605,0.9909576,512.5625,122.242325,0.9655716,486.63272,123.16118,0.911422,511.6545,137.66158,0.9314616,485.82886,137.7737,0.85707396,505.3541,138.4267,0.9938922,493.6911,138.61368,0.9926472,507.52963,163.22697,0.98276734,493.57187,163.24744,0.9757971,509.73312,187.4216,0.96028566,496.01166,187.03154,0.9487331,1.03169181,-0.26578837,0.99609226,0.03930327,159.74089141432174,173.1418676949273,179.80946816258,173.86572809947637,1.6529755516258802,138.52019,106.4150975,95.0643,26.73363999999998,94.50792,0.2828719510187932,177.99390758023645,0.9129682447058824,0.2590000000000145,0.3436900000000094,0.4303531295343557,0.8155500000000302,0.2612200000000229,0.8563630602145688,0.2155300000000011,0.3517099999999971,0.4124961878611709,0.8044500000000312,0.2632049999999992,0.8464140089371452,0.1576300000000401,0.3453200000000009,0.379595994841902,0.6613000000000397,0.2384440000000012,0.7029745593803898,-0.0277399999999943,0.2416760000000124,0.2432628137961199,0.4948900000000549,0.2191620000000256,0.5412467961513172,-0.1384999999999649,0.195783999999989,0.2398199838545279,0.20900000000006,0.1130439999999879,0.2376130171855539,-0.2224100000000248,-0.0220539999999971,0.2235007539495357,0.0827599999999506,0.0801420000000092,0.1152039832818002,-0.4934599999999705,-0.0281149999999996,0.4942602804443938,-0.2407799999999724,-0.0368850000000122,0.2435888167075567,-0.077760000000012,-0.2682350000000042,0.2792787726000745,0.0316100000000005,-0.0224150000000094,0.03875079773373,-0.9127500000000168,-0.0978199999999986,0.9179767507404696,-0.673370000000034,-0.1382799999999946,0.6874216430256209,0.1904799999999795,-0.5566200000000094,0.588309828916705,0.2321599999999648,-0.2461900000000128,0.3383899846331005,-0.6704699999999661,0.0914999999999963,0.6766847647907805,-0.4634399999999345,-0.0975699999999903,0.4735995550039479,-0.1044599999999604,-0.0761699999999905,0.1292817098432346,0.0728100000000608,-0.0254099999999937,0.0771165624234414,-0.2937600000000202,-0.0336300000000164,0.2956787352854665,-0.1531000000000517,-0.0147600000000238,0.1538098423379224,0.2260299999999802,0.1139799999999979,0.2531422550661793,0.2810099999999806,0.1110800000000153,0.3021678118198438,-0.087030000000027,0.1451100000000167,0.1692073668609306,0.0546099999999682,0.1159600000000296,0.1281755581224572,-0.0066300000000296,0.2811900000000094,0.2812681514142788,0.0052399999999579,0.1919300000000134,0.1920015169211033,-0.2900399999999763,0.3688800000000185,0.4692500996270538,-0.1372399999999629,0.2621900000000323,0.2959365028177612,-0.054899999999975,-0.0200849999999661,138.67490199999995,0.1695088847449967,106.4882705,0.0969956511370326,94.72574,0.2000233553550738,-0.00908888,0.053403318,0.0111364385430765,0,0
6,200.0,495.47708,95.405754,0.93976486,497.7195,93.24882,0.9217354,493.85056,93.32361,0.8495386,501.98782,93.9827,0.81686115,491.94965,94.23137,0.527847,507.46042,105.95688,0.99386615,489.20084,106.62387,0.9919882,512.5139,121.89151,0.9661925,486.05063,122.99275,0.9231883,511.9835,137.25858,0.9332947,485.05344,137.90208,0.8724091,505.2342,138.2847,0.9941222,493.51105,138.49654,0.9932516,507.50488,163.2175,0.9826483,493.50824,163.2517,0.9767535,509.5303,187.4501,0.9590011,495.78757,187.09958,0.94889194,0.95121486,-0.29158114,0.90176441,0.08130864,160.42738904627944,172.93299448286555,179.57411709659854,174.5338701552825,1.8592606991810012,138.39062,106.290375,95.405754,27.46046000000001,94.20128,0.2915083500828403,177.90801714186102,0.9171385058823528,-0.0785200000000259,0.3414539999999988,0.3503658438204318,-0.3375200000000404,-0.0022360000000105,0.3375274064369105,-0.0962299999999913,0.3351399999999955,0.348681849972142,-0.3117599999999925,-0.0165700000000015,0.3122000360345837,-0.1275000000000545,0.3372499999999974,0.3605465469256531,-0.2851300000000947,-0.0080700000000035,0.2852441792570955,-0.1578099999999835,0.1567499999999881,0.2224287719697951,-0.1300699999999892,-0.0849260000000242,0.1553403694343531,-0.2314499999999952,0.1532760000000053,0.2776015754206006,-0.0929500000000302,-0.0425079999999837,0.1022087695063601,-0.2003199999999765,-0.1407099999999985,0.2448007485690969,0.0220900000000483,-0.1186560000000014,0.1206947158578306,-0.3307199999999852,-0.10873500000001,0.3481364942447034,0.1627399999999852,-0.0806200000000103,0.1816146800233859,-0.0485999999999648,-0.3508149999999972,0.3541653910604403,0.0291600000000471,-0.0825799999999929,0.0875771773922955,-0.5820899999999938,-0.1684300000000007,0.6059681782073981,0.330660000000023,-0.070610000000002,0.3381150805569244,0.3290000000000077,-0.4029999999999916,0.5202403290787809,0.1385200000000281,0.1536200000000178,0.2068499330432893,-0.7754199999999969,0.1283800000000212,0.7859755726484129,-0.1049500000000307,0.0368800000000248,0.1112413452813669,-0.1199000000000296,-0.1420000000000243,0.1858494283015528,-0.0154400000000691,-0.0658300000000338,0.0676164366112751,-0.1800499999999942,-0.1171399999999778,0.2148017274138938,0.1137100000000259,-0.0835099999999613,0.1410811263068148,-0.0247499999999831,-0.0094699999999932,0.0264998754713873,-0.2507799999999633,-0.1234499999999911,0.2795183552112087,-0.0636299999999892,0.0042599999999879,0.0637724431082777,0.0234000000000378,-0.1408500000000287,0.1427805396404211,-0.2028199999999742,0.0284999999999797,0.2048126031278065,-0.1961899999999445,-0.2526900000000296,0.3199105378070457,-0.2240899999999897,0.0680399999999963,0.2341917370446593,0.0659499999999866,-0.3008400000000222,0.3079839413021588,-0.129570000000001,-0.074670000000026,138.56339400000002,0.1213560862399674,106.4152409,0.0744231871482119,94.8985718,0.3313581425228636,0.04200537,0.055859772,0.0158156367604444,0,0
7,233.3333333333333,495.4185,95.30381,0.9424498,497.68448,93.13152,0.9231948,493.72266,93.20147,0.858629,501.90598,93.87936,0.813478,491.69397,94.109665,0.5470878,507.2694,105.88189,0.9940029,488.9055,106.5664,0.99261236,512.39655,121.820404,0.9661815,485.8031,123.049805,0.9296132,512.2605,137.50719,0.9336285,484.68372,138.43991,0.8806416,505.12643,138.21948,0.9942239,493.36526,138.45651,0.9935818,507.3948,163.1586,0.9825565,493.5532,163.20549,0.97739947,509.30344,187.36955,0.9584137,495.87097,187.05112,0.94941926,1.05574526,-0.36846816,0.93394396,0.32646279,161.6709871637345,173.50086483260625,179.3103996643893,174.88343637223352,2.065898917479619,138.337995,106.224145,95.30381,27.712830000000054,94.23803,0.2940726764547962,177.86530175042785,0.9198302405882354,-0.0585800000000062,-0.1019440000000031,0.1175763391843842,0.0199400000000196,-0.4433980000000019,0.4438461332534086,-0.0350199999999745,-0.1173000000000001,0.1224160545026601,0.0612100000000168,-0.4524399999999957,0.4565617348179742,-0.1278999999999541,-0.1221400000000016,0.1768518860515451,-0.0003999999998995,-0.4593899999999991,0.4593901741439395,-0.0818399999999996,-0.1033399999999886,0.1318216264502817,0.0759699999999838,-0.2600899999999768,0.2709580207338131,-0.2556800000000407,-0.1217049999999915,0.2831684470858623,-0.0242300000000454,-0.2749809999999968,0.2760464512740572,-0.1910199999999804,-0.0749899999999996,0.2052124277425528,0.009299999999996,0.0657199999999988,0.0663747572500252,-0.2953400000000101,-0.057469999999995,0.3008795714235272,0.0353799999999751,0.0512650000000149,0.0622883987994536,-0.1173499999999876,-0.0711060000000003,0.1372118279741114,-0.0687500000000227,0.2797089999999969,0.2880341771057757,-0.2475300000000402,0.0570550000000054,0.254020420291402,0.3345599999999535,0.2254850000000061,0.40345244927373,0.2769999999999868,0.2486100000000135,0.3722041537919739,-0.0520000000000209,0.6516100000000051,0.6536815678141834,-0.3697200000000293,0.5378299999999854,0.6526515052461045,0.4056999999999675,0.4094499999999641,0.5764041919520921,-0.1077699999999595,-0.0652199999999822,0.1259683345130392,0.0121300000000701,0.076780000000042,0.0777322667880472,-0.1457900000000336,-0.0400300000000015,0.1511857301467633,0.0342599999999606,0.0771099999999762,0.0843783129719576,-0.110080000000039,-0.0588999999999941,0.1248471721746548,-0.0853300000000558,-0.0494300000000009,0.0986130508604699,0.0449600000000032,-0.046210000000002,0.0644729842647327,0.1085899999999924,-0.05046999999999,0.1197456011718064,-0.2268599999999878,-0.0805499999999881,0.2407358762212075,-0.0240400000000136,-0.1090499999999679,0.1116683666039476,0.0833999999999832,-0.0484600000000057,0.0964568898523986,0.3074899999999729,-0.116500000000002,0.3288196315611095,-0.0526250000000061,0.0769449999999949,138.48676,0.1177480038577152,106.3713389,0.1098050511579406,95.0265228,0.3415243226026568,0.24515415,0.109459608,0.122326447208685,0,0
8,266.6666666666667,495.30716,95.33415,0.94517314,497.58704,93.13041,0.925169,493.51276,93.2272,0.8676496,501.77835,93.90822,0.8111286,491.34045,94.206665,0.5664089,507.07602,105.9578,0.9940843,488.61423,106.79509,0.9930875,512.3259,121.81105,0.96584564,485.6406,123.384674,0.9344168,512.4889,137.66104,0.93337244,484.40457,138.98624,0.88684714,505.1517,138.2113,0.9941379,493.34708,138.53316,0.99367946,507.2391,163.02377,0.98178285,493.53445,163.15038,0.977112,508.9487,186.90884,0.9562093,495.78818,186.7163,0.947957,0.83921891,0.15770437,0.82364916,0.03193391,162.26666630626144,174.36761173566882,179.2852165499324,174.97321249872306,2.5130860398094312,138.37223,106.376445,95.33415,28.08432999999997,93.77843,0.2994753665690991,177.4032673739964,0.922003621764706,-0.1113399999999842,0.0303399999999953,0.115399788561315,-0.0527599999999779,0.1322839999999985,0.1424172540670451,-0.0974400000000059,-0.001109999999997,0.0974463221471244,-0.0624200000000314,0.1161900000000031,0.1318953088627668,-0.2099000000000046,0.0257299999999958,0.2114711396384899,-0.0820000000000504,0.1478699999999975,0.1690844076194122,-0.1276300000000105,0.0288599999999945,0.1308522697548742,-0.0457900000000108,0.1321999999999832,0.1399055542142504,-0.3535200000000031,0.0969999999999942,0.3665861295793952,-0.0978399999999624,0.2187049999999857,0.2395924511018375,-0.1933799999999905,0.0759100000000074,0.207745403077896,-0.0023600000000101,0.1509000000000071,0.1509184534773736,-0.2912699999999972,0.2286900000000002,0.3703205759878845,0.0040700000000128,0.2861599999999953,0.2861889419596736,-0.0706500000000005,-0.0093540000000018,0.0712665406484706,0.046699999999987,0.0617519999999984,0.0774222158298159,-0.1624999999999659,0.3348689999999976,0.372214316168773,0.0850300000000743,0.2778139999999922,0.2905352293543906,0.228399999999965,0.1538500000000056,0.2753840636274833,-0.0486000000000217,-0.0947600000000079,0.1064960919470926,-0.2791500000000155,0.5463300000000118,0.6135154369696182,0.0905700000000138,0.0085000000000263,0.0909679883255805,0.0252699999999777,-0.00818000000001,0.0265609732502225,0.1330399999999372,0.0570399999999722,0.1447522131090924,-0.0181799999999725,0.0766500000000007,0.0787764869742179,0.127610000000061,0.1166800000000023,0.1729119270033624,-0.1556999999999675,-0.1348299999999938,0.2059650914596651,-0.0456199999999284,-0.0759299999999996,0.0885807501661248,-0.0187500000000113,-0.0551099999999848,0.0582123234375571,-0.0637100000000145,-0.0088999999999828,0.0643286413660474,-0.3547400000000493,-0.4607100000000059,0.5814586586336474,-0.1278800000000615,-0.3801600000000178,0.4010921589859733,-0.0827899999999886,-0.3348200000000076,0.3449037786107934,-0.1661899999999718,-0.2863600000000019,0.3310908722692182,0.0342349999999953,0.0868600000000014,138.439225,0.102607161543303,106.3492489,0.0900855378920369,95.1657248,0.2799387265728103,-0.29452888,0.105480152,0.1249650528004946,0,0
9,300.0,494.98468,95.269295,0.9456475,497.27597,93.04463,0.92623854,493.1816,93.15378,0.8678178,501.5149,93.75325,0.8138068,491.04752,94.086945,0.56444615,506.9197,105.769775,0.9941379,488.37808,106.63744,0.9931166,512.23004,121.76074,0.96620554,485.44415,123.32428,0.9345591,512.58954,138.01349,0.9338116,484.01987,139.18085,0.8869744,504.93698,137.94632,0.9941409,493.14932,138.27005,0.9936733,506.7442,162.86511,0.98179275,493.44257,162.9942,0.9770692,508.20856,186.87654,0.9560226,495.81284,186.68634,0.9476463,0.8547389,0.15745873,0.8401074,-0.00221081,162.8966475205965,175.1606937805231,179.3418283157567,174.9664233726104,2.502328306339618,138.108185,106.2036075,95.269295,28.56967000000003,93.83191,0.3044771197295559,177.32076796959564,0.9221827635294118,-0.3224799999999845,-0.0648549999999943,0.3289369566117333,-0.2111400000000003,-0.0951949999999897,0.2316078315277749,-0.3110700000000292,-0.0857799999999997,0.3226805747175032,-0.2136300000000233,-0.0846700000000026,0.2297972710891284,-0.3311600000000112,-0.0734199999999987,0.3392011821913468,-0.1212600000000065,-0.0991499999999945,0.1566355965290154,-0.2634499999999775,-0.1549700000000058,0.3056494779972477,-0.1358199999999669,-0.1838300000000003,0.2285618981807579,-0.2929299999999557,-0.1197200000000009,0.3164504120711083,0.0605900000000474,-0.2167199999999951,0.2250304568275228,-0.1563200000000506,-0.1880250000000103,0.2445185944361281,0.0370599999999399,-0.2639350000000178,0.2665241599273974,-0.2361500000000091,-0.1576500000000038,0.2839372201737657,0.055119999999988,-0.3863400000000041,0.3902522389429712,-0.095860000000016,-0.050309999999996,0.1082600374099449,-0.0252100000000154,-0.0409559999999942,0.048093014419979,-0.1964500000000271,-0.0603940000000022,0.2055238130631361,-0.0339500000000612,-0.3952629999999999,0.3967183404747051,0.1006400000001122,0.3524499999999761,0.3665370541978066,-0.1277599999998528,0.1985999999999705,0.2361452468290452,-0.3846999999999525,0.194609999999983,0.431123117102246,-0.1055499999999369,-0.3517200000000287,0.3672162318035613,-0.2147199999999998,-0.2649800000000084,0.3410558294473272,-0.2399899999999775,-0.2567999999999983,0.3514846228499738,-0.1977600000000166,-0.2631100000000117,0.3291441776790419,-0.179580000000044,-0.3397600000000125,0.3842991464992139,-0.4949000000000296,-0.158660000000026,0.5197105017219082,-0.3392000000000621,-0.0238300000000322,0.3400360405898817,-0.0918800000000032,-0.1561800000000062,0.1812018951335844,-0.0731299999999919,-0.1010700000000213,0.1247523218220932,-0.7401399999999967,-0.0322999999999922,0.7408444570893371,-0.3853999999999473,0.4284100000000137,0.5762536664525192,0.024659999999983,-0.0299599999999884,0.0388035720005062,0.1074499999999716,0.3048600000000192,0.323241584731924,-0.2640450000000101,-0.2982800000000054,138.345844,0.1497005727860428,106.301934,0.0924806823848855,95.2754618,0.1283075580829396,-0.03414472,0.09535956,0.1325624655565281,0,0
10,333.3333333333333,494.46393,95.22116,0.9455968,496.7712,92.9789,0.9272555,492.68832,93.10197,0.8653894,501.1545,93.59564,0.8183019,490.7074,93.975235,0.5555357,506.755,105.555626,0.994155,488.18304,106.45872,0.9929844,512.16016,121.59996,0.9667108,485.2761,123.222626,0.9333719,512.7625,138.07059,0.93454856,483.90213,139.30588,0.8855882,504.71576,137.83614,0.9940561,492.9932,138.14725,0.9935155,506.30634,162.883,0.9813643,493.54562,162.99066,0.97629535,507.4601,186.9733,0.95457256,496.0611,186.73145,0.9455708,0.96173151,0.22820461,0.92903105,0.09874947,163.47629791391628,175.04530754373366,179.10833177220144,175.2255552901985,2.4803478307873474,137.991695,106.007173,95.22116,28.86037000000005,93.9944,0.3070435014528158,177.21608548902506,0.9214595747058824,-0.5207500000000209,-0.048135000000002,0.5229699233464788,-0.1982700000000363,0.0167199999999922,0.1989737452530211,-0.5047699999999509,-0.065730000000002,0.5090316157174825,-0.1936999999999216,0.0200499999999976,0.1947349288134245,-0.493280000000027,-0.0518100000000032,0.4959933815082888,-0.1621200000000158,0.0216099999999954,0.1635539253579837,-0.3604000000000269,-0.1576099999999911,0.3933561644362734,-0.0969500000000493,-0.0026399999999853,0.0969859376405131,-0.3401200000000131,-0.1117100000000022,0.3579954448034351,-0.0471900000000573,0.0080099999999987,0.0478649788468081,-0.164699999999982,-0.2141489999999919,0.2701589980011598,-0.0083799999999314,-0.0261239999999816,0.0274351558405978,-0.1950400000000058,-0.1787199999999984,0.2645400536780805,0.0411100000000033,-0.0210699999999945,0.0461949889057248,-0.0698800000000119,-0.1607800000000026,0.1753095057320124,0.0259800000000041,-0.1104700000000065,0.113483837175175,-0.1680499999999938,-0.1016539999999963,0.1964035086651895,0.0284000000000332,-0.041259999999994,0.0500893960834167,0.1729599999999891,0.0571000000000196,0.1821416251162772,0.0723199999998769,-0.2953499999999565,0.3040753276738455,-0.1177400000000261,0.1250300000000095,0.1717416912109827,0.2669599999999263,-0.0695799999999735,0.2758786291106236,-0.2212200000000166,-0.1101799999999855,0.2471394764095857,-0.0065000000000168,0.1548000000000229,0.1549364063091929,-0.1561199999999871,-0.1227999999999838,0.198628533700453,0.0416400000000294,0.1403100000000279,0.1463584152005284,-0.4378600000000006,0.0178900000000226,0.4382253206970146,0.057040000000029,0.1765500000000486,0.1855356141014993,0.103049999999996,-0.0035400000000151,0.1031107855658141,0.1949299999999993,0.152639999999991,0.2475816521877116,-0.7484599999999659,0.096759999999989,0.7546885908770231,-0.0083199999999692,0.1290599999999813,0.1293279010886462,0.2482600000000161,0.0451099999999939,0.2523250675220507,0.2236000000000331,0.0750699999999824,0.2358653533268762,-0.1164899999999988,0.1475550000000112,138.24014499999998,0.1794468162505614,106.2203491,0.1369382126236258,95.3068338,0.0694436563496498,0.10096028,0.1072488,0.1288930203696643,0,0
11,366.6666666666666,494.54535,95.32357,0.9465657,496.81546,93.063614,0.9259179,492.67685,93.20714,0.87156916,501.02707,93.63981,0.81014585,490.48822,94.048744,0.5772634,506.58136,105.55341,0.9941307,487.80905,106.47487,0.993379,512.13,121.66237,0.9655393,485.02655,123.21173,0.937785,512.70264,138.41663,0.9328504,483.82233,139.22414,0.8911675,504.41486,137.55246,0.9940169,492.64606,137.8896,0.9936998,505.41998,162.50342,0.9810539,493.27438,162.6543,0.9767864,505.998,186.42,0.9535385,495.92523,186.29518,0.945839,1.0536685,0.08204558,1.04374747,0.11864675,162.95155805540756,174.86177189629834,179.0776131261595,175.05552563237157,2.411483990179335,137.72102999999998,106.01414,95.32357,28.88030999999995,93.356386,0.3093554809485071,177.1898276077687,0.9230146123529412,0.08141999999998,0.1024100000000061,0.1308320469151117,0.602170000000001,0.1505450000000081,0.6207032349883507,0.0442599999999515,0.0847140000000052,0.0955793356118183,0.5490299999999024,0.1504440000000073,0.569269126192432,-0.0114699999999743,0.1051700000000011,0.1057936189001947,0.4818100000000527,0.1569800000000043,0.5067381932517542,-0.1274300000000039,0.044169999999994,0.134868060711202,0.232970000000023,0.2017799999999852,0.3082047846805834,-0.2191799999999943,0.0735090000000013,0.23117838454535,0.1209400000000187,0.1852190000000035,0.2212070558571897,-0.1736399999999776,-0.0022160000000042,0.1736541397605949,-0.0089399999999955,0.2119329999999877,0.2121214748416451,-0.373989999999992,0.0161499999999961,0.3743385400943829,-0.1789499999999861,0.1948699999999945,0.2645702541859022,-0.0301600000000235,0.0624099999999998,0.0693154650853718,0.0397199999999884,0.2231900000000024,0.2266968338993735,-0.2495499999999992,-0.0108960000000024,0.2497877605408233,-0.0815000000000054,0.0907579999999939,0.1219805909315075,-0.0598600000000715,0.3460399999999879,0.3511793006428485,-0.2328200000000606,0.2889399999999682,0.3710680207185872,-0.0797999999999774,-0.0817399999999963,0.1142342663126778,0.0379400000000487,-0.2067700000000059,0.2102219695940606,-0.3009000000000128,-0.2836800000000039,0.4135397833340946,-0.0796799999999962,-0.1735000000000184,0.1909218489330275,-0.3471400000000244,-0.2576500000000123,0.4323074161982689,-0.1910200000000372,-0.1348500000000285,0.2338229306548482,-0.8863599999999678,-0.3795800000000042,0.9642173126427188,-0.4484999999999672,-0.3974700000000268,0.5992784418782241,-0.2712399999999775,-0.3363599999999849,0.4320985850474144,-0.3742899999999736,-0.3328199999999697,0.5008614144650795,-1.4621000000000208,-0.5533000000000072,1.56329053601692,-0.7136400000000549,-0.6500599999999963,0.9653289870298486,-0.1358700000000112,-0.4362700000000075,0.4569378183079286,-0.3841300000000274,-0.4813800000000015,0.6158592057443182,-0.2706650000000081,-0.1541750000000092,138.10622700000002,0.2673818166170989,106.16510209999998,0.1560173928711382,95.290397,0.0459176928863794,0.0198972799999999,0.114716422,0.1280935568947178,0,0
12,400.0,494.7056,95.55221,0.9455495,496.885,93.25287,0.92178667,492.74335,93.453766,0.8741136,500.92734,93.69443,0.79617316,490.37335,94.22796,0.5939858,506.56116,105.4898,0.993859,487.70563,106.557175,0.99357855,512.2462,121.69139,0.9627823,484.99606,123.34721,0.9408547,512.79346,138.77068,0.9283902,483.6336,139.27393,0.8945194,504.66315,137.43214,0.99403447,492.88342,137.85645,0.99398154,505.16797,162.4791,0.98149383,493.23074,162.73203,0.9782986,505.45016,186.5944,0.95514643,495.79797,186.65213,0.9493379,1.06510327,0.07074589,1.05209942,0.15008936,162.49959723430914,175.72215670162927,179.5157794644145,174.67409372571694,2.968797633638238,137.644295,106.0234875,95.55221,29.15985999999998,93.39926,0.312206538764798,176.76005481477813,0.923405038235294,0.1602500000000191,0.2286399999999986,0.2792065760328819,0.078830000000039,0.1262299999999925,0.148822652173667,0.0695400000000177,0.1892560000000003,0.2016274910224361,0.0252800000000661,0.104541999999995,0.1075551401096307,0.0665000000000191,0.2466260000000062,0.2554342065503475,0.0779699999999934,0.1414560000000051,0.1615212705373519,-0.0997299999999654,0.0546199999999998,0.1137075956125759,0.0277000000000384,0.0104500000000058,0.0296056160213269,-0.1148699999999962,0.1792159999999967,0.2128696586082618,0.1043099999999981,0.1057069999999953,0.1485077302668067,-0.0202000000000452,-0.063609999999997,0.0667403333824566,0.1534399999999323,-0.0613939999999928,0.165266623478482,-0.1034200000000282,0.0823050000000051,0.1321734066482615,0.2705699999999638,0.066155000000009,0.2785401388040538,0.1162000000000489,0.0290200000000027,0.1197689458917107,0.1463600000000724,-0.0333899999999971,0.1501204239936092,-0.0304899999999861,0.1354800000000011,0.1388685367532886,0.2190600000000131,0.1463760000000036,0.2634638817295585,0.0908200000000079,0.3540500000000008,0.3655128929326598,0.1506800000000794,0.0080100000000129,0.1508927516483947,-0.1887300000000209,0.0497900000000015,0.1951872357507223,-0.1089300000000434,0.1315299999999979,0.1707802266072068,0.2482899999999972,-0.1203199999999924,0.2759072788093797,0.5491900000000101,0.1633600000000115,0.5729713306091456,0.2373600000000237,-0.0331500000000062,0.2396637062636137,0.5845000000000482,0.2245000000000061,0.6261313759907413,-0.2520099999999843,-0.0243200000000172,0.2531807703993194,0.6343499999999835,0.355259999999987,0.7270554243659626,-0.0436399999999821,0.0777300000000025,0.0891425964396305,0.2275999999999953,0.4140899999999874,0.4725169712295924,-0.5478400000000079,0.1744000000000198,0.5749295831665088,0.914260000000013,0.7277000000000271,1.168511291173544,-0.1272599999999784,0.3569500000000118,0.3789570029699978,0.0086100000000328,0.7932200000000194,0.7932667272109875,-0.0767349999999851,0.193930000000023,137.96748699999998,0.2955473617839583,106.1249706,0.1626973047907835,95.340077,0.1269442441389478,0.03144261,0.079441736,0.0628988081988218,0,0
13,433.33333333333337,494.5046,95.45033,0.9464767,496.71936,93.138145,0.92287904,492.53067,93.33206,0.87595046,500.83832,93.57958,0.79732555,490.1786,94.09543,0.5966753,506.49054,105.410286,0.99394715,487.51526,106.45773,0.9937378,512.2157,121.64398,0.96310115,484.74207,123.329895,0.94222355,512.8659,138.64893,0.9291492,483.67554,139.35248,0.8966627,504.58112,137.49643,0.9941267,492.7597,137.90794,0.9941122,505.01108,162.66652,0.98166865,493.3322,162.89648,0.9786386,505.0128,186.91685,0.9553802,495.94464,186.93283,0.9498484,1.09086637,0.03635553,1.07641832,0.17318003,162.76339977495743,174.47427404559025,179.02541667447912,175.10948352614213,3.0047293920532705,137.702185,105.934008,95.45033,29.19036,93.794685,0.3112154989249604,176.84045370917906,0.9242296088235294,-0.2010000000000218,-0.1018800000000084,0.2253453669370872,-0.3612500000000409,-0.330520000000007,0.489637654699916,-0.1656399999999962,-0.114725000000007,0.2014905338347198,-0.2351800000000139,-0.3039810000000074,0.3843358957487721,-0.2126800000000344,-0.1217060000000032,0.2450410839757598,-0.2791800000000535,-0.3683320000000094,0.46217954803738,-0.0890200000000049,-0.1148499999999899,0.1453102986714932,0.0107099999999604,-0.1694699999999898,0.1698080828464761,-0.1947499999999991,-0.1325300000000027,0.2355668979292302,-0.0798800000000028,-0.3117459999999994,0.3218173129525509,-0.0706199999999626,-0.0795140000000032,0.106346888040954,-0.0504199999999173,-0.0159040000000061,0.0528688340706682,-0.190369999999973,-0.0994450000000028,0.2147790607228514,-0.0869499999999448,-0.181750000000008,0.2014779516473039,-0.0305000000000745,-0.0474099999999992,0.0563733811297892,-0.1467000000001235,-0.076430000000002,0.1654159451202832,-0.2539899999999875,-0.0173150000000106,0.2545795147394896,-0.2235000000000013,-0.1527950000000117,0.2707370717596765,0.0724400000000287,-0.1217499999999915,0.1416708018612237,-0.0183799999999791,-0.4757999999999924,0.4761548743843667,0.0419400000000109,0.078550000000007,0.0890453036381033,0.2306700000000319,0.0287600000000054,0.2324559883074966,-0.0820299999999747,0.0642899999999997,0.1042215188912338,-0.3303199999999719,0.1846099999999921,0.3784073922374913,-0.1237199999999916,0.0514900000000011,0.1340069345220539,-0.3610800000000154,0.0846400000000073,0.3708674911609433,-0.1568900000000326,0.187420000000003,0.2444191655742474,0.0951199999999516,0.2117400000000202,0.2321241952059271,0.1014599999999745,0.164449999999988,0.1932302618638987,0.1450999999999567,0.0867199999999854,0.1690395468521639,-0.4373599999999555,0.3224500000000034,0.543376271197007,0.1104800000000523,0.1480499999999835,0.1847285384016413,0.1466699999999718,0.2806999999999959,0.3167089814008903,0.2739299999999502,-0.0762500000000159,0.2843443465236739,0.0578899999999862,0.1346249999999713,137.833478,0.2038192624482722,106.0364832,0.0999486029096495,95.363313,0.1359047466794628,0.02309067,0.10769096,0.0677584334955841,0,0
14,466.6666666666667,494.28772,95.36869,0.9444614,496.44202,92.98551,0.9176191,492.32132,93.27913,0.87284774,500.51627,93.182755,0.7756302,490.04318,94.02162,0.58991474,506.69498,105.28761,0.9930565,487.08722,106.729095,0.99363047,512.1605,121.628296,0.9681078,484.1598,123.491425,0.95473826,512.3965,139.11371,0.9487185,483.39386,138.79384,0.9275023,505.05905,137.28676,0.9952063,492.90842,137.88431,0.99533206,505.55032,162.58723,0.98908734,493.70526,162.9031,0.9874888,506.0224,186.83951,0.9725351,496.19037,186.98495,0.96981806,1.15391111,0.04004021,1.13561887,0.20069232,162.27956905692065,172.95907766670837,179.9957289755947,175.93248931393168,3.791502104036199,137.585535,106.0083525,95.36869,29.00263999999993,93.99944,0.3085405582358722,175.79540464249382,0.92915851,-0.2168800000000033,-0.081639999999993,0.231736971586323,-0.0158799999999814,0.0202400000000153,0.02572609570067,-0.277339999999981,-0.1526349999999894,0.3165674001298716,-0.1116999999999848,-0.0379099999999823,0.1179578657826398,-0.2093499999999721,-0.0529300000000034,0.2159375080896987,0.0033300000000622,0.0687759999999997,0.0688565688660158,-0.3220499999999902,-0.3968250000000068,0.5110638738210705,-0.2330299999999852,-0.2819750000000169,0.3658044307071781,-0.1354200000000105,-0.0738099999999946,0.1542287019332071,0.0593299999999885,0.0587200000000081,0.0834750699310853,0.2044399999999768,-0.1226759999999984,0.2384221352475272,0.2750599999999394,-0.0431619999999952,0.2784258641792574,-0.4280400000000099,0.2713650000000029,0.5068108175887825,-0.2376700000000369,0.3708100000000058,0.4404396496683988,-0.0552000000000134,-0.0156839999999931,0.0573849096540307,-0.0246999999999388,0.0317260000000061,0.0402073261483199,-0.5822699999999941,0.1615300000000132,0.6042601209744006,-0.3282800000000065,0.1788450000000239,0.3738359164459895,-0.4694000000000642,0.4647799999999904,0.6605730908840076,-0.5418400000000929,0.586529999999982,0.7985036170864097,-0.2816799999999944,-0.5586400000000253,0.6256374924826877,-0.3236200000000053,-0.6371900000000323,0.7146614586642018,0.4779300000000148,-0.2096700000000169,0.5218990264409594,0.5599599999999896,-0.2739600000000166,0.623385340860689,0.1487199999999688,-0.0236299999999971,0.1505855746743047,0.2724399999999605,-0.0751199999999983,0.282606737357725,0.5392400000000066,-0.0792899999999861,0.5450382387502779,0.6961300000000392,-0.2667099999999891,0.7454738097344861,0.3730600000000095,0.006619999999998,0.3731187317731543,0.2716000000000349,-0.1578299999999899,0.3141287457397297,1.0095999999999776,-0.0773400000000208,1.012557966538192,1.4469599999999332,-0.3997900000000243,1.501174635310571,0.2457299999999804,0.0521200000000021,0.2511965909402248,0.0990600000000085,-0.2285799999999938,0.2491218577323131,-0.1166499999999928,-0.174539999999979,137.728948,0.1561636624505029,105.9974322,0.0360374614858474,95.383192,0.1255926503423243,0.0275122899999999,0.148271586,0.0409320751949474,0,0
15,500.0,494.4353,95.24992,0.945053,496.60727,92.87696,0.9201522,492.48822,93.1476,0.8718761,500.67972,93.065636,0.7842631,490.1434,93.819046,0.5825216,506.6727,105.202774,0.993389,486.87643,106.51125,0.9935992,511.86646,121.55972,0.9702528,483.46576,123.16878,0.953564,512.60657,139.2778,0.95153564,483.16824,138.49944,0.92632353,504.8846,137.45818,0.9954324,492.66367,138.02544,0.99540824,505.24966,162.8285,0.9895974,493.65417,163.1355,0.9876323,505.41998,187.19194,0.97350806,496.14612,187.31662,0.97009295,1.09909481,0.17735601,1.07101412,0.17170616,164.77592644683403,169.5402767638137,179.57613775222345,176.37517329751282,3.588481134484657,137.74181,105.857012,95.24992,29.438330000000008,94.43966,0.3117157525586629,176.21841586840478,0.9296589129411764,0.1475800000000049,-0.1187699999999978,0.1894364518776704,0.3644600000000082,-0.0371300000000047,0.3663464596526167,0.1652500000000145,-0.1085500000000081,0.1977135933617275,0.4425899999999956,0.0440849999999812,0.4447801651658878,0.1668999999999982,-0.1315299999999979,0.2124988256438112,0.3762499999999704,-0.0785999999999944,0.3843722447055417,0.1634499999999548,-0.1171190000000024,0.2010789960711605,0.485499999999945,0.2797060000000044,0.5603085725169205,0.1002199999999788,-0.2025739999999984,0.2260094552800726,0.2356399999999894,-0.1287640000000038,0.2685263065250703,-0.0222799999999665,-0.0848359999999956,0.0877128570735087,-0.2267199999999434,0.0378400000000027,0.229856094111021,-0.2107899999999745,-0.2178449999999969,0.3031317669347571,0.2172500000000354,-0.4892099999999999,0.5352793537957683,-0.2940399999999386,-0.0685760000000073,0.3019307691772485,-0.2388399999999251,-0.0528920000000141,0.2446264688539768,-0.6940400000000295,-0.3226450000000085,0.7653700527359601,-0.1117700000000354,-0.4841750000000218,0.4969084055689026,0.210070000000087,0.1640900000000158,0.2665613118966099,0.6794700000001512,-0.3006899999999746,0.7430302530854247,-0.2256199999999921,-0.294399999999996,0.3709120440212128,0.0560600000000022,0.2642400000000293,0.2701212712838731,-0.1744500000000357,0.1714200000000119,0.2445764070797029,-0.6523800000000506,0.3810900000000288,0.7555324298136301,-0.2447499999999536,0.1411300000000039,0.2825247589149992,-0.3934699999999225,0.1647600000000011,0.4265729697249222,-0.3006599999999935,0.2412699999999858,0.3854966257958547,-0.8399000000000001,0.320559999999972,0.8989942845201977,-0.0510899999999878,0.2324000000000126,0.2379494654333239,-0.4241499999999973,0.2257800000000145,0.480499563891586,-0.6024199999999951,0.3524299999999982,0.6979375052968516,-1.6120199999999727,0.4297700000000191,1.6683257275783792,-0.0442499999999768,0.3316700000000026,0.334608803530331,-0.2899799999999572,0.2795500000000004,0.4027860510245798,0.1562749999999937,0.2729249999999865,137.678971,0.0636185905805222,105.9674,0.0712532082094999,95.388944,0.1166572808701153,-0.02898616,0.162862924,0.030552997730796,0,0
16,533.3333333333334,494.81793,95.21008,0.94188607,496.96866,92.853294,0.9169136,492.90573,93.09665,0.8643112,500.9396,93.0378,0.7826913,490.44955,93.69011,0.5698843,506.7232,105.23988,0.9931437,486.77777,106.36458,0.9929537,511.73868,121.79703,0.9696246,483.01562,122.88551,0.9482597,512.5208,140.01186,0.9500481,483.0474,138.09605,0.9191923,504.58282,137.60966,0.9952586,492.35986,138.14595,0.99506325,504.69168,163.00687,0.98943794,493.8292,163.33775,0.9869955,504.57367,187.37549,0.9732623,496.64133,187.54263,0.96900606,0.94199745,0.16359986,0.92755718,0.01523002,165.60611916995148,167.0516443455237,179.47694030208018,176.71112670152752,3.071008372396909,137.877805,105.80223,95.21008,29.50518,94.689336,0.3115998161440289,176.77257433873245,0.9269371894117646,0.382630000000006,-0.0398399999999981,0.3846985085752276,0.2350500000000011,0.0789299999999997,0.2479484773093,0.3613899999999717,-0.0236659999999915,0.3621640673175337,0.1961399999999571,0.0848840000000166,0.2137198939172158,0.4175099999999929,-0.0509500000000002,0.4206073021239576,0.2506099999999946,0.0805799999999976,0.2632460987365187,0.2598800000000096,-0.0278359999999935,0.2613665190800165,0.0964300000000548,0.0892830000000088,0.1314161291052668,0.3061500000000023,-0.1289359999999959,0.3321931886658731,0.2059300000000234,0.0736380000000025,0.2187000684590886,0.0504999999999995,0.0371059999999943,0.0626666197907588,0.0727799999999661,0.12194199999999,0.1420097875640711,-0.0986600000000521,-0.1466700000000003,0.1767650545215608,0.1121299999999223,0.0711749999999966,0.1328119630341412,-0.1277800000000297,0.2373100000000079,0.2695250721176257,0.1662599999999088,0.3058860000000152,0.3481503017318511,-0.4501399999999762,-0.2832700000000017,0.5318532809901426,0.2439000000000533,0.0393750000000068,0.24705788921835,-0.0857700000000249,0.7340599999999995,0.7390538387018929,-0.295840000000112,0.5699699999999837,0.6421737354486304,-0.1208400000000438,-0.4033900000000017,0.4211006978146818,0.1047799999999483,-0.1089900000000057,0.1511875275940129,-0.3017799999999511,0.1514799999999923,0.3376645655083875,-0.1273299999999153,-0.0199400000000196,0.1288818548127672,-0.3038099999999986,0.1205099999999959,0.3268381498540189,-0.0590600000000449,-0.020620000000008,0.0625561188054825,-0.5579799999999864,0.178370000000001,0.5857964981971001,-0.2573199999999929,-0.0628999999999848,0.2648961917430947,0.1750299999999924,0.2022499999999922,0.267470677645222,0.2261199999999803,-0.0301500000000203,0.2281211890640418,-0.8463100000000168,0.1835500000000252,0.8659856919141549,-0.2438900000000217,-0.168879999999973,0.2966526360914419,0.4952099999999859,0.2260100000000022,0.5443468234498913,0.5394599999999627,-0.1056600000000003,0.5497100392024507,0.1359950000000083,-0.0202799999999854,137.71032599999998,0.1107244555414618,105.925018,0.0954245911709774,95.366246,0.1410480940318158,-0.1564761399999999,0.142179578,0.0732040691711336,0,0
17,566.6666666666666,494.91452,94.88481,0.94471943,497.10312,92.53049,0.91921246,492.96704,92.76288,0.873193,501.08688,92.85477,0.78085035,490.46024,93.48766,0.58842516,506.84918,105.26056,0.99317354,486.8119,106.316895,0.9934495,511.97668,121.87244,0.9689098,482.95337,122.78529,0.9525275,512.5786,139.67139,0.94935113,482.75873,137.7546,0.924396,504.54028,137.68027,0.99512345,492.26453,138.16132,0.99511826,504.53128,163.22098,0.9887088,493.74976,163.48566,0.9866498,504.2969,187.61745,0.9710452,496.58026,187.72464,0.9674277,0.90735194,0.19430554,0.88432358,0.05920055,164.78326660456185,167.55846336780905,179.46974894125992,176.69592222706635,2.800649622177612,137.920795,105.7887275,94.88481,29.81987000000004,95.19415,0.313253174556912,176.98224705222302,0.9289577105882352,0.0965899999999919,-0.3252700000000033,0.3393084157518062,-0.286040000000014,-0.2854300000000052,0.4040905424530633,0.13445999999999,-0.322804000000005,0.3496883098074634,-0.2269299999999816,-0.2991380000000134,0.3754740576178329,0.0613099999999917,-0.3337700000000012,0.3393542824247247,-0.3562000000000012,-0.2828200000000009,0.4548247930797104,0.1472800000000234,-0.1830300000000022,0.2349284557051523,-0.1125999999999862,-0.1551940000000087,0.1917392438599871,0.0106900000000109,-0.2024499999999989,0.2027320364421957,-0.2954599999999914,-0.0735140000000029,0.3044682574522266,0.12597999999997,0.0206799999999987,0.1276660597026178,0.0754799999999704,-0.0164259999999956,0.0772466431373907,0.0341300000000046,-0.0476850000000013,0.058640567229525,0.1327900000000568,0.0989849999999989,0.1656237130516487,0.2379999999999995,0.0754099999999908,0.2496611065023913,0.3657800000000293,-0.161900000000017,0.4000082729144822,-0.0622500000000059,-0.100219999999993,0.1179792816557184,0.3878899999999703,0.1830500000000086,0.4289125255806597,0.0578000000000429,-0.3404700000000105,0.3453413686484897,0.1435700000000679,-1.07453000000001,1.084078902017764,-0.2886699999999678,-0.3414499999999805,0.4471224344628304,-0.1678299999999239,0.0619400000000212,0.178895143869187,-0.0425400000000308,0.0706100000000162,0.0824343599478089,0.2592399999999202,-0.080869999999976,0.271560922262307,-0.0953300000000467,0.0153699999999901,0.0965610987924672,0.2084799999999518,-0.1051400000000057,0.233491605844795,-0.1604000000000383,0.2141100000000051,0.2675280398388447,0.3975799999999481,0.0357400000000041,0.399183170987905,-0.0794400000000337,0.147909999999996,0.1678930662654184,-0.2544700000000262,-0.0543399999999962,0.2602072568165863,-0.2767699999999991,0.2419599999999775,0.367622461908938,0.5695400000000177,0.0584099999999523,0.5725273265967438,-0.0610699999999724,0.1820099999999911,0.1919822517838391,-0.5562799999999584,-0.0440000000000111,0.5580174176492654,0.0429900000000031,-0.0930050000000051,137.765626,0.1357260818890629,105.878066,0.0925740471738766,95.232766,0.2166170123282177,0.0439705299999999,0.124001816,0.0815569467500201,0,0
18,600.0,494.83047,94.639244,0.9454622,497.07397,92.266,0.9211516,492.8551,92.49518,0.8747572,501.13742,92.68996,0.78441566,490.35104,93.33161,0.5873899,506.98764,105.32649,0.992927,486.86456,106.32949,0.9931786,512.2621,122.147736,0.9674317,483.0933,122.79527,0.95020336,512.5089,139.91815,0.9470396,482.6328,137.5711,0.92103034,504.49173,137.78973,0.9946413,492.175,138.21626,0.99462885,504.3317,163.48196,0.98743165,493.7355,163.68683,0.9851452,504.08392,187.89473,0.96787393,496.76678,187.92697,0.96387166,0.964999,0.20388571,0.93345267,0.13535064,163.38637907011386,168.8847803273154,179.77534248216188,176.37799005865153,2.504437764021902,138.002995,105.82799,94.639244,29.876100000000065,95.66097,0.3123123222322305,177.14655272891636,0.92815175,-0.0840499999999906,-0.2455659999999966,0.259551657394047,-0.1806399999999826,0.0797040000000066,0.197442490908099,-0.0291500000000155,-0.264489999999995,0.2660914929117394,-0.1636100000000055,0.0583140000000099,0.1736915504450432,-0.1119400000000041,-0.2676999999999907,0.2901617714310346,-0.1732499999999959,0.0660700000000105,0.1854206229091035,0.0505400000000122,-0.1648100000000028,0.1723851144965891,-0.0967400000000111,0.0182199999999994,0.0984408248644947,-0.109199999999987,-0.1560500000000075,0.1904632313597549,-0.119889999999998,0.0463999999999913,0.1285557159367047,0.1384600000000091,0.0659300000000087,0.1533555884211712,0.0124800000000391,0.04525000000001,0.0469394599457842,0.052660000000003,0.0125950000000045,0.0541452641050021,0.0185299999999983,0.0602800000000058,0.063063771691841,0.2854200000000446,0.2752959999999973,0.3965507080009113,0.047420000000045,0.1998860000000064,0.2054338564988908,0.1399299999999925,0.0099799999999987,0.1402854422240522,0.2021799999999984,0.1101999999999918,0.2302624424433945,-0.0697000000000116,0.2467599999999947,0.2564148739835484,-0.1275000000000545,0.5872300000000052,0.6009120758480562,-0.1259300000000394,-0.1835000000000093,0.2225547458492254,0.1627399999999284,0.1579499999999711,0.2267873675934521,-0.0485499999999774,0.1094599999999843,0.1197438687365427,-0.0060099999999465,0.038849999999968,0.0393121177246517,-0.0895299999999679,0.0549400000000162,0.1050429650190627,0.0058000000000788,0.039570000000026,0.0399928106039445,-0.199579999999969,0.2609799999999893,0.3285463997671897,-0.0391799999999307,0.0468699999999842,0.0610890276563073,-0.0142599999999788,0.2011699999999905,0.2016747790379242,0.0651800000000548,0.0532599999999945,0.0841727984565475,-0.2129800000000159,0.2772800000000188,0.3496350651751297,0.0637899999999831,0.0353200000000413,0.0729154750378873,0.1865199999999731,0.2023300000000176,0.275185645156133,0.2475899999999455,0.0203200000000265,0.2484224436317583,0.0822000000000002,0.039209999999997,137.82578800000002,0.1642469388450174,105.8568624,0.0886142652000912,95.0705488,0.3004388001859936,0.07615009,0.116435938,0.0775084330527028,0,0
19,633.3333333333333,494.20328,94.36736,0.93677014,496.49524,91.92851,0.90922844,492.1988,92.10205,0.8639581,500.85287,92.398026,0.73040855,489.95712,92.994934,0.54126674,507.56097,105.415245,0.9859021,486.85043,106.29631,0.98640037,513.5401,122.43089,0.9461185,483.00977,123.07738,0.9260862,512.23395,139.61472,0.92299145,482.52625,138.4075,0.8966783,504.712,138.23598,0.989442,492.06018,138.49454,0.9893568,503.4305,163.59499,0.9788578,493.61456,163.55815,0.9754768,501.5844,187.58835,0.9560387,496.0938,187.26462,0.9514422,1.10248038,0.15819566,1.08968317,0.05502458,156.29230934762984,168.91535703967995,178.49314798526046,177.57845648002453,2.0794931138036685,138.36526,105.8557775,94.36736,31.013850000000048,95.65984,0.3242097172208351,177.5639995315873,0.91096607,-0.6271899999999846,-0.271884,0.6835848195768983,-0.543139999999994,-0.0263180000000033,0.5437772491783687,-0.5787299999999505,-0.3374900000000025,0.6699462015713981,-0.5495799999999349,-0.0730000000000075,0.5544070493779183,-0.6562999999999874,-0.3931299999999993,0.7650365265135927,-0.5443599999999833,-0.1254300000000086,0.5586237503901745,-0.2845500000000243,-0.2919339999999977,0.4076691831080839,-0.3350900000000365,-0.1271239999999949,0.358393386484772,-0.3939200000000369,-0.3366759999999971,0.5181927203039687,-0.2847200000000498,-0.1806259999999895,0.3371813017888515,0.5733299999999986,0.0887549999999919,0.5801592358352979,0.4348699999999894,0.0228249999999832,0.4354685953372413,-0.014129999999966,-0.0331800000000015,0.0360634066610344,-0.066789999999969,-0.0457750000000061,0.0809707028807112,1.27800000000002,0.2831540000000103,1.3089920502875705,0.9925799999999754,0.007858000000013,0.9926111043928288,-0.0835299999999961,0.2821100000000029,0.2942164390376598,-0.2234599999999886,0.2721300000000042,0.3521208720027786,-0.2749499999999898,-0.3034299999999916,0.4094719372557652,-0.2052499999999781,-0.5501899999999864,0.5872278932407555,-0.1065499999999701,0.8363999999999976,0.843159452594816,0.0193800000000692,1.019900000000007,1.0200841114339625,0.2202699999999708,0.4462500000000204,0.4976524242882831,0.2688199999999483,0.3367900000000361,0.4309195940079733,-0.1148200000000088,0.2782799999999952,0.3010371917222178,-0.0252900000000408,0.223339999999979,0.2247673012250507,-0.9012000000000172,0.113030000000009,0.9082605468146422,-0.7016200000000481,-0.1479499999999802,0.7170493894426392,-0.1209400000000187,-0.1286799999999743,0.1765928254488215,-0.1066800000000398,-0.3298499999999649,0.3466722442019051,-2.4995199999999613,-0.3063800000000185,2.518227339776895,-2.2865399999999454,-0.5836600000000374,2.359856810740812,-0.6729799999999955,-0.6623500000000035,0.9442508156734624,-0.8594999999999686,-0.8646800000000212,1.2191848721174252,0.3622650000000078,0.2800650000000075,137.981733,0.2343195186758145,105.8263474,0.0308466062672051,94.8702828,0.3762006944959007,-0.08032606,0.08730239,0.0641455915583331,0,0
20,666.6666666666666,494.34503,94.13722,0.9347111,496.7003,91.702545,0.90621316,492.39832,91.857086,0.8616528,501.2178,92.264114,0.7229439,490.21927,92.81167,0.5392585,507.78534,105.34608,0.9846401,486.97,106.24275,0.9852544,513.55426,122.21872,0.9408468,482.8314,123.147705,0.92073697,511.87863,139.04839,0.9160115,482.4496,138.8105,0.88947314,504.79547,138.31024,0.98794717,492.00372,138.56041,0.9878781,503.37128,163.24954,0.97547716,493.03262,163.20398,0.9717136,501.9618,186.6439,0.949955,495.7624,186.30482,0.9449442,1.06280267,0.14763291,1.05185377,0.03684682,155.4380806590092,167.6400342575457,179.82053724963137,175.6515057832977,1.7932924977981923,138.43532499999998,105.794415,94.13722,31.104660000000024,94.941355,0.3276197150586307,177.53337377469143,0.9070386823529412,0.1417500000000018,-0.2301400000000057,0.2702914761882127,0.7689399999999864,0.0417439999999942,0.770072259684751,0.2050600000000031,-0.2259650000000022,0.3051389598609169,0.7837899999999536,0.1115250000000003,0.7916846529552832,0.1995200000000068,-0.2449640000000101,0.3159360563405318,0.8558199999999943,0.1481659999999891,0.8685511130359497,0.3649300000000153,-0.1339119999999951,0.3887239748767881,0.6494800000000396,0.1580220000000025,0.6684274252931669,0.2621500000000196,-0.1832639999999941,0.3198567119758598,0.6560700000000566,0.153412000000003,0.6737678284424651,0.2243700000000217,-0.0691649999999981,0.2347886158334971,-0.3489599999999768,-0.15791999999999,0.3830297742995715,0.1195700000000101,-0.0535600000000044,0.1310177793278565,0.1336999999999761,-0.0203800000000029,0.1352443507137867,0.0141599999999471,-0.2121700000000004,0.2126419866818373,-1.263840000000073,-0.4953240000000107,1.357437810942437,-0.1783700000000294,0.0703249999999968,0.1917327893841063,-0.0948400000000333,-0.2117850000000061,0.2320506665041256,-0.3553200000000629,-0.5663299999999936,0.6685671030644847,-0.0803700000000731,-0.2629000000000019,0.2749104343236407,-0.0766500000000292,0.4029999999999916,0.4102246000668386,0.0298999999999409,-0.433400000000006,0.4344301670004072,0.0834700000000339,0.0742599999999811,0.1117219248849698,-0.1367999999999369,-0.3719900000000393,0.3963468179511626,-0.0564600000000155,0.0658699999999896,0.0867559133431283,0.0583599999999933,-0.2124100000000055,0.2202814057064317,-0.059219999999982,-0.3454499999999996,0.3504892450561038,0.841980000000035,-0.4584800000000086,0.9587148850414636,-0.5819399999999746,-0.3541700000000105,0.681241919218113,-0.4609999999999559,-0.2254900000000361,0.5131926929526331,0.377399999999966,-0.9444499999999892,1.0170627131597902,2.8769199999999278,-0.6380699999999706,2.9468291452507973,-0.3313999999999737,-0.9598000000000012,1.0154023832944186,0.3415800000000217,-0.2974499999999977,0.4529386259748814,0.0700649999999711,-0.2922000000000366,138.12043599999998,0.2605823251967867,105.81382800000002,0.0278466158968122,94.6477428,0.4218246843407792,-0.0181777599999999,0.060330522,0.0453954499433557,0,0
21,700.0,494.6151,93.469604,0.9249836,497.0154,91.060524,0.8973182,492.78952,91.12548,0.8362953,501.53284,91.7838,0.7233397,490.63904,92.0815,0.4933639,507.91486,105.18994,0.9843642,487.09302,105.76163,0.9824683,513.7347,122.47656,0.9436461,483.03656,122.74713,0.9046831,512.0766,140.05942,0.91822,482.32877,138.52295,0.87253106,504.39624,138.62802,0.9891262,491.61627,138.76137,0.9880492,502.77567,163.91226,0.9798014,492.68552,163.81369,0.9744703,502.1018,187.55331,0.95944476,495.9674,187.13774,0.9521863,0.99184009,0.12257707,0.98331869,0.04249666,156.00612330785646,169.13714505433208,177.965423753558,174.4345473360294,0.8664379583663057,138.694695,105.475785,93.469604,31.405929999999955,96.492786,0.3254743797585611,178.42726689593036,0.9014289188235294,0.2700699999999756,-0.6676159999999953,0.7201728461667939,0.1283199999999738,-0.4374759999999895,0.4559070880957918,0.3150999999999726,-0.6420209999999997,0.7151775824513674,0.1100399999999695,-0.4160559999999975,0.4303619369042658,0.3911999999999693,-0.7316059999999993,0.8296293023007173,0.1916799999999625,-0.4866419999999891,0.5230312214045879,0.3150400000000104,-0.480314000000007,0.5744142583502027,-0.0498900000000048,-0.3464020000000118,0.3499762244839051,0.4197700000000282,-0.7301700000000011,0.8422322018303653,0.1576200000000085,-0.546906000000007,0.5691662650192915,0.1295199999999567,-0.1561399999999935,0.202867271879884,-0.0948500000000649,-0.0869749999999953,0.1286902215594157,0.1230199999999968,-0.4811200000000042,0.4965988066840306,0.0034499999999866,-0.4275599999999997,0.4275739188725145,0.1804399999999759,0.2578400000000016,0.3147063062602848,0.1662800000000288,0.470010000000002,0.4985563543873565,0.2051600000000348,-0.4005750000000034,0.4500566144664658,0.3835300000000643,-0.4709000000000003,0.6073236953223953,0.1979699999999979,1.0110299999999768,1.0302299654931186,0.5532900000000609,1.5773599999999703,1.6715843962241257,-0.1208299999999553,-0.2875499999999817,0.3119052602954601,-0.0441799999999261,-0.6905499999999734,0.6919618305224333,-0.3992300000000455,0.317779999999999,0.5102633842438978,-0.4827000000000794,0.2435200000000179,0.5406489437704335,-0.3874500000000012,0.2009600000000091,0.4364658338289546,-0.3309899999999857,0.1350900000000194,0.3574964170449765,-0.595610000000022,0.6627200000000073,0.8910381981150055,-0.5363900000000399,1.008170000000007,1.1419811649059963,-0.3471000000000117,0.6097100000000069,0.7015872676296346,0.2348399999999628,0.9638800000000174,0.9920758438748604,0.1400000000000432,0.9094100000000084,0.9201231157296436,-0.2373999999999227,1.8538599999999972,1.868998571321004,0.204999999999984,0.8329200000000014,0.8577766180072733,0.5363999999999578,1.7927200000000028,1.87124823537658,0.2593700000000183,0.1893050000000471,138.28381399999998,0.3197867786978857,105.748539,0.1548604409683307,94.2996476,0.5426050178359911,0.0056498399999999,0.06578385,0.0399320827281898,0,0
22,733.3333333333333,494.5046,92.907234,0.92295307,496.87274,90.52365,0.89609,492.71027,90.567696,0.8296973,501.3194,91.319214,0.7265425,490.54675,91.55853,0.4809182,507.83154,104.832985,0.9847973,486.85492,105.28404,0.9819256,513.9071,122.44908,0.9466687,482.8795,122.34125,0.90179306,512.1093,140.19656,0.9210886,482.03604,137.78404,0.8693386,504.11194,138.3968,0.98957086,491.1781,138.48164,0.9881551,502.74088,163.91245,0.98046,492.11127,163.79213,0.9745113,502.44635,187.74622,0.95994806,495.38873,187.31192,0.9516578,0.91272861,0.115699,0.90004489,0.09801253,155.1870898943971,170.00691304485,177.6322263068512,174.1784487607279,0.5181782987004415,138.43922,105.0585125,92.907234,31.87106,97.22257,0.3278154411283775,178.76817304911614,0.9003597676470588,-0.1105000000000018,-0.5623700000000014,0.5731232562896065,-0.3805699999999774,0.1052459999999939,0.3948547143139886,-0.142659999999978,-0.5368739999999974,0.5555047861863937,-0.4577599999999506,0.1051470000000023,0.4696808588913916,-0.0792500000000018,-0.5577839999999981,0.5633857942440492,-0.4704499999999711,0.1738220000000012,0.5015349341610944,-0.2134400000000482,-0.464585999999997,0.5112697771196903,-0.5284800000000587,0.0157280000000099,0.5287139873164529,-0.0922900000000481,-0.5229700000000008,0.5310509062227554,-0.5120600000000763,0.2072000000000002,0.5523923276079044,-0.0833199999999578,-0.3569550000000134,0.3665502617991188,-0.2128399999999146,-0.2008150000000199,0.2926218204867362,-0.2381000000000313,-0.4775899999999922,0.5336514012911494,-0.3611200000000281,0.003530000000012,0.3611372527170526,0.1724000000000387,-0.0274800000000112,0.1745763741175018,-0.0080399999999372,-0.2853200000000129,0.2854332566468146,-0.1570600000000013,-0.4058799999999962,0.4352084764799478,-0.3622200000000362,-0.0053049999999927,0.3622588458892704,0.032699999999977,0.1371400000000164,0.1409846431353536,-0.1652700000000209,-0.8738899999999603,0.8893806299891727,-0.2927300000000059,-0.7389100000000042,0.7947822601190905,-0.1719000000000505,-0.4513600000000224,0.4829859828194164,-0.2842999999999733,-0.2312199999999791,0.3664548790778684,0.1149300000000721,-0.5489999999999782,0.5609009760198252,-0.4381700000000137,-0.2797300000000007,0.519847883327433,-0.0507200000000125,-0.4806900000000098,0.4833584534276924,-0.0347899999999867,0.0001900000000034,0.0347905188233673,0.5608200000000352,-0.6625300000000038,0.8680236594126018,-0.5742500000000064,-0.0215600000000222,0.5746545885138378,-0.2271499999999946,-0.6312700000000291,0.6708941312904997,0.3445499999999697,0.1929099999999834,0.3948784250879918,0.2045499999999265,-0.7165000000000248,0.7451261319400934,-0.5786699999999882,0.1741799999999784,0.6043158456469422,-0.7836699999999723,-0.658740000000023,1.0237563462562695,-0.2554749999999899,-0.5148450000000082,138.387499,0.2488321068862999,105.602496,0.3405164058575677,93.9041324,0.7056769893972684,0.05551587,0.073546246,0.0420486591385275,0,0
23,766.6666666666667,495.0343,92.2133,0.9227095,497.38235,89.85898,0.8947062,493.28833,89.84961,0.8280011,501.65744,90.729126,0.7274798,491.01035,90.810715,0.4818984,507.9831,104.509125,0.9861773,486.94537,104.580154,0.9835369,513.835,122.674194,0.9521433,482.83545,121.42433,0.91017944,511.64224,141.08813,0.9283796,481.7939,136.6313,0.8794877,503.62573,138.3931,0.99145645,490.67346,138.32448,0.9902648,502.11783,164.30083,0.9842659,491.63794,164.07318,0.9792718,502.04483,188.42268,0.96699333,495.20197,187.90459,0.95976424,0.91724474,0.15205453,0.89930795,0.09727559,155.35269729424255,170.20611265070468,176.84238064624736,173.63950019588435,0.5333027669404228,138.35879,104.5446395,92.2133,32.04110000000003,98.57307000000002,0.3250492216073903,179.8065548678714,0.9039244564705884,0.5296999999999912,-0.6939339999999987,0.8729985603401582,0.640199999999993,-0.1315639999999973,0.6535787068869291,0.5096099999999524,-0.664670000000001,0.8375491394538906,0.6522699999999304,-0.1277960000000035,0.6646713251795282,0.5780599999999936,-0.7180859999999996,0.9218464443691216,0.6573099999999954,-0.1603020000000015,0.6765745836964276,0.338040000000035,-0.5900880000000086,0.6800550634647416,0.5514800000000832,-0.1255020000000115,0.5655801821175267,0.4636000000000422,-0.7478150000000028,0.8798592127295385,0.5558900000000904,-0.2248450000000019,0.5996406975223592,0.1515599999999608,-0.3238599999999962,0.3575692005751973,0.2348799999999187,0.0330950000000171,0.237200112615831,0.0904500000000325,-0.7038860000000113,0.7096736598578405,0.3285500000000638,-0.2262960000000191,0.3989423293109552,-0.0720999999999776,0.2251140000000049,0.2363783471386475,-0.2445000000000163,0.2525940000000162,0.3515451305821433,-0.044050000000027,-0.9169200000000046,0.9179774991251206,0.1130099999999743,-0.5110400000000084,0.5233862261275155,-0.4670599999999467,0.8915700000000015,1.0064999297068793,-0.4997599999999238,0.7544299999999851,0.9049445742695524,-0.2421400000000062,-1.1527399999999943,1.1778969764796876,0.0505899999999996,-0.4138299999999901,0.4169108022107268,-0.4862100000000282,-0.0037000000000091,0.4862240780751479,-0.2019100000000548,0.2275199999999699,0.3041923708773915,-0.5046399999999949,-0.1571600000000046,0.5285459253461295,-0.0664699999999811,0.122569999999996,0.139433374053691,-0.6230499999999779,0.3883799999999837,0.734186847403275,-0.5882599999999911,0.3881899999999803,0.7047987682310279,-0.4733299999999758,0.2810500000000218,0.5504819628289281,0.1009200000000305,0.302610000000044,0.3189947624962403,-0.401520000000005,0.67646000000002,0.7866488683015003,-0.7460699999999747,0.4835500000000365,0.8890675156589614,-0.1867599999999925,0.5926700000000267,0.6213992488730806,0.3919099999999957,0.4184900000000482,0.5733474759690123,-0.0804300000000068,0.175044999999983,138.458658,0.1372338641971293,105.3458259,0.5483203488880463,93.4189436,0.8850712309847022,-0.00073694,0.0659312359999999,0.0296888687215213,0,0
24,800.0,494.27707,91.090515,0.9184958,496.6847,88.76897,0.89575636,492.75,88.74376,0.80866337,501.33734,89.819984,0.7472183,491.05222,89.914185,0.4397382,508.11902,104.00381,0.9867317,487.2229,104.06612,0.9821644,514.09186,122.23253,0.9571446,482.9988,120.97209,0.9016262,511.4381,140.68007,0.93468976,481.5065,136.49615,0.8721207,503.38675,138.11632,0.9921672,490.52014,137.94754,0.99044377,501.5495,163.90427,0.9861624,490.91202,163.57272,0.98033375,501.79645,188.31055,0.97112256,494.65894,187.63597,0.9627452,0.92126711,0.17760165,0.90397522,0.00442162,153.6719583644838,171.46225560644586,175.34515839157217,172.02561509374368,1.2091430203597129,138.03193,104.034965,91.090515,32.58535999999998,99.56679,0.3272713690250394,179.82915060594448,0.90160731,-0.7572299999999927,-1.1227850000000077,1.3542685956356686,-1.286929999999984,-0.4288510000000087,1.3565035956830214,-0.6976499999999533,-1.0900100000000066,1.294155061265824,-1.2072599999999056,-0.4253400000000056,1.2799964153073933,-0.5383299999999736,-1.1058500000000038,1.2299200833387427,-1.1163899999999671,-0.3877640000000042,1.1818153628193917,-0.3201000000000249,-0.9091419999999886,0.9638481136382409,-0.6581400000000599,-0.3190539999999799,0.7313984649396429,0.0418699999999603,-0.8965299999999985,0.8975071798041473,-0.4217300000000819,-0.1487149999999957,0.4471826742228144,0.1359199999999987,-0.505314999999996,0.5232757357502787,-0.0156399999999621,-0.1814549999999997,0.182127775545079,0.2775299999999561,-0.5140339999999952,0.584169371035465,0.1870799999999235,0.1898520000000161,0.2665383805457996,0.2568599999999605,-0.4416640000000029,0.5109247972999377,0.3289599999999382,-0.6667780000000079,0.7435103112156346,0.1633500000000367,-0.4522400000000033,0.4808370203093923,0.2074000000000637,0.4646800000000013,0.5088636972707207,-0.2041399999999953,-0.4080600000000061,0.4562741535524482,0.2629199999999514,-1.2996300000000076,1.3259581680053087,-0.287399999999991,-0.1351500000000101,0.3175913766146643,-0.0452599999999847,1.0175899999999842,1.0185960316533569,-0.2389799999999695,-0.2767800000000022,0.3656755512746056,0.2472300000000586,-0.2730799999999931,0.368368510190577,-0.153319999999951,-0.3769399999999905,0.4069284777451412,0.3513200000000438,-0.2197799999999858,0.4144019676594508,-0.5683300000000031,-0.3965599999999938,0.6930070869045991,0.0547199999999747,-0.7849399999999775,0.786845017776666,-0.7259200000000305,-0.5004600000000039,0.8817142723127761,-0.2525900000000547,-0.7815100000000257,0.8213157664382608,-0.2483799999999973,-0.1121300000000076,0.2725174513677985,0.1531400000000076,-0.7885900000000277,0.8033218829958797,-0.5430300000000443,-0.2686200000000269,0.6058368470966937,-0.3562700000000518,-0.8612900000000536,0.932066938046903,-0.3268600000000106,-0.2464300000000037,138.39199200000002,0.2379518626371235,104.9816634,0.706727467414738,92.7635746,1.1734508705492406,-0.09285397,0.055810644,0.0408597035814863,0,0
25,833.3333333333334,495.55035,90.66876,0.9376029,497.83267,88.217606,0.9190307,493.61563,88.34334,0.8425618,502.06165,88.95017,0.8013882,490.95816,89.32904,0.50083417,508.4582,103.04697,0.9929004,487.2412,103.118004,0.9910691,514.32196,122.28882,0.97249174,483.63852,120.16092,0.9355137,511.22366,141.7095,0.953453,481.0653,134.94232,0.90520185,503.58777,137.6727,0.9947825,490.40698,137.50809,0.9939313,502.0221,163.89804,0.98801184,490.0434,163.66006,0.9833173,502.84473,188.45087,0.9683248,493.68018,188.04993,0.9597014,0.8615237,0.13854403,0.83986176,-0.13289418,153.9875673042317,177.9393994180404,174.66451068388284,170.72258842582664,1.4149515284594378,137.590395,103.082487,90.66876,33.25666000000001,100.233264,0.3317926438892319,179.80817584034358,0.9200068647058824,1.2732799999999995,-0.4217549999999903,1.3413125058781012,2.0305099999999925,0.7010300000000171,2.148118693415239,1.1479699999999866,-0.5513639999999924,1.273513793170675,1.84561999999994,0.5386460000000142,1.9226161077333648,0.8656300000000101,-0.4004199999999969,0.9537565062949848,1.4039599999999837,0.7054300000000069,1.5712209158803747,0.7243100000000027,-0.8698140000000052,1.131901661230344,1.0444100000000276,0.0393279999999833,1.0451501995809294,-0.0940599999999562,-0.5851449999999971,0.5926566920443811,-0.1359299999999166,0.3113850000000013,0.3397610677004918,0.3391799999999989,-0.9568399999999996,1.0151777469980312,0.2032600000000002,-0.4515250000000037,0.4951660865053295,0.0183000000000106,-0.9481159999999988,0.9482925916909812,-0.2592299999999454,-0.4340820000000036,0.5055960597393683,0.2300999999999931,0.0562900000000041,0.2368851495978532,-0.0267599999999674,0.4979540000000071,0.4986725215168822,0.6397200000000112,-0.81116999999999,1.0330723340115144,0.4763699999999744,-0.3589299999999866,0.5964554650600211,-0.2144400000000246,1.0294299999999907,1.0515277640176657,-0.0103000000000292,1.4374899999999968,1.437526900652642,-0.4412000000000375,-1.553830000000005,1.6152538837285142,-0.1538000000000465,-1.4186799999999948,1.426992425487956,0.2010199999999713,-0.4436200000000099,0.4870397774309581,0.4399999999999409,-0.1668400000000076,0.4705694269711437,-0.1131600000000503,-0.4394499999999937,0.4537857292820102,0.0401599999999007,-0.0625100000000031,0.0742988943389632,0.4725999999999999,-0.0062299999999879,0.4726410613774471,1.040930000000003,0.3903300000000058,1.1117071439007715,-0.8686199999999644,0.0873399999999833,0.8729999885452092,-0.1426999999999338,0.5877999999999872,0.6048736479629164,1.048280000000034,0.1403200000000026,1.0576297371008776,1.2966600000000312,0.2524500000000103,1.3210064943444018,-0.9787599999999655,0.413960000000003,1.0627012840868948,-0.4357299999999213,0.6825800000000299,0.809800030439597,-0.4415349999999876,-0.1146749999999769,138.223006,0.4255534679302657,104.4392778,0.9318328702577684,92.0698826,1.18355939346987,-0.1373158,0.0218624439999999,0.0950862030883499,0,0
26,866.6666666666667,496.2233,90.342834,0.9432014,498.44794,87.85251,0.91926384,494.02438,88.00418,0.86797315,502.3201,88.59648,0.77976376,490.79135,88.98241,0.5633176,508.3055,102.77901,0.99267584,486.8471,102.737526,0.99239653,514.09186,122.311005,0.96839315,483.16766,119.70136,0.94612616,511.27902,141.87355,0.9478535,480.97614,133.84596,0.9163024,503.4184,137.60442,0.9945754,489.971,137.43597,0.9943399,501.75623,164.35449,0.9871516,489.00397,164.13907,0.9840694,501.86966,189.42006,0.9660212,491.3717,189.15872,0.9602974,0.93807008,0.27340337,0.89636021,0.04200537,155.31575148624313,176.56935537123073,176.18509973746342,172.51991240266082,1.4528363838878458,137.520195,102.758268,90.342834,33.11572000000001,101.56755,0.3260462586126548,-179.88923427859217,0.9249248370588234,0.6729500000000144,-0.3259260000000097,0.7477228497083833,-0.6003299999999854,0.0958289999999806,0.6079303464550677,0.6152700000000095,-0.3650960000000083,0.7154385103669062,-0.5326999999999771,0.1862679999999841,0.5643270840779926,0.4087499999999977,-0.3391599999999926,0.5311365813987896,-0.4568800000000124,0.0612600000000043,0.4609686778947262,0.2584500000000389,-0.3536900000000003,0.4380559537319637,-0.4658599999999637,0.5161240000000049,0.695276580200981,-0.1668099999999981,-0.3466300000000046,0.3846789999467122,-0.0727500000000418,0.2385149999999924,0.2493631242285083,-0.1526999999999816,-0.2679600000000022,0.30841506383443,-0.4918799999999805,0.6888799999999975,0.8464641686450628,-0.3940999999999803,-0.3804779999999965,0.5477940475068909,-0.412399999999991,0.5676380000000023,0.7016314267790428,-0.2300999999999931,0.0221849999999932,0.2311670050526167,-0.4601999999999862,-0.0341050000000109,0.4614620147151746,-0.470860000000016,-0.4595600000000104,0.6579548109103122,-1.1105800000000272,0.3516099999999795,1.1649109530346284,0.0553600000000074,0.1640500000000031,0.1731390542309904,0.269800000000032,-0.8653799999999876,0.906462676782666,-0.0891599999999925,-1.0963600000000042,1.099979433989567,0.352040000000045,0.4574700000000007,0.5772442832112176,-0.169369999999958,-0.0682799999999872,0.1826153205511083,-0.3703899999999294,0.3753400000000226,0.5273223565334251,-0.4359799999999723,-0.0721200000000124,0.4419048028704572,-0.3228199999999219,0.3673299999999813,0.4890235999416959,-0.2658700000000067,0.4564499999999896,0.5282361776705511,-0.7384700000000066,0.4626799999999775,0.8714417498031575,-1.0394300000000385,0.4790100000000166,1.1444934709294308,-0.170810000000074,0.3916700000000332,0.4272955007954698,-0.9750700000000164,0.9691899999999976,1.3748057175470385,-2.0233500000000504,0.8288699999999949,2.186543093424,-2.3084800000000314,1.108789999999999,2.56095591029993,-1.3297200000000655,0.6948299999999961,1.500314636101431,-0.0701999999999998,0.3713349999999877,137.98810600000002,0.4242480864040284,103.8957744,0.967951062213068,91.4445286,1.0806699419858814,0.17489955,0.0217641859999999,0.0950598001204632,0,0
27,900.0,496.42776,90.29158,0.9385158,498.39438,87.82716,0.9038934,494.13382,88.03301,0.8701334,501.87686,88.572426,0.73381,490.59082,88.991035,0.6030096,507.7687,102.56365,0.9920034,486.2647,102.49922,0.99291795,513.97284,122.019196,0.9584262,481.66174,119.69178,0.9467815,511.30502,140.9838,0.92851764,479.39423,133.79399,0.9081205,503.11255,137.98155,0.9935974,489.51056,137.82477,0.9938736,501.60843,164.96706,0.98202735,487.65945,164.79465,0.9799825,500.9076,190.80354,0.9529752,488.96054,190.70872,0.9493653,1.07115952,0.34169281,0.96293012,0.32154988,154.30567981674818,174.14619599069508,178.36354383125612,173.19930793667362,1.142136976306785,137.90316,102.531435,90.29158,34.578610000000026,102.97638,0.3357916608081229,-179.82833165794634,0.91929122,0.2044599999999832,-0.0512540000000001,0.2107862996401643,-0.4684900000000311,0.2746720000000096,0.5430723595286677,-0.0535600000000044,-0.0253499999999888,0.0592561903939151,-0.668830000000014,0.3397460000000194,0.7501739221114208,0.1094400000000064,0.0288299999999992,0.1131736828949264,-0.2993099999999913,0.3679899999999918,0.4743449337770867,-0.4432400000000029,-0.0240540000000066,0.4438922082172686,-0.7016900000000419,0.3296359999999936,0.7752604392048227,-0.2005300000000147,0.0086249999999949,0.2007153993220396,-0.0337200000000166,0.3552549999999996,0.3568517247050949,-0.5367999999999711,-0.215360000000004,0.5783892889741049,-0.3840999999999894,0.0525999999999982,0.3876848849258785,-0.5824000000000069,-0.2383060000000085,0.6292690280285628,-0.1883000000000265,0.1421719999999879,0.2359444163018201,-0.1190199999999777,-0.2918090000000006,0.3151479856844956,0.1110800000000153,-0.3139939999999939,0.333063054744893,-1.5059200000000033,-0.0095799999999997,1.5059504715627303,-1.0350599999999872,0.4499800000000107,1.128641308831102,0.0260000000000104,-0.8897499999999923,0.8901298009279247,-0.0293599999999969,-1.0537999999999954,1.054208921229559,-1.5819099999999937,-0.0519699999999829,1.5827634469496628,-1.492750000000001,1.0443900000000212,1.8218268399054964,-0.3058500000000208,0.3771299999999939,0.4855628274487331,-0.1364800000000627,0.4454099999999812,0.4658506826226622,-0.4604400000000055,0.3888000000000033,0.6026362365473948,-0.0244600000000332,0.4609200000000157,0.4615685626210001,-0.1478000000000179,0.6125700000000052,0.6301482721550632,0.1180699999999888,0.1561200000000155,0.195739570092514,-1.3445199999999886,0.6555799999999863,1.495833936906083,-0.3050899999999501,0.1765699999999697,0.3525008836867772,-0.962060000000008,1.3834799999999916,1.6851042561218554,0.0130100000000084,0.414289999999994,0.4144942269802986,-2.4111599999999958,1.5500000000000114,2.866390159346772,-0.1026799999999639,0.4412100000000123,0.4530004928253427,0.3829650000000129,0.4531650000000127,137.88089399999998,0.3413889542991741,103.3903589,0.8631273090276191,90.9213978,0.7894371905916038,0.27954451,0.066471656,0.1659889494748705,0,0
28,933.3333333333334,496.70676,90.265,0.91613734,498.4721,87.85257,0.86871374,494.53217,88.03228,0.8321274,501.66434,88.57612,0.68331194,491.01407,88.90251,0.5639981,507.68726,102.356476,0.9901246,486.0232,102.307434,0.9912088,513.85187,121.686066,0.952828,480.5711,119.989044,0.9407662,511.3772,140.46243,0.91975164,477.68442,135.33821,0.8987371,502.78305,137.62135,0.9938076,489.0926,137.48772,0.99403304,501.85733,164.74533,0.9845691,487.315,164.63377,0.9827784,500.69205,191.17482,0.9613327,487.7824,191.16962,0.95823044,1.12504608,0.15696744,1.09975463,0.1778473,154.80328822010503,173.51398977206253,179.43014881772925,175.2443603807704,1.4920472113071404,137.554535,102.331955,90.265,36.16744999999997,103.32225,0.3500451224199516,-179.87029694253704,0.9077915376470588,0.2789999999999963,-0.0265799999999956,0.2802632626656546,0.0745400000000131,0.0246740000000045,0.078517627804221,0.0777199999999993,0.0254099999999937,0.0817683710244956,0.1312800000000038,0.0507599999999826,0.140751611003211,0.3983499999999935,-0.0007300000000043,0.398350668883579,0.2889099999999871,-0.0295600000000035,0.2904182874751395,-0.2125200000000404,0.00369400000001,0.2125521019327197,0.2307199999999625,0.0277480000000167,0.2323825938059553,0.4232499999999959,-0.0885249999999899,0.4324086471441046,0.6237800000000107,-0.0971499999999849,0.631299937351502,-0.0814400000000432,-0.2071739999999948,0.2226062440184572,0.4553599999999278,0.0081860000000091,0.4554335738567529,-0.2415000000000304,-0.1917859999999933,0.3083895585067889,0.3408999999999764,0.0465200000000152,0.3440594721846579,-0.1209700000000566,-0.333129999999997,0.3544140767520553,-0.0019500000000789,-0.0413209999999963,0.041366986124203,-1.0906400000000076,0.2972640000000126,1.1304253603383216,0.4152799999999956,0.3068440000000123,0.5163436053017447,0.072180000000003,-0.5213699999999903,0.5263426918842802,0.0461799999999925,0.3683800000000019,0.3712632715472952,-1.7098100000000045,1.5442199999999957,2.303923966735882,-0.127900000000011,1.596189999999979,1.601306006389764,-0.3294999999999959,-0.3601999999999918,0.4881744462791876,-0.023649999999975,-0.7373299999999858,0.7377091916195554,-0.4179599999999936,-0.3370500000000049,0.5369294777715208,0.0424800000000118,-0.7258500000000083,0.72709199754915,0.2488999999999919,-0.2217300000000079,0.3333397709545014,0.3967000000000098,-0.8343000000000131,0.92381133355249,-0.3444499999999948,-0.1608799999999917,0.3801686164059229,1.0000699999999938,-0.816459999999978,1.2910255367342474,-0.2155500000000074,0.3712800000000129,0.4293141517583747,0.7465100000000007,-1.012199999999979,1.2577066510518091,-1.1781399999999849,0.4609000000000094,1.2650860324894797,1.2330200000000104,-1.089100000000002,1.6451374199136162,-0.3486250000000268,-0.7315900000000397,137.72004299999998,0.231811378889151,102.947822,0.6686956667737218,90.5317378,0.3519646683392505,-0.14370258,0.082585998,0.1734694620294578,0,0
29,966.6666666666666,495.7803,90.91649,0.32090893,495.33408,88.16432,0.22223487,495.18048,88.22397,0.1794873,490.5508,88.43764,0.7795645,499.32892,88.95615,0.69324493,484.814,101.584274,0.9918468,506.1729,102.54623,0.9929565,478.53906,120.886185,0.94063747,513.41394,122.905304,0.9308401,476.1776,136.91628,0.8123189,510.33896,140.02383,0.7794717,487.81277,136.88994,0.9954477,501.8507,137.24309,0.99566525,487.06622,164.90929,0.98690414,500.7319,165.26385,0.9851162,487.82513,191.89447,0.96657795,499.9871,192.34377,0.96293914,1.20196876,0.02137115,1.2012062,0.03709246,170.3711597059908,150.23786160776135,176.8628490998261,179.28898194170498,1.0831606484238376,137.06651499999998,102.065252,90.91649,37.23634000000004,104.17945,0.3574249973730428,2.5787282336390325,0.796244845882353,-0.9264599999999632,0.6514899999999955,1.132593197798718,-1.2054599999999596,0.6780699999999911,1.383080885740198,-3.13802000000004,0.3117500000000035,3.1534675490482305,-3.21574000000004,0.2863400000000098,3.2284631550011933,0.6483099999999808,0.1916899999999941,0.6760554061613389,0.2499599999999873,0.1924199999999984,0.3154448573047166,-11.11354,-0.1384800000000012,11.11440272988162,-10.90101999999996,-0.1421740000000113,10.901947096123475,8.314849999999979,0.0536399999999872,8.315023016931441,7.891599999999983,0.1421649999999772,7.892880427779501,-22.87325999999996,-0.7722020000000072,22.8862910703417,-22.79181999999992,-0.5650280000000123,22.798822679102976,20.149700000000053,0.2387959999999935,20.15111494730796,20.391200000000083,0.4305819999999869,20.3957455931066,-35.31280999999996,-0.7998809999999992,35.32186800992068,-35.1918399999999,-0.4667510000000021,35.19493513393076,32.842840000000024,2.916259999999994,32.97205956037932,33.93348000000003,2.618995999999981,34.03439737909896,-35.19960000000003,-3.5461500000000115,35.377775791907865,-35.271780000000035,-3.024780000000021,35.40123950396092,32.65454,4.68562,32.988998429718954,34.36435,3.1414000000000044,34.50763603729615,-14.970280000000002,-0.731410000000011,14.988136771009934,-14.640780000000008,-0.3712100000000191,14.645485170266644,12.758100000000011,-0.2446300000000008,12.760445111629153,13.176060000000009,0.0924200000000041,13.176384123878606,-14.791110000000003,0.163960000000003,14.792018723409596,-15.040009999999995,0.3856900000000109,15.044954555471408,13.416899999999998,0.6300799999999924,13.431686655681034,13.761349999999991,0.7909599999999841,13.784062229404643,-12.866919999999991,0.7196500000000015,12.887029386514946,-12.651369999999986,0.3483699999999885,12.656165475127118,12.204700000000004,1.1741499999999974,12.261049315311478,13.382839999999987,0.713249999999988,13.401833159239809,-0.4880200000000059,-0.139394999999979,137.52695999999997,0.2993184688170779,102.5538794,0.3904201650225596,90.4969328,0.2851586694616869,-0.14075484,0.089120166,0.1703768853758686,0,0
30,1000.0,494.2354,91.00345,0.26317137,493.81598,88.15404,0.17931026,493.79434,88.23353,0.1323287,489.3438,88.73246,0.6796649,500.06412,88.89551,0.58122236,484.05704,102.09343,0.98315215,506.72845,102.28288,0.97959226,478.727,121.449875,0.91489875,511.72278,122.66229,0.8645029,476.95938,138.17715,0.769577,507.80652,139.32677,0.68989974,486.69144,137.31998,0.99308974,501.82642,137.20923,0.9923539,486.58533,165.21597,0.9879623,500.25198,165.11047,0.98519367,487.5696,192.74826,0.9755921,500.15244,192.76672,0.97169906,1.09344371,0.02579277,1.09312221,-0.00614114,170.63666289481895,153.005152926907,177.73462636711375,176.976495608483,1.8514409123437423,137.264605,102.188155,91.00345,34.76339999999999,104.61268,0.3323057937880398,0.4787718445476042,0.7613653623529412,-1.5448999999999842,0.0869600000000048,1.5473454855331927,-0.618440000000021,-0.5645299999999907,0.8373542586623749,-1.5180999999999472,-0.0102800000000087,1.5181348057402015,1.6199200000000928,-0.3220300000000122,1.6516186385786245,-1.3861400000000117,0.0095600000000075,1.386172966552166,-2.0344499999999925,-0.1821299999999865,2.04258614001955,-1.2069999999999936,0.2948200000000014,1.242484540105021,9.906540000000009,0.4333000000000027,9.916011479501227,0.7352000000000203,-0.0606399999999922,0.7376965836982227,-7.579649999999958,-0.1142799999999795,7.5805114630148385,-0.7569600000000491,0.5091560000000044,0.912265462426414,22.11629999999991,1.2813580000000115,22.15338809334049,0.5555499999999824,-0.2633499999999884,0.614808120473351,-19.59415000000007,-0.502145999999982,19.600583277745045,0.1879399999999691,0.5636900000000082,0.5941951360453884,35.500749999999925,1.3635710000000074,35.52692748373458,-1.6911600000000249,-0.2430140000000022,1.7085309332277498,-34.53400000000005,-3.1592739999999964,34.6782088379299,0.7817800000000261,1.2608700000000113,1.483567701623377,35.98138000000006,4.807020000000023,36.30106262886535,-2.532440000000008,-0.6970599999999934,2.6266223552692214,-35.186980000000005,-5.3826799999999935,35.596303256136025,-1.1213300000000004,0.4300399999999911,1.2009643502202692,13.848950000000002,1.161450000000002,13.897567492370746,-0.0242800000000329,-0.0338600000000042,0.0416655493183743,-12.782380000000046,0.2107699999999965,12.784117586180956,-0.480889999999988,0.30668,0.570357619831618,14.310220000000015,0.142719999999997,14.31093167640739,-0.4799199999999928,-0.1533799999999985,0.5038339317671972,-13.896819999999993,-0.7834599999999909,13.918887013119967,-0.2555300000000216,0.8537899999999752,0.8912086989027703,12.611389999999972,0.1341399999999737,12.612103364296509,0.1653400000000147,0.4229499999999859,0.4541189470832427,-12.039359999999988,-0.7512000000000114,12.06277292539322,0.1980900000000076,0.6861100000000135,137.46180199999998,0.316995467270435,102.375013,0.2757145343275088,90.5638708,0.363968911822368,-0.0432336,0.114470774,0.1348000484446288,0,0
31,1033.3333333333337,493.3299,91.83961,0.15241414,492.92188,89.11224,0.111457795,493.4936,89.147644,0.06909629,488.7177,89.40565,0.7202851,500.27454,89.85657,0.5280943,483.33774,101.93826,0.98765963,506.4332,102.91113,0.98732376,477.50543,120.637375,0.94176185,512.4216,122.40317,0.91128737,475.12112,136.66684,0.8128979,506.9718,138.62303,0.74250364,485.72153,137.9744,0.99563724,501.05478,138.3677,0.9954823,486.04813,165.77367,0.98808086,500.6911,166.32126,0.9853221,486.83267,192.82155,0.9695655,500.37787,193.45786,0.9643887,0.93973746,0.08179993,0.93320702,-0.07443057,171.13759612268308,144.34972896930554,179.01167199531275,179.91588332974257,2.39859632289648,138.17105,102.424695,91.83961,37.30047999999999,104.34562,0.3574704874294628,2.4120935696881625,0.7566622632352943,-0.9055000000000176,0.8361599999999925,1.2325152313866223,0.6393999999999664,0.7491999999999877,0.9849532983852272,-0.8941000000000372,0.958200000000005,1.3105579155459235,0.62399999999991,0.9684800000000138,1.152097873620082,-0.300739999999962,0.914113999999998,0.9623143730590192,1.0854000000000497,0.9045539999999904,1.412908736938126,-0.6261000000000081,0.6731899999999911,0.9193399730785116,0.5808999999999855,0.3783699999999896,0.6932594513600052,0.2104199999999991,0.9610600000000034,0.9838256451221457,-0.5247800000000211,1.0216999999999956,1.148592590259929,-0.7192999999999756,-0.1551699999999982,0.735846600114429,0.0376600000000735,-0.6643260000000026,0.665392598302693,-0.29525000000001,0.6282499999999942,0.6941690176030609,-0.8507999999999925,0.8915999999999826,1.2324005842257444,-1.2215699999999856,-0.8125,1.4671024214075732,-1.4095099999999547,-1.3761900000000082,1.969928261688708,0.698820000000012,-0.2591199999999958,0.7453137371604086,2.389980000000037,-0.0161059999999935,2.39003426829746,-1.8382599999999911,-1.510310000000004,2.3791250752535014,-2.620040000000017,-2.7711800000000157,3.813665978294399,-0.8347200000000043,-0.7037400000000105,1.0917909442745997,1.697720000000004,-0.0066800000000171,1.697733141809988,-0.9699100000000273,0.654420000000016,1.1700388645254796,0.1514199999999732,0.2243800000000249,0.2706924468839186,-0.7716399999999908,1.1584700000000223,1.391934276645287,-0.7473599999999578,1.1923300000000268,1.4071950108282791,-0.5371999999999844,0.5577000000000112,0.774346905462917,-0.0563099999999963,0.2510200000000111,0.2572583458315884,0.4391200000000026,1.210790000000003,1.2879591602609182,0.9190399999999954,1.3641700000000014,1.644869086128132,-0.7369299999999726,0.0732900000000142,0.7405654927148319,-0.481399999999951,-0.7804999999999609,0.9170202887613184,0.2254299999999602,0.6911400000000185,0.7269753671892932,0.0600899999999455,0.2681900000000325,0.2748393789106847,0.9064450000000192,0.7083550000000116,137.591973,0.4518974003936124,102.30829839999998,0.1853400486881655,90.86322599999998,0.6442978805878125,-0.06828943,0.091183586,0.1584339212464328,0,0
32,1066.6666666666667,493.98605,93.02527,0.19834115,493.4132,90.183365,0.13481122,493.7233,90.37436,0.09041559,488.5766,90.25813,0.69770217,500.18805,90.83317,0.55709565,483.22598,102.92799,0.9881691,506.55225,103.5461,0.98716474,476.94763,121.851654,0.94147384,512.4557,122.60025,0.9089381,474.05203,138.80826,0.819772,507.19882,137.52675,0.75143,486.23175,138.9407,0.9950818,501.74335,139.05417,0.9950054,486.52548,167.19058,0.98516613,501.00702,167.38922,0.98280627,487.29053,193.66515,0.96055603,500.88217,194.18163,0.9564075,0.73095027,0.06706121,0.72784744,-0.0054042,171.33623461181713,143.38425022421,178.9404645056009,178.77840300890915,1.4442572125556572,138.997435,103.237045,93.02527,38.40366999999998,103.99826500000002,0.3692722145963469,1.5178941447435788,0.7617845111764705,0.6561499999999683,1.1856600000000128,1.3551097586911507,1.561649999999986,0.3495000000000203,1.6002815291379109,0.4913200000000302,1.071124999999995,1.1784329034887897,1.3854200000000674,0.1129249999999899,1.3900146157595554,0.2296999999999798,1.226715999999996,1.2480361511815197,0.5304399999999418,0.3126019999999982,0.6157000925807444,-0.1410999999999944,0.8524799999999999,0.8640783300141246,0.4850000000000136,0.1792900000000088,0.5170782378905695,-0.0864900000000261,0.9765999999999906,0.980422398815932,-0.2969100000000253,0.0155399999999872,0.2973163966215362,-0.1117600000000038,0.9897299999999944,0.9960199649103374,0.6075399999999718,1.1448999999999927,1.2961098956492652,0.1190500000000156,0.6349699999999956,0.6460339026707486,0.4143000000000256,0.0067200000000013,0.4143544960538274,-0.5577999999999861,1.2142789999999906,1.33626880897556,0.6637699999999995,2.0267789999999906,2.132703384847729,0.0340999999999667,0.1970799999999997,0.2000083408260705,-0.6647200000000453,0.4561999999999955,0.8062078630229651,-1.069090000000017,2.1414199999999823,2.3934562967599726,0.7691699999999742,3.6517299999999855,3.7318567070293382,0.2270200000000386,-1.0962800000000072,1.1195391546524995,1.061740000000043,-0.3925399999999968,1.1319803351649218,0.5102200000000039,0.9662999999999896,1.0927305882055212,1.480130000000031,0.3118799999999737,1.5126314657906847,0.688570000000027,0.6864699999999857,0.972301242311259,1.4602100000000178,-0.4720000000000368,1.5346000274013052,0.4773500000000013,1.4169100000000014,1.4951578413665914,1.0145499999999856,0.8592099999999903,1.3294937106282054,0.3159200000000055,1.0679599999999994,1.1137073260062549,-0.123199999999997,-0.1428300000000035,0.1886230338532394,0.4578599999999824,0.8436000000000092,0.9598420388793144,1.194789999999955,0.7703099999999949,1.4215838491625756,0.5043000000000006,0.7237700000000018,0.8821346285573439,0.2788700000000403,0.0326299999999832,0.2807724947355446,0.8263849999999877,-0.0800600000000315,137.810828,0.7835565664455925,102.44942039999998,0.4611417745452396,91.409964,1.062252552493958,0.06902637,0.02579277,0.0939228493411502,0,0
33,1100.0,488.91232,91.97357,0.16487929,488.98587,89.22029,0.14150847,489.6737,89.22945,0.05592134,487.4564,90.31212,0.76514935,500.23898,90.25659,0.4192097,483.17,104.16443,0.98834807,507.1579,103.881836,0.9825462,477.22897,123.44739,0.95064086,512.7592,122.59541,0.8712282,473.18558,140.06581,0.8342182,505.66104,136.7973,0.69022137,486.18506,140.0765,0.99502736,501.97186,139.79056,0.9940534,486.76675,167.64127,0.9856064,501.03497,167.74493,0.9801751,487.78018,193.93167,0.9625478,500.9292,193.95654,0.95324355,0.74380486,-0.04888344,0.72416276,0.16261728,176.55086288483588,136.78057651540553,179.0013915983491,178.31164991920022,1.731447249323063,139.93353000000002,104.023133,91.97357,39.57361999999995,104.73624999999998,0.3778407153412428,-0.6749525609514765,0.7490896858823529,-5.073729999999955,-1.051700000000011,5.181583638512416,-5.729879999999923,-2.237360000000024,6.1512035069569295,-4.42733000000004,-0.9630749999999892,4.530867950462178,-4.918650000000071,-2.034199999999984,5.322695507212547,-4.049599999999998,-1.144909999999996,4.208334476737795,-4.279299999999978,-2.371625999999992,4.892547227557009,-1.1202000000000112,0.0539899999999988,1.1215003165848971,-0.9791000000000168,-0.798490000000001,1.2634172272452335,0.0509300000000507,-0.5765799999999928,0.578824983306696,0.1374200000000769,-1.5531799999999834,1.5592473725486824,-0.0559799999999768,1.2364400000000018,1.2377066025516716,0.055780000000027,0.2467100000000073,0.2529372105879375,0.6056499999999687,0.3357360000000113,0.6924814684855977,0.486599999999953,-0.2992339999999842,0.5712447345542407,0.2813400000000001,1.5957360000000025,1.620347363158902,0.8391399999999862,0.3814570000000117,0.921772956019532,0.3034999999999854,-0.0048400000000015,0.3035385899683781,0.2694000000000187,-0.2019200000000012,0.3366720160631272,-0.8664499999999862,1.257550000000009,1.527143609815396,0.2026400000000308,-0.8838699999999733,0.9068016026121508,-1.537779999999998,-0.7294499999999857,1.702017811569542,-1.7648000000000366,0.3668300000000215,1.8025213698872324,-0.0466899999999554,1.1358000000000177,1.1367592516008107,-0.5569099999999594,0.1695000000000277,0.5821331446498852,0.2285099999999715,0.7363900000000001,0.7710298646615363,-0.4600600000000554,0.0499200000000144,0.4627604239777343,0.2412699999999858,0.4506899999999803,0.511207090130776,-0.2360800000000154,-0.9662200000000212,0.9946430790992556,0.0279499999999757,0.3557100000000162,0.3568063993260353,-0.2879700000000298,-0.7122499999999832,0.7682621840231323,0.4896499999999832,0.2665199999999856,0.5574854553259447,0.0317900000000008,-0.5770800000000236,0.5779549554247522,0.0470300000000065,-0.2250900000000228,0.2299507099358706,-0.457269999999994,-0.9488600000000248,1.0532953776125866,0.936095000000023,0.1097100000000352,138.286627,1.200426779132122,102.787656,0.8278531824224238,91.751678,0.8567947265943661,0.16802148,0.022746766,0.0878065804123198,0,0
34,1133.3333333333333,491.4702,93.7646,0.16992657,491.21112,91.030136,0.12878966,491.72687,91.157715,0.06582441,487.76926,92.05535,0.7103146,500.51093,92.241455,0.46578485,482.58856,105.64073,0.9870797,506.77185,105.44119,0.9827785,476.63864,124.84917,0.9434448,512.531,123.24748,0.87946665,473.3372,140.72733,0.822635,504.76,135.39252,0.70576423,485.34717,140.64694,0.994689,501.2475,140.48318,0.99400073,486.93744,168.0008,0.9848732,500.9076,168.1818,0.9805896,487.57498,194.01393,0.9613101,500.14096,194.38657,0.95408934,0.91601056,-0.11225997,0.89488634,0.16016083,174.53511643761436,129.4639241062605,178.07668734941095,179.02730516162063,2.261098220247457,140.56506000000002,105.54096,93.7646,39.19379999999995,103.356434,0.3792100607959238,-0.4727454535984491,0.7489035847058823,2.557879999999954,1.7910300000000063,3.1225852358742414,7.63160999999991,2.8427300000000173,8.14386794127942,2.225250000000017,1.8098459999999927,2.8683235706970107,6.652580000000057,2.7729209999999824,7.207351214464414,2.053170000000023,1.928264999999996,2.8166847461377493,6.102770000000021,3.073174999999992,6.832876865093152,0.3128600000000006,1.7432300000000112,1.7710822150594927,1.4330600000000118,1.6892400000000125,2.215218440966957,0.271949999999947,1.9848649999999992,2.003408563105631,0.2210199999998963,2.561444999999992,2.5709629185238967,-0.5814400000000433,1.476300000000009,1.586673931089837,-0.5254600000000664,0.2398600000000073,0.5776166818921293,-0.3860500000000115,1.559353999999999,1.6064306707156726,-0.9916999999999804,1.2236179999999877,1.5750269521261948,-0.5903299999999945,1.4017800000000022,1.5210117281927842,-0.8716699999999946,-0.193956,0.8929879723915606,-0.2282000000000152,0.6520699999999948,0.690847685745563,-0.5317000000000007,0.6569099999999963,0.8451246287382683,0.1516199999999798,0.6615199999999959,0.678673216504076,1.018069999999966,-0.5960300000000132,1.1797111026857154,-0.9010400000000232,-1.4047800000000166,1.6689157947602056,0.6367399999999748,-0.6753300000000309,0.9281747876881862,-0.8378900000000158,0.5704399999999907,1.013637729023548,-0.7912000000000603,-0.5653600000000267,0.9724347636731864,-0.7243599999999901,0.6926200000000051,1.002207500470832,-0.9528699999999616,-0.0437699999999949,0.9538747558248548,0.1706899999999791,0.3595300000000065,0.3979910765331273,-0.0705800000000067,-0.0911599999999737,0.1152895572027066,-0.1273699999999848,0.436869999999999,0.4550588025739039,-0.1553199999999606,0.0811599999999828,0.175246249603194,-0.2051999999999907,0.0822599999999909,0.2210740771777521,-0.694849999999974,-0.1842599999999947,0.7188659611498948,-0.7882399999999734,0.4300300000000163,0.8979131909600016,-0.83526999999998,0.6551200000000392,1.0615357682621993,0.6315299999999979,-0.304565000000025,138.986336,1.324643162116696,103.4827976,1.358682240585984,92.3213,1.0803192447605003,-0.0024564499999999,0.04736044,0.1078049669131527,0,0
35,1166.6666666666667,486.10278,95.77101,0.1587766,486.61237,93.20056,0.16584055,487.25708,93.09607,0.04879153,487.0593,94.63866,0.82833433,499.2209,94.149506,0.36620313,482.57053,108.11253,0.9897663,506.22476,106.784035,0.9823314,476.3066,126.877716,0.9593209,512.1253,122.243515,0.85424453,474.28583,141.63452,0.8529899,502.38437,133.37885,0.6595035,485.3613,142.1885,0.9953955,500.7543,141.69318,0.99373394,487.79654,167.92618,0.98738796,500.1821,168.09222,0.9793576,489.0197,194.26108,0.96865696,499.3001,193.93733,0.9550156,0.88641054,-0.11913804,0.85877646,0.18447973,169.3381665355161,117.93058217291184,177.2541636934969,179.28714768164758,2.224548330859161,141.94084,107.4482825,95.77101,37.83947000000006,101.16501,0.3740371263341242,-3.2145318515187875,0.7497441311764705,-5.367419999999981,2.0064100000000025,5.730172645261206,-7.925299999999936,0.2153799999999961,7.928226071095537,-4.598749999999996,2.170423999999997,5.085198314940721,-6.824000000000012,0.3605780000000038,6.83351977344649,-4.469790000000046,1.9383550000000012,4.871985503891141,-6.522960000000069,0.0100900000000052,6.522967803822191,-0.7099599999999668,2.5833099999999973,2.679091965144149,-1.0228199999999674,0.8400799999999862,1.3235917644046862,-1.2900300000000016,1.9080510000000004,2.303222963479872,-1.5619799999999486,-0.0768139999999988,1.5638676130017657,-0.0180299999999533,2.4718000000000018,2.4718657570547813,0.5634100000000899,0.9954999999999928,1.143875464419133,-0.5470899999999688,1.342844999999997,1.4500138489424703,-0.1610399999999572,-0.216509000000002,0.2698333350069763,-0.3320400000000063,2.0285460000000057,2.0555411539825776,0.2582899999999881,0.6267660000000035,0.6779006880480343,-0.4056999999999107,-1.0039649999999938,1.0828380355459053,-0.1774999999998954,-1.6560349999999886,1.665520390516107,0.94862999999998,0.9071900000000142,1.3125900247221094,0.7970100000000002,0.2456700000000182,0.8340136024070647,-2.375630000000001,-2.0136699999999905,3.114239034788429,-1.474589999999978,-0.608889999999974,1.5953566059661717,0.0141300000000228,1.541560000000004,1.5416247567096255,0.8520200000000386,0.9711200000000132,1.2919025252704213,-0.4932000000000016,1.210000000000008,1.3066545985837348,0.2311599999999884,0.5173800000000028,0.5666718715447218,0.8591000000000122,-0.0746200000000101,0.8623345953862819,0.688410000000033,-0.4341500000000167,0.8138762501757009,-0.7255000000000109,-0.0895800000000122,0.7310094571207804,-0.598130000000026,-0.5264500000000112,0.796811834374994,1.444720000000018,0.2471500000000048,1.465707679211668,1.6499200000000087,0.1648900000000139,1.658138932206838,-0.8408600000000206,-0.4492400000000032,0.9533426022160332,-0.0526200000000471,-0.8792700000000195,0.8808431173029845,1.3757799999999918,0.7442499999999939,139.921583,1.450001682962828,104.5348231,1.9936933371682983,93.274812,1.6036055837767211,0.0243189,0.085484614,0.1174304698281925,0,0
36,1200.0,486.38046,99.65039,0.13624634,486.69952,97.097534,0.1319379,487.49588,97.044525,0.045486666,486.77313,97.785645,0.78406954,498.8147,97.37275,0.37373802,482.31635,109.99608,0.9867669,505.69156,108.52754,0.9808317,475.17252,128.39297,0.9498646,512.2998,122.78169,0.8681402,473.75253,142.74503,0.83229417,504.19806,132.39806,0.6804519,485.76083,143.20746,0.99413717,500.91974,142.7218,0.99277365,488.8294,167.82141,0.9824844,501.32367,167.93295,0.9745773,488.91446,192.3684,0.9554404,499.1311,191.94484,0.94171387,0.57199747,-0.11938368,0.55687821,0.05305941,164.4283919395723,115.01355015444052,173.0922575906162,173.8647765128249,1.1281989180201102,142.96463,109.26181,99.65039,38.547270000000026,95.32387500000002,0.4043821088433292,-3.594864193776641,0.7418208662352941,0.2776800000000321,3.8793799999999976,3.889305255029489,5.6451000000000136,1.8729699999999951,5.947702970971242,0.0871500000000082,3.896974,3.8979483679464,4.685900000000004,1.7265500000000031,4.99385960079977,0.2388000000000261,3.948454999999996,3.9556696433126186,4.708590000000072,2.0100999999999942,5.119699385520663,-0.2861700000000269,3.146985000000001,3.1599695978165707,0.4237899999999399,0.5636750000000035,0.7052144849086361,-0.4061999999999557,3.223243999999994,3.248738266394497,0.8838300000000459,1.3151929999999936,1.5845782076467745,-0.2541800000000194,1.88355,1.9006230754413165,-0.236150000000066,-0.5882500000000022,0.6338808129293974,-0.5332000000000221,1.743504999999999,1.8232147226876545,0.0138899999999466,0.400660000000002,0.4009006955593868,-1.134079999999983,1.5152539999999846,1.8926521420789173,-0.8020399999999768,-0.5132920000000212,0.9522273041999922,0.1744999999999663,0.5381749999999954,0.5657584118906084,0.580199999999877,1.5421399999999892,1.6476734566047435,-0.533299999999997,1.110510000000005,1.2319258703753273,-1.481929999999977,0.2033199999999908,1.495812671192462,1.813690000000008,-0.9807900000000132,2.0618972913799696,4.189320000000009,1.0328799999999774,4.3147703480950215,0.3995299999999702,1.0189599999999928,1.0944878722489169,0.3853999999999473,-0.5226000000000113,0.6493411430057171,0.1654399999999896,1.0286199999999894,1.0418394780387117,0.6586399999999912,-0.1813800000000185,0.6831583667056966,1.032860000000028,-0.104770000000002,1.038160167074454,0.1737600000000156,-0.0301499999999919,0.1763563440877729,1.1415700000000015,-0.1592699999999922,1.152626998555908,1.8670700000000124,-0.06968999999998,1.868370167017244,-0.1052399999999806,-1.8926799999999844,1.8956036083527423,-1.549959999999999,-2.139829999999989,2.642205221117381,-0.1689999999999827,-1.992490000000004,1.999644318397652,0.6718600000000379,-1.5432500000000005,1.683156683764186,1.023789999999991,-0.3519900000000007,140.880299,1.5819376519967638,105.9022461,2.47193187306983,94.836968,3.0279009513555484,-0.13142032,0.11098261,0.0827457699173918,0,0
37,1233.3333333333337,487.22168,103.104645,0.12281914,487.45602,100.50004,0.111204505,488.3084,100.5506,0.04348849,486.93973,100.800934,0.73865074,499.3559,100.53003,0.37316278,481.9647,112.614494,0.98363054,505.99246,110.870255,0.97857535,474.75778,131.88943,0.9380306,512.6149,124.10927,0.86518526,473.72882,148.62483,0.80660343,504.56793,133.44778,0.6738209,485.33945,144.54997,0.9931766,500.93237,144.05182,0.99202865,488.97037,167.23473,0.98088914,501.58893,167.3261,0.9740912,488.94617,190.04364,0.95397246,499.1197,189.69672,0.94267684,0.79537118,-0.09702995,0.76297474,0.20265749,163.0175204254003,112.67340580628188,170.84558694610286,172.08542119811122,1.4826494089198547,144.300895,111.7423745,103.104645,38.88608000000005,89.54360000000001,0.4342697810421991,-4.15197002888874,0.7336474485294118,0.8412199999999643,3.4542550000000034,3.555211483642705,0.5635399999999322,-0.4251249999999942,0.7059097656392909,0.7565000000000168,3.4025060000000025,3.485590241269912,0.6693500000000085,-0.4944679999999977,0.8321826875896957,0.8125200000000063,3.50607500000001,3.5989930058316424,0.5737199999999802,-0.4423799999999858,0.7244685657776773,0.1666000000000167,3.015288999999996,3.019887963736565,0.4527700000000436,-0.1316960000000051,0.4715342080019655,0.5412000000000035,3.15728,3.20332864976418,0.9473999999999592,-0.0659639999999939,0.9496936397048902,-0.3516500000000064,2.618413999999987,2.641921573002487,-0.097469999999987,0.7348639999999875,0.7412998714393381,0.3009000000000128,2.3427149999999983,2.361959860206138,0.8341000000000349,0.5992099999999994,1.027022606421133,-0.4147399999999948,3.496460000000013,3.5209717123544304,0.7193399999999883,1.9812060000000289,2.107754077219659,0.3151000000000294,1.3275799999999975,1.3644620428579213,0.1406000000000631,0.7894050000000021,0.8018282946024174,-0.0237099999999941,5.879799999999989,5.879847804501394,0.5095900000000029,4.769289999999984,4.796437122719305,0.3698699999999917,1.0497200000000078,1.1129761431854728,-1.4438200000000163,2.030510000000021,2.491502970598296,-0.4213799999999992,1.3425100000000043,1.4070871346508755,-0.8209099999999694,0.3235500000000115,0.8823705744186834,0.0126300000000014,1.3300199999999904,1.330079966505764,-0.1528099999999881,0.301400000000001,0.3379243348739433,0.1409699999999816,-0.5866799999999728,0.603378789236051,-0.8918900000000463,-0.4819099999999707,1.013757870598327,0.265260000000012,-0.6068500000000085,0.6622913181523797,-0.8763099999999895,-0.4475800000000163,0.9839954636582408,0.0317099999999754,-2.3247599999999977,2.3249762540077668,0.1369499999999561,-0.4320800000000133,0.453264193269223,-0.0113999999999805,-2.24812,2.248148903965216,0.1576000000000021,-0.2556299999999964,0.3003072708077493,1.3362649999999974,0.3124750000000063,141.940991,1.770598027335675,107.603312,3.0404549653269544,96.852843,4.511823631855507,0.14959808,0.152594948,0.0582835964676058,0,0
38,1266.6666666666663,487.49567,108.55064,0.59517986,489.06134,106.60633,0.56014556,487.50674,106.38785,0.3307256,494.53412,106.13638,0.5390108,488.2835,105.77689,0.1649833,503.4883,114.55827,0.9726787,483.1927,115.01846,0.95835876,510.7835,126.86409,0.95669186,474.85193,132.1413,0.8790349,506.57343,134.6702,0.93119264,475.61804,152.65161,0.8427474,499.39893,145.05765,0.9921997,486.53708,144.7311,0.9898644,504.60056,166.42763,0.9832761,488.3368,165.76953,0.9753076,502.08072,187.64214,0.9603738,488.16287,186.23889,0.9478266,0.90122568,0.04618134,0.82635126,0.35667718,121.0001493270714,151.88950966022944,159.54596238219273,174.62373297702192,0.7090256183023738,144.894375,114.788365,108.55064,35.93157000000002,81.86525000000002,0.43891113214812,178.70107671055862,0.798799857647059,0.2739900000000261,5.445994999999996,5.452882912746704,-0.5672299999999382,1.991739999999993,2.070936527395251,1.6053199999999492,6.106290000000001,6.3137809485679695,0.8488199999999324,2.703783999999999,2.8338919017943995,-0.8016600000000267,5.837249999999997,5.89204092977128,-1.614180000000033,2.331174999999988,2.8354812559819624,7.594389999999976,5.335446000000005,9.281257645977494,7.427789999999959,2.320157000000009,7.781721711083508,-11.072400000000016,5.246859999999998,12.25265610468197,-11.61360000000002,2.089579999999998,11.800086844443156,21.523599999999988,1.943776,21.611192056390028,21.875249999999998,-0.6746379999999874,21.885650527081523,-22.799759999999992,4.148205000000004,23.174051453719198,-23.100660000000005,1.805490000000006,23.171108876696,36.02571999999998,-5.02534,36.37453152459834,36.44045999999997,-8.521800000000013,37.42363157486989,-37.76297000000005,8.032030000000006,38.60771178329278,-38.07807000000008,6.7044500000000085,38.663795270606926,32.84460999999999,-13.954630000000009,35.686133224111,32.86831999999998,-19.83443,38.38920516300512,-28.949889999999986,19.20383000000001,34.74022477879208,-29.31975999999997,18.154110000000003,34.48506975996567,14.059480000000008,0.5076799999999935,14.068643035232652,14.480860000000009,-0.8348300000000108,14.504904255750889,-14.395289999999989,0.6792800000000057,14.411307903951664,-14.40791999999999,-0.6507399999999848,14.422607991414024,15.63018999999997,-0.8071000000000197,15.65101433920815,15.489219999999989,-0.2204200000000469,15.490788268671148,-13.252130000000022,-1.5565699999999936,13.343232730556736,-13.517390000000034,-0.949719999999985,13.55071217650574,13.13454999999999,-2.401499999999998,13.352288416316496,13.102840000000016,-0.0767400000000009,13.10306472140012,-10.956830000000023,-3.4578300000000013,11.489504426118671,-10.945430000000044,-1.2097100000000012,11.012076832686963,0.5934799999999996,-0.7427849999999978,142.93316,1.7543268124660931,109.7563584,3.626524731844819,100.168257,5.905453192337972,0.15401969,0.191406928,0.1090930472012039,0,0
39,1300.0,492.20145,116.57918,0.6476802,494.0888,114.18573,0.5341749,490.8063,113.90795,0.46785024,498.19656,111.58496,0.41065016,488.52524,111.03673,0.3003715,505.13257,116.445854,0.9715584,481.105,117.833336,0.9741033,511.60938,128.92665,0.94730955,475.56107,138.23914,0.93294764,505.97842,135.073,0.92574614,480.12952,160.54555,0.9017957,499.7796,144.06357,0.99258375,484.6217,144.51234,0.99267465,506.02338,166.0386,0.98388296,490.52777,166.0488,0.9823704,498.48227,188.61113,0.9592905,490.07056,188.31119,0.9572191,0.87761312,0.09211704,0.77255491,0.40605191,110.07903966538412,153.22616533518092,145.66490183817567,163.4879223590562,1.9370198400791665,144.287955,117.139595,116.57918,36.048310000000015,77.5744,0.4646933722375764,176.69510160697828,0.8166005347058823,4.705780000000004,8.028539999999992,9.306009882866014,4.431789999999978,2.582544999999996,5.129356809691132,5.027460000000019,7.579400000000007,9.095199745558109,3.42214000000007,1.4731100000000057,3.7257341896196094,3.2995600000000422,7.520099999999999,8.212125194101723,4.101220000000069,1.682850000000002,4.433056463761833,3.662440000000004,5.448579999999993,6.565096402186335,-3.931949999999972,0.113133999999988,3.933577265601348,0.2417399999999929,5.259840000000011,5.265392203169686,11.314140000000007,0.012980000000013,11.31414744556567,1.644270000000006,1.887584000000004,2.503317237178707,-19.87932999999998,-0.0561919999999958,19.87940941752957,-2.087699999999984,2.814875999999998,3.5045710415649904,20.712060000000008,-1.3333290000000062,20.75493183958553,0.8258799999999837,2.06255999999999,2.221763157494501,-35.199839999999995,7.087899999999991,35.90636520779567,0.7091399999999908,6.097839999999991,6.138935755096308,38.47211000000004,-1.9341900000000152,38.52070013393063,-0.5950099999999452,0.4028000000000133,0.7185295680067352,-33.439619999999934,14.357430000000022,36.39153722981892,4.511480000000006,7.893939999999986,9.092180184862146,33.46136999999999,-11.309890000000024,35.32105454384112,0.3806700000000091,-0.9940799999999969,1.0644739054105556,-13.67881,-1.5017599999999902,13.76100018580408,-1.9153800000000276,-0.2187600000000031,1.9278320678939092,12.47990999999996,-0.8980400000000088,12.512179244627974,1.4228200000000015,-0.3890299999999911,1.4750461326006037,-14.207369999999967,0.4180700000000286,14.21351979074146,2.190969999999993,0.2792699999999968,2.208696736494163,15.443100000000015,1.8358399999999904,15.55183738712569,-3.598449999999957,0.9689899999999908,3.726631726183803,-16.732999999999947,3.370489999999989,17.069079993956855,1.9076900000000023,2.0723000000000127,2.8166839414638023,12.864520000000027,5.530130000000014,14.002793030224394,-0.6064199999999857,-1.199899999999985,143.67773900000003,1.2006490646281431,112.07608539999998,3.951065007404358,104.73117299999998,8.119545372903865,0.04937473,0.240585144,0.1419584770306249,0,0
