frame_id,timestamp_ms,nose_x,nose_y,nose_conf,left_eye_x,left_eye_y,left_eye_conf,right_eye_x,right_eye_y,right_eye_conf,left_ear_x,left_ear_y,left_ear_conf,right_ear_x,right_ear_y,right_ear_conf,left_shoulder_x,left_shoulder_y,left_shoulder_conf,right_shoulder_x,right_shoulder_y,right_shoulder_conf,left_elbow_x,left_elbow_y,left_elbow_conf,right_elbow_x,right_elbow_y,right_elbow_conf,left_wrist_x,left_wrist_y,left_wrist_conf,right_wrist_x,right_wrist_y,right_wrist_conf,left_hip_x,left_hip_y,left_hip_conf,right_hip_x,right_hip_y,right_hip_conf,left_knee_x,left_knee_y,left_knee_conf,right_knee_x,right_knee_y,right_knee_conf,left_ankle_x,left_ankle_y,left_ankle_conf,right_ankle_x,right_ankle_y,right_ankle_conf,acc_x,acc_y,acc_z,acc_mag,left_elbow_angle,right_elbow_angle,left_knee_angle,right_knee_angle,spine_angle,hip_height,shoulder_height,head_height,bbox_width,bbox_height,bbox_aspect_ratio,shoulder_tilt,avg_confidence,nose_vx,nose_vy,nose_speed,nose_ax,nose_ay,nose_accel,left_eye_vx,left_eye_vy,left_eye_speed,left_eye_ax,left_eye_ay,left_eye_accel,right_eye_vx,right_eye_vy,right_eye_speed,right_eye_ax,right_eye_ay,right_eye_accel,left_ear_vx,left_ear_vy,left_ear_speed,left_ear_ax,left_ear_ay,left_ear_accel,right_ear_vx,right_ear_vy,right_ear_speed,right_ear_ax,right_ear_ay,right_ear_accel,left_shoulder_vx,left_shoulder_vy,left_shoulder_speed,left_shoulder_ax,left_shoulder_ay,left_shoulder_accel,right_shoulder_vx,right_shoulder_vy,right_shoulder_speed,right_shoulder_ax,right_shoulder_ay,right_shoulder_accel,left_elbow_vx,left_elbow_vy,left_elbow_speed,left_elbow_ax,left_elbow_ay,left_elbow_accel,right_elbow_vx,right_elbow_vy,right_elbow_speed,right_elbow_ax,right_elbow_ay,right_elbow_accel,left_wrist_vx,left_wrist_vy,left_wrist_speed,left_wrist_ax,left_wrist_ay,left_wrist_accel,right_wrist_vx,right_wrist_vy,right_wrist_speed,right_wrist_ax,right_wrist_ay,right_wrist_accel,left_hip_vx,left_hip_vy,left_hip_speed,left_hip_ax,left_hip_ay,left_hip_accel,right_hip_vx,right_hip_vy,right_hip_speed,right_hip_ax,right_hip_ay,right_hip_accel,left_knee_vx,left_knee_vy,left_knee_speed,left_knee_ax,left_knee_ay,left_knee_accel,right_knee_vx,right_knee_vy,right_knee_speed,right_knee_ax,right_knee_ay,right_knee_accel,left_ankle_vx,left_ankle_vy,left_ankle_speed,left_ankle_ax,left_ankle_ay,left_ankle_accel,right_ankle_vx,right_ankle_vy,right_ankle_speed,right_ankle_ax,right_ankle_ay,right_ankle_accel,hip_velocity,hip_acceleration,hip_height_mean_5,hip_height_std_5,shoulder_height_mean_5,shoulder_height_std_5,head_height_mean_5,head_height_std_5,acc_mag_diff,acc_mag_mean_5,acc_mag_std_5,label_binary,label_3class
0,0.0,520.37164,94.11618,0.91266453,522.48236,91.89622,0.87085277,518.5893,91.91763,0.8293982,526.00464,92.80775,0.7128872,515.74194,92.77941,0.576429,530.7953,105.70512,0.98918366,511.3004,105.75424,0.9894945,534.4397,122.638016,0.931833,507.59927,122.408844,0.9079953,531.7649,138.3872,0.87764204,507.5161,136.90909,0.8409768,526.6285,138.69232,0.9912697,514.2848,138.63657,0.9913186,525.9209,163.03183,0.9785583,513.0428,162.87799,0.97565323,524.5923,187.02617,0.9568863,514.2655,186.7121,0.95256656,0.98723438,0.1265074,0.937383,0.2827379,158.214752633575,167.79947231082556,178.495923617947,174.13031245877622,1.0284821666138777,138.664445,105.72968,94.11618,26.92360000000002,95.12995,0.2830191723740089,179.85563594919785,0.8991535111764706,0.0,0.0,0.0,0.0,0.0,0.0,0.0,0.0,0.0,0.0,0.0,0.0,0.0,0.0,0.0,0.0,0.0,0.0,0.0,0.0,0.0,0.0,0.0,0.0,0.0,0.0,0.0,0.0,0.0,0.0,0.0,0.0,0.0,0.0,0.0,0.0,0.0,0.0,0.0,0.0,0.0,0.0,0.0,0.0,0.0,0.0,0.0,0.0,0.0,0.0,0.0,0.0,0.0,0.0,0.0,0.0,0.0,0.0,0.0,0.0,0.0,0.0,0.0,0.0,0.0,0.0,0.0,0.0,0.0,0.0,0.0,0.0,0.0,0.0,0.0,0.0,0.0,0.0,0.0,0.0,0.0,0.0,0.0,0.0,0.0,0.0,0.0,0.0,0.0,0.0,0.0,0.0,0.0,0.0,0.0,0.0,0.0,0.0,0.0,0.0,0.0,0.0,0.0,0.0,138.664445,0.0,105.72968,0.0,94.11618,0.0,0.0,0.2827379,0.0,0,0
1,33.333333333333336,520.8892,94.04934,0.9153873,522.9792,91.82024,0.8688491,519.0513,91.83571,0.8401304,526.3967,92.71637,0.69821316,516.0496,92.65596,0.60329014,531.0657,105.64046,0.989207,511.458,105.645,0.99056375,534.58826,122.68085,0.9294496,507.69925,122.4485,0.91879493,531.9204,138.42776,0.87514144,507.57016,137.20662,0.85487014,526.87634,138.71458,0.9914397,514.4867,138.64844,0.9919619,525.9487,163.0838,0.9784908,513.1859,162.9128,0.9769657,524.3928,187.04645,0.95635873,514.3739,186.74857,0.9540116,0.94102369,0.07418492,0.87621728,0.33506038,158.70461638417973,167.89231337014493,178.46495559184868,174.07801777902097,1.0064022332914466,138.68151,105.64273,94.04934,27.018100000000004,95.22621,0.2837254545389819,179.98673363860422,0.9019485523529412,0.5175600000000031,-0.0668399999999991,0.5218581600396827,0.5175600000000031,-0.0668399999999991,0.5218581600396827,0.4968400000000201,-0.0759800000000012,0.5026161020102919,0.4968400000000201,-0.0759800000000012,0.5026161020102919,0.4619999999999891,-0.0819199999999966,0.4692066563892603,0.4619999999999891,-0.0819199999999966,0.4692066563892603,0.3920600000000149,-0.0913800000000009,0.4025684389020231,0.3920600000000149,-0.0913800000000009,0.4025684389020231,0.3076600000000553,-0.1234500000000053,0.3315035114445024,0.3076600000000553,-0.1234500000000053,0.3315035114445024,0.2703999999999951,-0.0646599999999892,0.2780235162715484,0.2703999999999951,-0.0646599999999892,0.2780235162715484,0.1576000000000021,-0.1092399999999997,0.1917580183460411,0.1576000000000021,-0.1092399999999997,0.1917580183460411,0.1485599999999749,0.0428340000000133,0.1546118532195824,0.1485599999999749,0.0428340000000133,0.1546118532195824,0.0999800000000163,0.0396559999999936,0.1075574206459172,0.0999800000000163,0.0396559999999936,0.1075574206459172,0.1554999999999609,0.0405599999999992,0.1607027180852513,0.1554999999999609,0.0405599999999992,0.1607027180852513,0.0540599999999926,0.2975299999999947,0.3024013632575026,0.0540599999999926,0.2975299999999947,0.3024013632575026,0.2478399999999965,0.022260000000017,0.2488376442582573,0.2478399999999965,0.022260000000017,0.2488376442582573,0.2019000000000232,0.0118699999999876,0.2022486264477687,0.2019000000000232,0.0118699999999876,0.2022486264477687,0.0278000000000702,0.0519699999999829,0.0589382804296336,0.0278000000000702,0.0519699999999829,0.0589382804296336,0.1430999999998903,0.0348099999999931,0.1472730324939638,0.1430999999998903,0.0348099999999931,0.1472730324939638,-0.1995000000000573,0.0202799999999854,0.200528123713414,-0.1995000000000573,0.0202799999999854,0.200528123713414,0.1084000000000742,0.0364700000000084,0.1143705420989893,0.1084000000000742,0.0364700000000084,0.1143705420989893,0.0170650000000023,0.0170650000000023,138.6729775,0.01206677722095,105.686205,0.0614829346241714,94.08276,0.0472630172545132,0.05232248,0.3088991399999999,0.0369975804164975,0,0
2,66.66666666666667,521.19495,93.9599,0.919606,523.2736,91.716255,0.87197345,519.30414,91.74247,0.8504375,526.6591,92.591,0.69439983,516.20996,92.548134,0.6225105,531.3493,105.55556,0.98948574,511.5704,105.55127,0.99137455,534.8962,122.68552,0.9294512,507.8076,122.40433,0.92609775,532.39,138.56198,0.875764,507.59045,137.2333,0.8648148,527.1541,138.69786,0.9915548,514.67224,138.62494,0.9923454,526.13226,163.09264,0.9781109,513.2819,162.90656,0.9773865,524.4489,186.9972,0.9549967,514.4376,186.70674,0.9538323,0.94106733,0.02874052,0.89169295,0.29944179,159.33126416615127,168.25289819636615,178.37045868885775,173.94287040234616,0.9460883780013876,138.6614,105.553415,93.9599,27.30575000000005,95.280945,0.2865814325563062,-179.98757267136915,0.9049495247058824,0.3057499999999891,-0.0894399999999961,0.3185632999891742,-0.211810000000014,-0.022599999999997,0.2130122909599486,0.294399999999996,-0.1039849999999944,0.3122246630633085,-0.2024400000000241,-0.0280049999999931,0.2043678879496712,0.2528399999999919,-0.0932400000000086,0.2694842540854614,-0.2091599999999971,-0.0113200000000119,0.2094661022695535,0.2623999999999569,-0.1253700000000037,0.2908116175464424,-0.129660000000058,-0.0339900000000028,0.1340411716601106,0.1603599999999687,-0.1078259999999886,0.1932402025355684,-0.1473000000000865,0.0156240000000167,0.1481262953564492,0.2835999999999785,-0.0849000000000046,0.2960354201780398,0.0131999999999834,-0.0202400000000153,0.0241639731832367,0.1123999999999796,-0.0937299999999936,0.1463525636946419,-0.0452000000000225,0.0155100000000061,0.0477870285747317,0.3079400000000305,0.0046699999999901,0.3079754089209375,0.1593800000000556,-0.0381640000000231,0.1638855554831465,0.108349999999973,-0.044169999999994,0.1170073134466117,0.0083699999999566,-0.0838259999999877,0.0842428345676783,0.469600000000014,0.1342199999999991,0.4884047178314445,0.3141000000000531,0.0936599999999998,0.3277666938540787,0.0202899999999885,0.0266800000000273,0.0335187484850045,-0.033770000000004,-0.2708499999999674,0.2729471293125879,0.2777599999999438,-0.0167200000000207,0.2782627822759801,0.0299199999999473,-0.0389800000000377,0.0491390557499815,0.1855399999999463,-0.0234999999999843,0.18702230241332,-0.0163600000000769,-0.0353699999999719,0.0389703284564106,0.1835599999999431,0.0088399999999921,0.1837727379128334,0.1557599999998729,-0.0431299999999907,0.1616210830923973,0.0960000000000036,-0.0062399999999911,0.096202586243825,-0.0470999999998866,-0.0410499999999842,0.0624780961616792,0.0561000000000149,-0.0492500000000006,0.0746510046817974,0.2556000000000722,-0.0695299999999861,0.2648882422834864,0.0636999999999261,-0.0418300000000044,0.0762065541800111,-0.044700000000148,-0.0783000000000129,0.0901608562515644,-0.0201099999999883,-0.0371749999999906,138.66911833333333,0.0108389602053517,105.64194166666668,0.0881351442861098,94.04180666666667,0.078411880052284,-0.03561859,0.30574669,0.0267249752356311,0,0
3,100.0,521.19574,93.81543,0.92087454,523.2996,91.57219,0.8743913,519.30035,91.59743,0.852535,526.7171,92.500694,0.6978946,516.2172,92.4586,0.6239483,531.4124,105.54121,0.98953444,511.57092,105.54148,0.99140996,534.9355,122.6626,0.9293167,507.84717,122.3884,0.9257778,532.4721,138.47592,0.8755836,507.655,137.13574,0.864321,527.1724,138.6101,0.99146044,514.6454,138.53223,0.99226063,526.1186,162.97836,0.9779073,513.166,162.78186,0.97716796,524.4596,186.89177,0.9547643,514.3434,186.58682,0.9535819,0.96444254,0.04028585,0.92952234,0.25399738,159.5180661806802,168.2826272829686,178.50764342941056,173.6773178257141,1.0108886829264716,138.571165,105.541345,93.81543,27.280500000000075,95.31958,0.2862003768144981,179.99922032729071,0.9054546923529412,0.0007900000000518,-0.1444699999999983,0.1444721599478584,-0.3049599999999373,-0.0550300000000021,0.3098853053953381,0.0260000000000673,-0.1440649999999976,0.1463923639572871,-0.2683999999999287,-0.0400800000000032,0.2713760608453922,-0.0037899999999808,-0.1450399999999945,0.1450895092692723,-0.2566299999999728,-0.0517999999999858,0.2618056471888729,0.0579999999999927,-0.0903059999999982,0.10732741325495,-0.2043999999999641,0.0350640000000055,0.2073857374459144,0.0072400000000243,-0.0895340000000004,0.0898262475894458,-0.1531199999999444,0.0182919999999882,0.1542087275869383,0.0631000000000767,-0.0143499999999932,0.064711146644218,-0.2204999999999017,0.0705500000000114,0.2315114522004436,0.0005199999999945,-0.0097899999999953,0.0098038002835585,-0.1118799999999851,0.0839399999999983,0.1398680020590713,0.0393000000000256,-0.0229199999999991,0.04549523491534,-0.2686400000000049,-0.0275899999999893,0.2700530646002782,0.039570000000026,-0.0159299999999973,0.042656181263704,-0.068779999999947,0.0282399999999967,0.0743517720030432,0.0820999999999685,-0.0860600000000033,0.1189400420379756,-0.3875000000000455,-0.2202800000000024,0.445734818473985,0.064549999999997,-0.0975600000000156,0.1169814348518715,0.0442600000000084,-0.1242400000000429,0.1318883057742854,0.0183000000000674,-0.0877600000000029,0.0896476859712674,-0.2594599999998763,-0.0710399999999822,0.2690096154414063,-0.0268399999999928,-0.0927100000000109,0.0965169917682977,-0.2123799999999391,-0.0692100000000266,0.2233725330025557,-0.0136599999999589,-0.1142799999999795,0.1150935011197165,-0.197219999999902,-0.1231199999999717,0.2324957264122383,-0.1158999999998968,-0.1247000000000184,0.1702436489270031,-0.2118999999999005,-0.1184600000000273,0.2427640451136953,0.0107000000000425,-0.1054299999999841,0.1059715759059832,-0.0453999999999723,-0.0561799999999834,0.0722312425477759,-0.0942000000000007,-0.1199200000000075,0.1524940864427272,-0.1578999999999268,-0.0780900000000031,0.1761546425728751,-0.0902350000000069,-0.0701250000000186,138.64463,0.0497698293815265,105.6167925,0.0877978251913627,93.9852125,0.1300405606916551,-0.0454444099999999,0.2928093625,0.033847412096039,0,0
4,133.33333333333334,521.19415,93.77382,0.92073214,523.311,91.531685,0.8742316,519.304,91.55995,0.852817,526.7639,92.48133,0.69625145,516.2634,92.45015,0.623809,531.4087,105.52733,0.98926044,511.7199,105.53484,0.99127793,534.9012,122.602936,0.92726564,508.08817,122.32965,0.92490774,532.72455,138.43173,0.8729197,507.77036,137.0107,0.8630996,527.1804,138.42554,0.9912354,514.7597,138.34528,0.9921111,526.07477,162.76181,0.9777157,513.2136,162.5584,0.97713405,524.53766,186.7164,0.9549929,514.373,186.3997,0.95405656,0.98087479,0.16482809,0.96047367,0.11152303,160.61087939981073,169.0382865280577,178.92972910555076,173.5623107866111,1.0363162768510976,138.38541,105.531085,93.77382,27.130840000000035,95.184715,0.2850335761888498,179.97814537791663,0.9049304676470588,-0.0015899999999646,-0.0416100000000057,0.0416403674335417,-0.0023800000000164,0.1028599999999926,0.1028875308285632,0.0113999999999805,-0.0405050000000102,0.0420786766070462,-0.0146000000000867,0.1035599999999874,0.1045840982176541,0.0036499999999932,-0.0374800000000021,0.0376573087195582,0.0074399999999741,0.1075599999999923,0.1078170079347315,0.0468000000000756,-0.0193639999999959,0.0506478478911683,-0.011199999999917,0.0709420000000022,0.0718206611219812,0.0461999999999989,-0.0084500000000105,0.0469663975625135,0.0389599999999745,0.0810839999999899,0.0899583050973971,-0.0037000000000944,-0.0138800000000003,0.014364692826535,-0.0668000000001711,0.0004699999999928,0.0668016534228222,0.1489799999999945,-0.0066400000000044,0.1491278981277428,0.14846,0.0031499999999908,0.1484934143320839,-0.0343000000000301,-0.0596639999999979,0.0688206574801623,-0.0736000000000558,-0.0367439999999987,0.0822622728594835,0.2409999999999854,-0.0587500000000034,0.2480575790013145,0.2014299999999593,-0.042820000000006,0.2059310498686008,0.2524500000000671,-0.0441900000000146,0.2562884285332351,0.1703500000000986,0.0418699999999887,0.1754201225630419,0.1153600000000096,-0.1250399999999842,0.1701262213769479,0.0508100000000126,-0.0274799999999686,0.0577650975936124,0.0079999999999245,-0.1845599999999763,0.1847333039816861,-0.0103000000001429,-0.0967999999999733,0.0973464431810314,0.1142999999999574,-0.1869499999999959,0.2191227795095452,0.1411399999999503,-0.094239999999985,0.1697105689106696,-0.0438300000000708,-0.2165500000000122,0.2209411039168844,-0.0301700000001119,-0.1022700000000327,0.1066273032577184,0.0475999999999885,-0.2234599999999886,0.2284734811744983,0.1634999999998854,-0.0987599999999702,0.1910125325730137,0.0780599999999367,-0.1753700000000151,0.1919583301135833,0.0673599999998941,-0.0699400000000309,0.0971029000596278,0.0296000000000731,-0.187119999999993,0.1894467059623939,0.1238000000000738,-0.0671999999999855,0.1408626281169577,-0.1857550000000003,-0.0955199999999933,138.592786,0.1236801464160693,105.599651,0.0851498602024681,93.942934,0.1470383228277599,-0.14247435,0.2565520959999999,0.0862101058429893,0,0
5,166.66666666666666,521.56165,93.88482,0.9197417,523.6401,91.62857,0.86832434,519.63055,91.66375,0.8564415,526.99036,92.53049,0.67801756,516.4606,92.494675,0.6400368,531.54694,105.567825,0.9885035,511.82022,105.53501,0.99134606,534.90674,122.78537,0.91942143,508.12595,122.36336,0.9267122,532.5029,138.69104,0.8615737,507.88797,137.02641,0.8640154,527.39557,138.46794,0.99065393,514.94214,138.39288,0.99193233,526.1831,162.83426,0.97632307,513.2873,162.64136,0.9767834,524.54944,186.7316,0.95281726,514.38654,186.4537,0.9533974,1.12416183,0.14640468,1.11449336,0.01449308,160.36403347684222,168.54827982792133,178.937941831747,173.4528493493039,0.897011073692184,138.43041,105.5514175,93.88482,27.018770000000018,95.10303,0.2840999883589412,-179.90468971676555,0.9032965635294116,0.36749999999995,0.1110000000000042,0.3838974472433545,0.3690899999999146,0.1526100000000099,0.3993960943724162,0.3290999999999258,0.0968850000000003,0.3430648819464785,0.3176999999999452,0.1373900000000105,0.3461348033641924,0.3265499999999974,0.1037999999999925,0.3426504669484587,0.3229000000000042,0.1412799999999947,0.3524548884609224,0.2264599999999745,0.0491600000000005,0.2317344109103966,0.1796599999998989,0.0685239999999964,0.1922843055893101,0.1971999999999525,0.0445250000000072,0.2021640809465962,0.1509999999999536,0.0529750000000177,0.1600229690544075,0.1382399999999961,0.0404949999999928,0.1440490979666251,0.1419400000000905,0.0543749999999931,0.1519986981030593,0.1003200000000106,0.0001699999999971,0.1003201440389821,-0.0486599999999839,0.0068100000000015,0.0491342212719247,0.0055399999999963,0.1824340000000006,0.1825180976122647,0.0398400000000265,0.2420979999999986,0.2453541668771929,0.0377799999999979,0.0337099999999992,0.0506329191336998,-0.2032199999999875,0.0924600000000026,0.2232649099164385,-0.2216500000000678,0.2593099999999992,0.3411310578062773,-0.4741000000001349,0.3035000000000138,0.56292367155782,0.1176100000000133,0.0157099999999843,0.1186546088443371,0.0022500000000036,0.1407499999999686,0.1407679828653916,0.2151700000000573,0.0423999999999864,0.2193077492931418,0.2071700000001328,0.2269599999999627,0.307295054467263,0.1824400000000423,0.0475999999999885,0.1885473776004703,0.0681400000000849,0.2345499999999845,0.2442473379588901,0.1083300000000235,0.0724500000000034,0.1303241781098412,0.1521600000000944,0.2890000000000157,0.3266093470800213,0.073699999999917,0.0829599999999857,0.1109686964868264,0.0260999999999285,0.3064199999999744,0.3075295537017224,0.0117800000000443,0.0151999999999929,0.0192304030119192,-0.0662799999998924,0.1905700000000081,0.2017671016295492,0.0135399999999208,0.054000000000002,0.0556716408955051,-0.0160600000001522,0.2411199999999951,0.2416542530145135,0.0449999999999874,0.2307549999999878,138.54597900000002,0.1336633750509205,105.5639985,0.0449038435715766,93.896662,0.1108361900283534,-0.0970299499999999,0.202903132,0.1353186457978288,0,0
6,200.0,521.7286,93.92845,0.9195562,523.8326,91.6845,0.86916655,519.8284,91.69718,0.8551566,527.2151,92.58968,0.6818167,516.6973,92.491684,0.63641787,531.76385,105.61953,0.9885655,511.94565,105.47338,0.9912664,535.0123,122.90503,0.9204244,508.13916,122.20302,0.92587304,532.5275,138.74158,0.8628124,508.04514,136.63243,0.8629323,527.47687,138.46822,0.99059874,514.9704,138.34207,0.9918155,526.20575,162.8128,0.9760345,513.3273,162.57242,0.9762872,524.46844,186.67001,0.95198077,514.4417,186.32274,0.9522632,1.1298534,0.18841005,1.11400207,-0.00835194,160.43942022117056,167.55505920347227,178.82391023533555,173.434184865831,1.100432265913715,138.405145,105.546455,93.92845,26.96715999999998,94.98551,0.2839081425797665,-179.5774779555353,0.9031157570588236,0.1669500000000425,0.0436299999999931,0.1725568874314022,-0.2005499999999074,-0.067370000000011,0.2115632751683626,0.1924999999999954,0.0559300000000035,0.2004605070830627,-0.1365999999999303,-0.0409549999999967,0.1426074052249065,0.1978500000000167,0.0334300000000098,0.2006543979084617,-0.1286999999999807,-0.0703699999999827,0.1466820605936274,0.224739999999997,0.0591900000000009,0.232403794504304,-0.0017199999999775,0.0100300000000004,0.0101764089933498,0.2367000000000416,-0.0029909999999944,0.2367188967552436,0.0395000000000891,-0.0475160000000016,0.0617901307330483,0.216910000000098,0.0517049999999983,0.2229873429704977,0.0786700000001019,0.0112100000000054,0.0794646651035299,0.1254299999999943,-0.0616299999999938,0.139753145939538,0.0251099999999837,-0.0617999999999909,0.0667064622056819,0.1055599999999685,0.1196599999999961,0.1595663786641548,0.1000199999999722,-0.0627740000000045,0.1180871520360916,0.013210000000015,-0.160340000000005,0.1608832486618852,-0.0245699999999828,-0.1940500000000042,0.195599303168495,0.0246000000000776,0.0505400000000122,0.0562089992795198,0.2462500000001455,-0.208769999999987,0.322837382284125,0.1571700000000078,-0.3939799999999991,0.4241729002423443,0.0395599999999944,-0.4096899999999834,0.4115955413995468,0.0812999999999419,0.0002800000000036,0.0813004821633338,-0.1338700000001154,-0.0421199999999828,0.1403398421690342,0.0282600000000456,-0.0508099999999842,0.0581402072579809,-0.1541799999999966,-0.0984099999999728,0.1829098152095551,0.0226499999999987,-0.0214599999999904,0.0312018284720548,-0.0856800000000248,-0.0939099999999939,0.1271225806062916,0.0400000000000773,-0.0689399999999977,0.079703974806818,-0.0336999999998397,-0.1518999999999835,0.1555933803218639,-0.0810000000000172,-0.0615899999999953,0.1017562189745778,-0.0927800000000615,-0.0767899999999883,0.1204360099804441,0.0551600000000007,-0.1309599999999875,0.1421025939242377,0.0416200000000799,-0.1849599999999895,0.189584878088952,-0.0252649999999903,-0.0702649999999778,138.490706,0.1200558539493368,105.5447435,0.0089550383165612,93.872484,0.0773234617047211,-0.02284502,0.134220668,0.1385832841141639,0,0
7,233.3333333333333,521.98267,94.24989,0.92101246,524.09644,92.00176,0.87238437,520.0863,91.998985,0.8558026,527.4883,92.7925,0.68896335,516.9435,92.651886,0.63445014,531.98096,105.65727,0.98910296,512.1657,105.41715,0.9915344,535.14703,122.992935,0.92505133,508.313,122.08328,0.92767304,532.63635,138.8734,0.86985755,508.18466,136.46297,0.8664682,527.46857,138.40442,0.99110514,514.9994,138.22243,0.992176,525.9559,162.75404,0.9772584,513.34344,162.46451,0.97719425,523.9831,186.65054,0.95381963,514.4522,186.25128,0.9536518,1.09422584,0.16900406,1.08108558,-0.00466726,160.665925013689,167.49496926830145,178.83539981675605,173.42346810415435,1.4669983800039468,138.313425,105.53721,94.24989,26.962369999999964,94.651555,0.2848592367567625,-179.30572754459268,0.9051473894117646,0.254069999999956,0.3214399999999955,0.4097258089258898,0.0871199999999134,0.2778100000000023,0.2911499450454803,0.2638400000000729,0.3172600000000045,0.4126323462842453,0.0713400000000774,0.2613300000000009,0.270892533119707,0.2579000000000633,0.3018050000000016,0.3969869872238051,0.0600500000000465,0.2683749999999918,0.2750111690913683,0.2731999999999743,0.2028200000000026,0.3402560688657692,0.0484599999999773,0.1436300000000017,0.1515847898042487,0.2461999999999307,0.1602019999999981,0.2937330774767549,0.009499999999889,0.1631929999999926,0.1634692792208844,0.2171099999999342,0.0377399999999994,0.2203657407583388,0.0001999999998361,-0.0139649999999988,0.0139664320783764,0.2200500000000147,-0.0562299999999993,0.2271207066738002,0.0946200000000203,0.0053999999999945,0.0947739647793833,0.1347299999999904,0.0879050000000063,0.1608709480453153,0.0291700000000219,-0.0317549999999897,0.0431192407748632,0.1738399999999842,-0.119739999999993,0.2110876907827475,0.1606299999999692,0.0406000000000119,0.1656814923278731,0.1088499999999612,0.1318200000000047,0.1709527270914179,0.0842499999998835,0.0812799999999924,0.1170662244201082,0.1395200000000045,-0.1694599999999866,0.2195051753376141,-0.0176500000000032,0.2245200000000125,0.2252126837014419,-0.0082999999999628,-0.0638000000000147,0.0643376250727462,-0.0895999999999048,-0.0640800000000183,0.1101562817091485,0.0289999999999963,-0.1196400000000039,0.123104547438349,0.0007399999999506,-0.0688300000000197,0.0688339778016833,-0.2498499999999239,-0.0587600000000065,0.2566666322293624,-0.2724999999999227,-0.0373000000000161,0.2750409787649089,0.0161399999999503,-0.1079100000000039,0.1091103464388196,-0.023860000000127,-0.0389700000000061,0.0456942064162027,-0.485339999999951,-0.0194699999999841,0.4857303742818147,-0.4043399999999337,0.0421200000000112,0.4065278957217418,0.010499999999979,-0.0714600000000018,0.0722272912409141,-0.0446600000000216,0.0594999999999856,0.0743960052691018,-0.0917200000000093,-0.066455000000019,138.42111100000002,0.0945098188946785,105.5415025,0.0079026759709066,93.930482,0.1883418186967458,0.00368468,0.073398858,0.112156900227184,0,0
8,266.6666666666667,522.3062,94.439705,0.923468,524.42084,92.20596,0.87880915,520.4119,92.18492,0.855708,527.8019,92.925766,0.70549726,517.2392,92.750374,0.62668806,532.2862,105.59971,0.990008,512.4407,105.3187,0.99174666,535.4439,122.77783,0.93321294,508.49826,121.90251,0.92818546,532.5436,138.15189,0.8822377,508.29462,136.11334,0.8690149,527.45856,138.28006,0.9916795,514.9952,138.04222,0.9924096,525.7156,162.59671,0.97822064,513.32153,162.2554,0.9772489,523.4508,186.4452,0.95437217,514.4415,185.99199,0.9528503,1.00241009,0.15868695,0.98921419,0.03316213,158.9008734697744,167.44838958500196,178.67491813194937,173.34447527063793,1.99058893638362,138.16114,105.459205,94.439705,27.149279999999976,94.26028,0.2880246028547271,-179.18875256077035,0.907726896470588,0.3235300000000052,0.18981500000001,0.3751018463364412,0.0694600000000491,-0.1316249999999854,0.148828197009179,0.3243999999999687,0.2042000000000001,0.3833184055064141,0.0605599999998958,-0.1130600000000043,0.1282578543403419,0.3255999999998948,0.1859350000000006,0.3749495755764124,0.0676999999998315,-0.115870000000001,0.1341981628040318,0.3136000000000649,0.1332659999999919,0.3407415248484378,0.0404000000000905,-0.0695540000000107,0.0804358061811331,0.2957000000000107,0.098487999999989,0.3116703003880931,0.04950000000008,-0.0617140000000091,0.0791130064907727,0.3052400000000261,-0.0575599999999951,0.3106197212026554,0.0881300000000919,-0.0952999999999946,0.1298036474834786,0.2749999999999772,-0.0984499999999997,0.2920914283233718,0.0549499999999625,-0.0422200000000003,0.0692966875109908,0.2968700000000126,-0.2151050000000083,0.3666087259258992,0.1621400000000221,-0.3030100000000146,0.3436632649848046,0.1852600000000279,-0.1807699999999954,0.2588417673019729,0.0114200000000437,-0.0610300000000023,0.0620892687990548,-0.0927500000000236,-0.721509999999995,0.7274470720265476,-0.2015999999999849,-0.8533299999999997,0.8768207621287223,0.1099600000000009,-0.349630000000019,0.3665137630430997,-0.0295600000000035,-0.1801700000000323,0.1825788117499176,-0.0100099999999656,-0.1243599999999958,0.1247622126286572,-0.0017100000000027,-0.060559999999981,0.0605841373628255,-0.0042000000000825,-0.1802100000000166,0.1802589362556172,-0.0332000000000789,-0.0605700000000126,0.069072171675768,-0.2403000000000474,-0.1573300000000017,0.2872225946892468,0.0095499999998764,-0.0985699999999951,0.0990315474987475,-0.0219099999999343,-0.2091099999999812,0.2102547031578349,-0.0380499999998846,-0.1011999999999773,0.1081168002670567,-0.5323000000000775,-0.2053400000000067,0.5705329136869189,-0.0469600000001264,-0.1858700000000226,0.1917104548531985,-0.0106999999999288,-0.2592900000000213,0.2595106820537635,-0.0211999999999079,-0.1878300000000194,0.1890226147845897,-0.1522850000000062,-0.0605649999999968,138.339106,0.1085967785779425,105.5250745,0.0376605460993519,94.055337,0.278396214315131,0.03782939,0.0292318079999999,0.0489034959827288,0,0
9,300.0,522.6268,94.77217,0.9238549,524.72864,92.54668,0.88174397,520.7398,92.49662,0.8509242,528.0589,93.16475,0.71972686,517.4818,92.920555,0.6136167,532.5264,105.63501,0.99094725,512.5694,105.21929,0.99193853,535.52734,122.875046,0.9418053,508.49203,121.70166,0.9285673,531.37537,137.78122,0.8953256,508.52853,135.62337,0.87161714,527.3982,138.37158,0.9925597,514.81836,138.05351,0.9928974,525.56274,162.59897,0.9802453,513.00635,162.19223,0.97827154,523.11786,186.38144,0.9572299,514.2223,185.86021,0.9540918,0.98308514,0.18497102,0.96538658,-0.01645824,154.56090849172486,165.95503583868424,178.4629429774694,172.76605202019778,2.514305583299428,138.21254499999998,105.42715,94.77217,27.03530999999998,93.88482,0.2879625237821988,-178.80665645325607,0.909727258235294,0.3206000000000131,0.3324649999999991,0.4618628976493,-0.0029299999999921,0.142649999999989,0.1426800876085967,0.3078000000000429,0.3407199999999903,0.4591633243193753,-0.0165999999999257,0.1365199999999902,0.1375255263578179,0.3278999999999996,0.3116999999999876,0.4524105436437043,0.0023000000001047,0.125764999999987,0.1257860295302988,0.2569999999999481,0.238984000000002,0.3509449419153585,-0.0566000000001167,0.1057180000000101,0.1199160353081078,0.2426000000000385,0.1701809999999994,0.2963382067183011,-0.0530999999999721,0.0716930000000104,0.0892160089277621,0.2401999999999589,0.0352999999999923,0.2427800032951225,-0.0650400000000672,0.0928599999999875,0.1133718712909266,0.1286999999999807,-0.099410000000006,0.1626223788412782,-0.1462999999999965,-0.0009600000000062,0.1463031496585053,0.0834399999999959,0.097216000000003,0.1281139502786481,-0.2134300000000166,0.3123210000000114,0.3782813396679966,-0.0062300000000163,-0.2008500000000026,0.2009465983787764,-0.1914900000000443,-0.0200800000000072,0.1925399348187727,-1.168229999999994,-0.3706700000000182,1.2256253839571043,-1.0754799999999705,0.3508399999999767,1.1312585628404852,0.2339099999999803,-0.4899699999999996,0.5429405943563166,0.1239499999999793,-0.1403399999999806,0.1872402683719221,-0.0603600000000597,0.0915200000000027,0.1096322945121906,-0.050350000000094,0.2158799999999985,0.2216738525401876,-0.1768399999999701,0.0112900000000024,0.1772000273701714,-0.1726399999998875,0.1915000000000191,0.2578309903792957,-0.1528600000000324,0.0022600000000068,0.1528767058776775,0.087440000000015,0.1595900000000085,0.1819745083796226,-0.3151800000000548,-0.0631700000000137,0.3214481004766342,-0.2932700000001205,0.1459399999999675,0.327575604250471,-0.3329400000000078,-0.063760000000002,0.3389902376175536,0.1993600000000697,0.1415800000000047,0.244518518726147,-0.2192000000000007,-0.131779999999992,0.2557627971382824,-0.2085000000000718,0.1275100000000293,0.2443993659976175,0.0514049999999883,0.2036899999999946,138.304533,0.1173352099009897,105.5042875,0.0571529782141896,94.255007,0.369213689033862,-0.04962037,0.0036355539999999,0.0200381002789531,0,0
10,333.3333333333333,522.9938,95.24609,0.9239333,525.08673,93.008286,0.8834344,521.08765,92.93367,0.8488111,528.39386,93.39883,0.72557306,517.72473,93.09756,0.6056427,532.8811,105.45972,0.9913844,512.7481,105.034065,0.9919986,535.98663,122.42511,0.9464455,508.60074,121.48779,0.9289914,531.4309,136.60217,0.90310204,508.54288,135.30472,0.8738822,527.6756,138.11797,0.99315166,514.928,137.78195,0.993287,526.2301,162.3383,0.981974,513.06226,161.90544,0.9795756,523.8378,186.20003,0.9604813,514.11865,185.64198,0.9566542,0.97660104,0.20609652,0.95457818,0.00736936,151.81223964931087,166.09254285555042,177.69027207184607,173.02922228017914,2.6485755834144418,137.94996,105.2468925,95.24609,27.44374999999997,93.26636,0.2942513217600499,-178.78882420744856,0.9110777917647058,0.3669999999999618,0.4739199999999925,0.5994073459676357,0.0463999999999487,0.1414549999999934,0.1488706721452999,0.3580899999999474,0.4616060000000033,0.58421618202166,0.0502899999999044,0.1208860000000129,0.1309294050089341,0.3478500000001077,0.4370500000000135,0.5585806342866594,0.019950000000108,0.1253500000000258,0.1269276368645173,0.3349600000000237,0.2340800000000058,0.4086461158508895,0.0779600000000755,-0.0049039999999962,0.0781140884604802,0.2429300000000012,0.1770050000000083,0.3005757058130339,0.0003299999999626,0.0068240000000088,0.0068319745315754,0.3546999999999798,-0.1752899999999897,0.3956496860860401,0.1145000000000209,-0.210589999999982,0.2397048145115096,0.1787000000000489,-0.1852250000000026,0.2573751942690251,0.0500000000000682,-0.0858149999999966,0.0993187506214523,0.4592900000000099,-0.4499359999999939,0.6429538927450426,0.375850000000014,-0.547151999999997,0.6638060963896062,0.1087099999999736,-0.21387,0.2399129863096082,0.11493999999999,-0.0130199999999973,0.115675079425076,0.0555299999999761,-1.1790499999999895,1.1803569305087225,1.2237599999999702,-0.8083799999999712,1.466651547573547,0.0143500000000358,-0.318649999999991,0.3189729533988662,-0.2195599999999444,0.1713200000000085,0.27849081852007,0.2774000000000569,-0.2536099999999806,0.3758574092658301,0.3377600000001166,-0.3451299999999833,0.4829042705340959,0.109640000000013,-0.2715599999999938,0.2928579232324089,0.2864799999999832,-0.2828499999999962,0.402585286492177,0.6673600000000306,-0.2606700000000046,0.7164622938438863,0.820220000000063,-0.2629300000000114,0.8613321271728517,0.0559100000000398,-0.2867899999999963,0.2921890350441001,0.3710900000000947,-0.2236199999999826,0.4332593824720505,0.7199400000000651,-0.1814099999999996,0.7424440663781303,1.0528800000000729,-0.1176499999999975,1.0594327807370096,-0.103650000000016,-0.2182300000000054,0.2415939887497321,0.1155499999999847,-0.0864500000000134,0.1443101001316221,-0.262584999999973,-0.3139899999999613,138.208443,0.1723229226119221,105.4433825,0.1209852322341568,94.527261,0.5049432859292139,0.0238275999999999,0.0022108099999999,0.0193132584655904,0,0
11,366.6666666666666,522.7222,95.4105,0.9205275,524.83777,93.17952,0.8818782,520.88257,93.102516,0.83872306,528.2564,93.52724,0.7324098,517.6788,93.23991,0.58554536,532.8842,105.443886,0.99143827,512.7234,105.09573,0.9915759,536.0341,122.17021,0.9484169,508.52838,121.49242,0.92487216,531.0556,135.73029,0.9063438,508.55692,135.06058,0.8694343,527.5962,137.97955,0.99348867,514.82837,137.65578,0.99340665,526.11975,162.13239,0.9835661,512.93097,161.71053,0.980692,523.7031,186.11452,0.9643699,514.0586,185.54141,0.9598375,0.96814957,0.20806169,0.9454893,0.00859759,149.17456837872558,165.52844955484537,177.7439029047978,172.78083633334268,2.799437496884791,137.81766499999998,105.269808,95.4105,27.50571999999994,93.012004,0.2957222564979643,-179.01065995216848,0.9097956511764708,-0.2715999999999212,0.1644100000000037,0.3174857604680223,-0.638599999999883,-0.3095099999999888,0.7096523093035375,-0.2489600000000109,0.1712339999999983,0.3021624800599917,-0.6070499999999583,-0.2903720000000049,0.6729231760639192,-0.2050800000000663,0.1688459999999878,0.265644081650661,-0.552930000000174,-0.2682040000000256,0.6145445228103544,-0.1374600000000327,0.1284100000000023,0.1881073621632327,-0.4724200000000564,-0.1056700000000034,0.4840937980392375,-0.0459299999999984,0.1423499999999933,0.1495763597631589,-0.2888599999999997,-0.0346550000000149,0.2909313812997849,0.0031000000000176,-0.0158339999999981,0.0161346074014848,-0.3515999999999621,0.1594559999999916,0.3860683565587456,-0.0247000000000525,0.0616650000000049,0.0664278723504163,-0.2034000000001015,0.2468900000000076,0.3198847168903901,0.0474699999999757,-0.2549000000000063,0.2592824924671948,-0.4118200000000342,0.1950359999999875,0.4556695663482732,-0.0723599999999464,0.0046299999999916,0.0725079754233434,-0.1810699999999201,0.2184999999999917,0.2837756065978318,-0.3752999999999247,-0.8718800000000044,0.9492232742616205,-0.4308299999999008,0.307169999999985,0.5291199276155694,0.0140399999999658,-0.2441400000000158,0.2445433728400889,-0.0003100000000699,0.0745099999999752,0.0745106448770667,-0.0794000000000778,-0.1384200000000248,0.1595758640898404,-0.3568000000001348,0.1151899999999557,0.3749332955341336,-0.0996300000000474,-0.1261700000000019,0.1607638199347413,-0.2092700000000604,0.1453899999999919,0.2548179448155545,-0.1103500000000394,-0.2059100000000171,0.233615176304999,-0.7777100000000701,0.0547599999999874,0.7796354928427178,-0.1312900000000354,-0.194909999999993,0.2350041961327639,-0.1872000000000753,0.0918800000000032,0.2085324300918895,-0.1347000000000662,-0.0855099999999993,0.1595495224061097,-0.8546400000001313,0.0959000000000003,0.8600036858061857,-0.0600500000000465,-0.1005699999999762,0.1171338012701748,0.0435999999999694,0.1176600000000291,0.1254784268310859,-0.1322950000000275,0.1302899999999454,138.090947,0.2023425171769991,105.3880531,0.1252469160770156,94.823671,0.5005279624856049,0.00122823,0.005600716,0.0184646267765999,0,0
12,400.0,522.1737,95.37796,0.91833365,524.3552,93.16485,0.88670343,520.4494,93.07786,0.8251801,528.0384,93.52573,0.7555934,517.56384,93.25047,0.54845935,532.97314,105.380516,0.9917508,512.737,105.10956,0.9907143,536.33044,121.79614,0.9529901,508.5448,121.37395,0.9149677,531.0299,134.657,0.9131728,508.6653,134.52159,0.85827935,527.5532,137.81558,0.99369884,514.72314,137.48044,0.9931278,526.1891,161.87581,0.9845821,512.8074,161.43811,0.98038715,523.86444,185.88573,0.96672153,513.9974,185.22928,0.9602275,0.9683953,0.21174637,0.94475236,-0.01989728,146.04258091391418,165.0213155233847,177.71473396609693,172.5646881154975,3.0330643540023923,137.64801,105.245038,95.37796,27.785639999999944,92.80787,0.2993888309322379,-179.2328721011407,0.9079347,-0.54849999999999,-0.0325399999999973,0.5494643770072715,-0.2769000000000687,-0.196950000000001,0.3397983409318511,-0.4825700000000097,-0.0146699999999952,0.4827929305613425,-0.2336099999999987,-0.1859039999999936,0.2985530594651427,-0.4331700000000182,-0.0246559999999931,0.4338711412804676,-0.2280899999999519,-0.1935019999999809,0.2991121396800382,-0.2179999999999609,-0.0015100000000103,0.2180052295243923,-0.0805399999999281,-0.1299200000000127,0.1528590788929192,-0.1149599999999964,0.0105600000000123,0.1154439916149793,-0.0690299999999979,-0.1317899999999809,0.1487741408981907,0.0889399999999795,-0.0633700000000061,0.1092065954967791,0.0858399999999619,-0.047536000000008,0.0981232739771468,0.0135999999999967,0.0138299999999986,0.0193966208397203,0.0383000000000492,-0.0478350000000062,0.0612786849157549,0.2963399999999865,-0.3740700000000032,0.4772271581752178,0.2488700000000108,-0.1191699999999968,0.2759307264514132,0.0164199999999823,-0.118470000000002,0.1196024970475111,0.0887799999999288,-0.1230999999999937,0.1517744985166672,-0.0257000000000289,-1.073289999999986,1.0735976500067292,0.3495999999998957,-0.2014099999999814,0.4034676543416085,0.108380000000011,-0.5389899999999841,0.5497785413236727,0.0943400000000451,-0.2948499999999683,0.3095748021076486,-0.0430000000000063,-0.1639699999999777,0.1695144858116652,0.0364000000000714,-0.0255499999999528,0.0444720417791087,-0.1052300000000059,-0.1753400000000056,0.2044931991534271,-0.0055999999999585,-0.0491700000000037,0.0494878661896014,0.0693500000000995,-0.2565799999999854,0.2657869803056694,0.1797000000001389,-0.0506699999999682,0.1867070938664268,-0.1235699999999724,-0.272420000000011,0.299135757307613,0.007720000000063,-0.0775100000000179,0.0778935074316451,0.1613399999999956,-0.2287900000000036,0.2799561746059554,0.2960400000000618,-0.1432800000000043,0.328890316063027,-0.0611999999999852,-0.3121300000000246,0.3180732256886983,-0.0011499999999387,-0.2115600000000483,0.2115631255678085,-0.1696549999999774,-0.0373599999999498,137.95786399999997,0.2355372996311549,105.3296187,0.1047375320035972,95.049285,0.4259155548638579,-0.02849487,0.0025547119999999,0.0215760024971951,0,0
13,433.33333333333337,521.7559,95.23458,0.9183452,523.9583,93.01197,0.8898805,520.0322,92.94265,0.82057077,527.7069,93.43062,0.7674003,517.19275,93.21602,0.5348387,532.77356,105.36696,0.99201643,512.45154,105.17496,0.99039686,536.2248,121.77406,0.95539314,508.3384,121.38672,0.9102266,530.43964,134.48271,0.9167136,508.77246,134.1958,0.8531347,527.3759,137.84668,0.9937651,514.48,137.5379,0.9929501,525.9286,161.8854,0.98475677,512.6169,161.4803,0.979841,523.4871,185.88287,0.9669611,513.95996,185.25757,0.95936733,0.96828849,0.21395718,0.94426107,0.01326485,143.6452838514971,163.82285337756844,177.63616989413697,172.3175229564521,2.9744260877578186,137.69229,105.27096,95.23458,27.88639999999998,92.94022,0.3000466288970841,-179.4586924742242,0.9074446,-0.4178000000000565,-0.1433800000000076,0.4417178561027949,0.1306999999999334,-0.1108400000000102,0.1713709298568017,-0.3968999999999596,-0.1528799999999961,0.4253256451237884,0.0856700000000501,-0.1382100000000008,0.1626079733592692,-0.4171999999999798,-0.1352100000000007,0.4385630902162006,0.0159700000000384,-0.1105540000000075,0.1117015121473425,-0.3315000000000054,-0.0951099999999911,0.344874125007954,-0.1135000000000445,-0.0935999999999808,0.1471163145269977,-0.371089999999981,-0.0344500000000067,0.3726856458196189,-0.2561299999999846,-0.045010000000019,0.2600547576953628,-0.199579999999969,-0.0135559999999941,0.2000398498699383,-0.2885199999999486,0.049814000000012,0.2927887036686551,-0.2854599999999436,0.0653999999999968,0.2928558887916844,-0.2990599999999404,0.0515699999999981,0.3034738019993886,-0.1056399999999939,-0.0220799999999883,0.1079228242773427,-0.4019799999999804,0.3519900000000149,0.5343078518045516,-0.2064000000000305,0.0127700000000032,0.2067946636158987,-0.2228200000000129,0.1312400000000053,0.2585975444585798,-0.5902599999999438,-0.1742900000000133,0.6154541995144223,-0.5645599999999149,0.8989999999999725,1.0615691186163314,0.1071600000000216,-0.325790000000012,0.3429612072815415,-0.0012199999999893,0.213199999999972,0.2132034905905343,-0.1772999999999456,0.0310999999999808,0.1800069443104335,-0.1342999999999392,0.1950699999999585,0.236830730480585,-0.2431399999999257,0.0574600000000202,0.249837369502575,-0.1379099999999198,0.2328000000000258,0.2705827195147353,-0.2605000000000927,0.0095900000000028,0.260676462497189,-0.3298500000001922,0.2661699999999882,0.4238484297483247,-0.1905000000000427,0.042190000000005,0.1951159811497169,-0.0669300000000703,0.314610000000016,0.3216505510643803,-0.3773399999998901,-0.0028599999999983,0.3773508383453216,-0.5386799999998857,0.2259300000000053,0.5841408283110155,-0.0374399999999468,0.0282899999999983,0.0469263007278,0.0237600000000384,0.340420000000023,0.3412481706910932,0.0442800000000147,0.2139349999999922,137.864094,0.227571763884589,105.2919697,0.0765519437601422,95.20826,0.2559284309137815,0.03316213,-0.001424744,0.0154984531817575,0,0
14,466.6666666666667,521.3273,95.19264,0.9222032,523.5581,92.95834,0.8980641,519.5923,92.911316,0.8229151,527.42487,93.379166,0.78474313,516.8187,93.24742,0.5266498,532.65326,105.29385,0.9926059,512.2812,105.215836,0.9905786,536.20874,121.56575,0.9592051,508.27036,121.34476,0.9090232,529.9579,133.9306,0.92295086,508.7816,133.86273,0.8532516,527.277,137.76451,0.9940567,514.3093,137.47498,0.9930661,525.8979,161.84454,0.9853805,512.32184,161.45134,0.97995317,523.4743,185.95514,0.96801615,513.6792,185.33304,0.9596,0.98674571,0.27610547,0.94376978,-0.08204558,140.8562436448905,163.69660865272382,177.5377373389537,172.00843288172985,2.9610291865427696,137.619745,105.254843,95.19264,27.93838000000005,93.043824,0.3002711894099372,-179.78058914546477,0.9095448947058824,-0.4285999999999603,-0.0419399999999967,0.4306470986782167,-0.0107999999999037,0.1014400000000108,0.1020133010935344,-0.4002000000000407,-0.0536299999999982,0.403777434857413,-0.0033000000000811,0.0992499999999978,0.099304846306714,-0.439899999999966,-0.031334000000001,0.4410145457419405,-0.0226999999999861,0.1038759999999996,0.1063273877042001,-0.2820299999999633,-0.0514540000000067,0.2866852542702188,0.049470000000042,0.0436559999999843,0.065978233046989,-0.3740500000000111,0.0314000000000049,0.3753656384114143,-0.00296000000003,0.0658500000000117,0.0659164933836875,-0.1202999999999292,-0.0731099999999997,0.1407734424526975,0.0792800000000397,-0.0595540000000056,0.09915642851579,-0.1703400000000101,0.0408759999999972,0.175175805909387,0.1151199999999335,-0.0245239999999995,0.1177031901691057,-0.0160599999999249,-0.2083100000000115,0.2089281687566384,0.089580000000069,-0.1862300000000232,0.2066547587161278,-0.0680399999999963,-0.0419600000000031,0.0799379959718766,0.1383600000000342,-0.0547300000000063,0.1487913387936615,-0.4817400000000589,-0.552109999999999,0.7327338396034782,0.1085199999998849,-0.3778199999999856,0.3930960986832153,0.0091400000000021,-0.3330699999999922,0.3331953848719919,-0.0980200000000195,-0.0072799999999801,0.0982899730389806,-0.0988999999999578,-0.0821699999999907,0.1285811763050491,0.0783999999999878,-0.1132699999999715,0.1377557726557825,-0.1707000000000107,-0.0629200000000196,0.1819269534731072,0.072439999999915,-0.1203800000000399,0.1404951885297048,-0.0306999999999106,-0.0408600000000092,0.0511080189402335,0.229800000000182,-0.050450000000012,0.2352726981612717,-0.2950600000000349,-0.028960000000012,0.2964777988315842,-0.1045599999999922,-0.0711500000000171,0.1264717996234765,-0.0128000000000838,0.0722700000000031,0.0733947743371597,0.3645399999998062,0.0751300000000014,0.3722014622484159,-0.2807599999999866,0.0754700000000241,0.2907265012000043,-0.2433200000000397,0.0471800000000257,0.2478519211142446,-0.0725450000000194,-0.1168250000000341,137.745534,0.1370780774506094,105.2575083,0.0123241456988682,95.292354,0.0957965802103192,-0.09531043,-0.014542212,0.0399192358575733,0,0
15,500.0,520.46594,95.02358,0.9254527,522.71594,92.764404,0.9053704,518.7179,92.777374,0.8243297,526.737,93.25242,0.8004862,516.07355,93.2946,0.5169796,532.1981,105.30982,0.9930205,511.87445,105.38327,0.9905882,535.9941,121.595184,0.96181744,508.0685,121.267654,0.90639657,529.53564,133.9879,0.92715424,508.98798,132.95871,0.85143566,527.01483,137.90092,0.9941829,514.0261,137.66382,0.9930235,525.63306,162.07411,0.9855698,511.87122,161.74141,0.9795908,523.24036,186.33176,0.9683233,513.16174,185.7774,0.9590713,1.08319648,0.37976785,1.00739195,-0.11938368,139.35279317026934,162.02881122200267,177.63827899983406,171.8124800444848,2.6756710641969,137.78237,105.346545,95.02358,27.92560000000003,93.567356,0.2984545133619626,179.7929330271207,0.910752518235294,-0.8613599999999906,-0.1690600000000017,0.8777940152450256,-0.4327600000000302,-0.127120000000005,0.4510440244588409,-0.8421599999999216,-0.1939360000000078,0.8642017343744868,-0.4419599999998809,-0.1403060000000096,0.4636964688628731,-0.8744000000000369,-0.1339420000000046,0.8845992422357515,-0.4345000000000709,-0.1026080000000035,0.4464511750058033,-0.687870000000089,-0.1267459999999971,0.6994495588790672,-0.4058400000001256,-0.0752919999999903,0.412765055284602,-0.7451500000000806,0.0471799999999973,0.7466421330866079,-0.3711000000000695,0.0157799999999923,0.3714353488832899,-0.4551600000000917,0.0159699999999958,0.4554400800325805,-0.3348600000001624,0.0890799999999956,0.3465060836408331,-0.4067499999999882,0.167434,0.4398632820047501,-0.236409999999978,0.1265580000000028,0.2681540890308971,-0.2146400000000312,0.029434000000009,0.216648770954312,-0.1985800000001063,0.2377440000000206,0.3097680195501983,-0.2018600000000106,-0.0771060000000005,0.2160851564453337,-0.1338200000000142,-0.0351459999999974,0.1383583525342927,-0.4222600000000511,0.0572999999999979,0.4261300242884124,0.0594800000000077,0.6094099999999969,0.6123058210567633,0.2063799999999673,-0.9040200000000028,0.9272782024829396,0.1972399999999652,-0.5709500000000105,0.6040592024793582,-0.2621700000000828,0.1364100000000121,0.2955347644525881,-0.163270000000125,0.2185800000000028,0.2728265186891518,-0.2831999999999652,0.188839999999999,0.3403862300387311,-0.1124999999999545,0.2517600000000186,0.2757523301805429,-0.2648400000000492,0.2295699999999954,0.3504891018277515,-0.2341400000001385,0.2704300000000046,0.3577064781354503,-0.450619999999958,0.2900700000000142,0.5359094973033884,-0.1555599999999231,0.3190300000000263,0.3549352821290001,-0.2339399999999614,0.3766200000000026,0.4433627724561275,-0.2211399999998775,0.3043499999999994,0.3762071531748772,-0.5174600000000282,0.444359999999989,0.6820708623009925,-0.2367000000000416,0.3688899999999648,0.4382998084644731,0.1626250000000197,0.2351700000000391,137.712016,0.085310047869856,105.2774388,0.0401131301908297,95.247852,0.1556477629777952,-0.0373381,-0.03989282,0.0584648000100184,0,0
16,533.3333333333334,520.19244,95.18504,0.9233423,522.36395,92.90433,0.9020902,518.4165,92.964645,0.8202025,526.3076,93.25525,0.7954159,515.737,93.42773,0.5131909,531.8994,105.12807,0.9929317,511.68805,105.41688,0.99047756,535.9044,121.37393,0.961831,508.09885,121.533325,0.90678614,529.32434,133.98137,0.92720425,508.7697,133.69977,0.85196036,526.9293,137.76581,0.99431556,513.98145,137.62051,0.9931873,525.7143,162.00522,0.9860724,511.68506,161.759,0.9803202,523.66254,186.37909,0.9694736,513.0547,185.94876,0.9605641,1.17916262,0.39352399,1.11007174,-0.05748103,138.5904323996544,164.28882144387936,178.05780683884922,171.3249162913971,2.3639130368757093,137.69315999999998,105.272475,95.18504,27.805549999999982,93.47476,0.2974658581903193,179.18132792037923,0.909962704117647,-0.2735000000000127,0.1614600000000052,0.317602867745253,0.5878599999999778,0.330520000000007,0.674405553061345,-0.3519900000000007,0.1399260000000026,0.3787825835172483,0.4901699999999209,0.3338620000000105,0.5930686840020551,-0.3013999999999441,0.1872710000000097,0.35484135531385,0.5730000000000928,0.3212130000000144,0.6568917653381838,-0.4293999999999869,0.0028300000000029,0.4294093255857268,0.2584700000001021,0.1295760000000001,0.2891309057780797,-0.3365499999999883,0.1331299999999942,0.3619247150996884,0.4086000000000922,0.0859499999999968,0.4175420487808082,-0.2986999999999398,-0.181750000000008,0.3496494708990234,0.1564600000001519,-0.1977200000000039,0.2521367287803367,-0.1864000000000487,0.0336100000000101,0.1894058924638271,0.2203499999999394,-0.1338239999999899,0.2578041610912644,-0.0896999999999934,-0.2212540000000018,0.2387455183160505,0.1249400000000378,-0.2506880000000109,0.2800972633640231,0.0303500000000553,0.2656710000000117,0.2673989580028494,0.2322100000000659,0.3427770000000123,0.4140260327914648,-0.2112999999999374,-0.0065299999999979,0.2114008772450425,0.2109600000001137,-0.0638299999999958,0.2204050600599892,-0.2182799999999929,0.7410600000000045,0.7725387252429509,-0.4246599999999603,1.6450800000000072,1.6990068634352216,-0.0855299999999488,-0.1351100000000258,0.1599065133132425,0.176640000000134,-0.2715200000000379,0.3239209780178924,-0.0446500000000469,-0.043309999999991,0.062204329431346,0.2385499999999183,-0.2321499999999901,0.3328659264628274,0.0812399999999797,-0.0688899999999819,0.1065165231313631,0.346080000000029,-0.2984599999999773,0.4570008074391188,-0.1861599999999725,0.0175899999999842,0.1869891807030268,0.2644599999999855,-0.27248000000003,0.3797162651243803,0.4221800000000257,0.0473299999999881,0.4248247654033609,0.6561199999999872,-0.3292900000000145,0.7341153577606129,-0.1070399999999835,0.1713599999999928,0.2020440823186713,0.4104200000000446,-0.2729999999999961,0.4929234995412924,-0.0892100000000368,-0.2518350000000566,137.687115,0.0616537825283974,105.2779722,0.0400038763085094,95.20276,0.1267176364993903,0.06190265,-0.053108544,0.0518586536309537,0,0
17,566.6666666666666,518.8639,95.76993,0.9258205,521.11707,93.57379,0.9111417,517.3411,93.514534,0.80813205,525.19025,93.913635,0.8165562,515.23486,94.0138,0.44599807,531.5758,105.90558,0.9921703,511.53778,106.12332,0.9876846,536.1752,122.03801,0.9717561,507.89276,121.58368,0.9129643,528.31366,134.4245,0.9517599,508.2412,134.14943,0.88163406,526.33075,138.10333,0.9945051,513.642,137.87552,0.99274147,525.1706,161.682,0.9895349,512.4683,161.24577,0.9835632,524.533,185.16745,0.97581327,514.8737,184.3317,0.9660515,1.29674599,0.33800812,1.23166623,0.22427429,131.68425216303743,165.14552122720886,178.73824696334756,171.17653345554086,2.8117949637271584,137.98942499999998,106.01445,95.76993,28.28244000000001,91.652916,0.308581995268083,179.37742890576126,0.9122251305882352,-1.328540000000089,0.5848900000000015,1.4515904531582722,-1.0550400000000764,0.4234299999999962,1.1368387601151528,-1.2468800000000329,0.6694600000000008,1.4152337001358055,-0.8948900000000322,0.5295339999999982,1.0398242011301986,-1.0754000000000588,0.5498889999999932,1.207834041713148,-0.7740000000001146,0.3626179999999834,0.8547325979066,-1.1173499999999876,0.6583849999999956,1.2968970008157803,-0.6879500000000007,0.6555549999999926,0.950277622868702,-0.5021399999999403,0.5860700000000065,0.771765913020229,-0.1655899999999519,0.4529400000000123,0.4822599835151111,-0.3236000000000558,0.7775100000000066,0.8421631433992147,-0.024900000000116,0.9592600000000148,0.95958311656679,-0.1502699999999777,0.7064400000000006,0.7222454890824824,0.036130000000071,0.6728299999999905,0.6737993661320797,0.2708000000000083,0.6640799999999984,0.7171714483998944,0.3605000000000018,0.8853340000000003,0.9559165975941636,-0.2060900000000174,0.0503549999999961,0.2121525727513263,-0.2364400000000728,-0.2153160000000156,0.3197887638051737,-1.0106799999999794,0.4431299999999964,1.1035570938107169,-0.799380000000042,0.4496599999999944,0.9171709219115388,-0.5285000000000082,0.4496599999999944,0.6939065971728497,-0.3102200000000152,-0.2914000000000101,0.4256176786742009,-0.5985500000000457,0.337520000000012,0.6871548973121437,-0.5130200000000968,0.4726300000000378,0.6975447206453039,-0.3394499999999425,0.2550099999999986,0.424566134542029,-0.2947999999998956,0.2983199999999897,0.4194065597960197,-0.5436999999999443,-0.3232200000000205,0.63251945298145,-0.6249399999999241,-0.2543300000000386,0.6747101247942888,0.783239999999978,-0.513229999999993,0.9364133331493942,0.9693999999999504,-0.5308199999999772,1.1052177307661508,0.87045999999998,-1.2116399999999885,1.4919021754793231,0.4482799999999542,-1.2589699999999766,1.3363983011437497,1.81899999999996,-1.6170599999999808,2.43385374326392,1.926039999999944,-1.7884199999999737,2.6283219319557656,0.2962650000000053,0.3854750000000422,137.755398,0.1429633259180623,105.4318546,0.3276114938815596,95.281154,0.2848192893397361,0.28175532,-0.00427423,0.1366305028606367,0,0
18,600.0,517.94525,95.69318,0.90763533,520.1454,93.45859,0.89945394,516.5795,93.48615,0.7500828,524.60767,93.53576,0.8297857,514.78296,93.74216,0.3819711,531.19507,105.215485,0.99262744,510.97098,105.6523,0.98542273,535.28656,121.34761,0.9705354,507.3932,121.80983,0.87060297,528.6703,134.6352,0.94406885,507.27448,135.22784,0.82391095,525.9904,138.05815,0.9941281,513.19464,137.90588,0.9912805,524.94293,161.45264,0.98811394,511.75806,161.17267,0.9790004,524.63617,185.59135,0.9722483,514.521,184.87189,0.9575753,1.31280581,0.14050919,1.24296592,0.3984369,139.29852306643852,168.02132090515806,178.1644234282677,169.81709700128468,2.622002976141401,137.982015,105.4338925,95.69318,28.012080000000022,92.13276,0.3040403836372604,178.76267534571102,0.896379044117647,-0.9186499999999568,-0.076750000000004,0.9218505220478652,0.4098900000001322,-0.6616400000000056,0.7783169673726223,-0.9716700000000174,-0.1152000000000015,0.9784751549733056,0.2752100000000155,-0.7846600000000024,0.8315238178789662,-0.7615999999999303,-0.0283840000000026,0.7621287367996918,0.3138000000001284,-0.5782729999999958,0.657928645469306,-0.5825800000000072,-0.377875000000003,0.694398280545834,0.5347699999999804,-1.0362599999999986,1.1661105181328124,-0.4519000000000233,-0.271640000000005,0.5272588544538857,0.050239999999917,-0.8577100000000115,0.8591801334411844,-0.3807299999999713,-0.6900949999999995,0.7881538186959304,-0.0571299999999155,-1.467605000000006,1.468716539338006,-0.5668000000000006,-0.47102000000001,0.7369681678335979,-0.4165300000000229,-1.1774600000000106,1.248963287090555,-0.8886400000000094,-0.6903999999999968,1.1253147158017671,-1.1594400000000178,-1.3544799999999952,1.7829518176327783,-0.4995600000000308,0.226150000000004,0.5483648567332089,-0.2934700000000134,0.1757950000000079,0.3420943187558231,0.3566399999999703,0.2107000000000027,0.4142301046519676,1.3673199999999497,-0.2324299999999937,1.3869346369962283,-0.9667200000000092,1.078409999999991,1.448280251367117,-0.4382200000000011,0.6287499999999966,0.7663963275616583,-0.340349999999944,-0.0451799999999877,0.3433356301055292,0.2582000000001017,-0.3826999999999998,0.4616562898954723,-0.4473600000000033,0.0303600000000017,0.4483890043254886,-0.1079100000000607,-0.2246499999999969,0.2492231742836362,-0.2276699999999891,-0.2293599999999855,0.3231712216457221,0.3160299999999552,0.0938600000000349,0.3296735665775741,-0.7102399999999989,-0.0730999999999824,0.7139919240439598,-1.4934799999999768,0.4401300000000105,1.5569832777842991,0.1031699999999773,0.4239000000000033,0.4362742931917924,-0.7672900000000027,1.6355399999999918,1.8065782672499904,-0.3527000000000271,0.5401899999999955,0.6451376024539371,-2.171699999999987,2.1572499999999764,3.0610469536581504,-0.007409999999993,-0.3036749999999983,137.81334299999995,0.1675847398558415,105.4644411,0.3154856749954055,95.372874,0.3354182484302103,0.17416261,0.07276018,0.2274141104495232,0,0
19,633.3333333333333,517.14044,95.05653,0.89902914,519.27765,92.79234,0.8890525,515.80664,92.86955,0.74078166,523.78937,93.003174,0.81183803,514.1334,93.244606,0.38621148,530.1934,104.93315,0.9919807,510.54456,105.19714,0.9848973,534.16113,121.82039,0.9636839,507.1199,121.554535,0.85703135,528.4045,136.30887,0.92722815,507.68524,134.34488,0.79499894,525.42896,138.18176,0.9940122,512.8262,137.98462,0.9914262,524.51654,162.28577,0.98691934,510.21146,162.04108,0.9778282,523.4254,186.86307,0.97252953,511.52686,186.25479,0.95932937,0.95168972,-0.00393033,0.90716861,0.28765081,145.10878526243215,165.64423414675926,179.62574469827592,170.6872559415468,2.153217046126061,138.08319,105.065145,95.05653,27.041229999999985,94.07073,0.28745636089508,179.23025466997464,0.8899281170588236,-0.8048099999999749,-0.636650000000003,1.026178521798212,0.1138399999999819,-0.559899999999999,0.5713558922423,-0.8677500000000009,-0.6662500000000051,1.0940197096030804,0.1039200000000164,-0.5510500000000036,0.5607632913271048,-0.772860000000037,-0.6165999999999912,0.9886901130283676,-0.0112600000001066,-0.5882159999999885,0.5883237631236639,-0.818300000000022,-0.5325859999999949,0.976351748805742,-0.2357200000000148,-0.1547109999999918,0.2819564007448748,-0.6495599999999513,-0.4975539999999938,0.8182225715023576,-0.197659999999928,-0.2259139999999888,0.3001776324044923,-1.00166999999999,-0.2823350000000033,1.0406996882506414,-0.6209400000000187,0.4077599999999961,0.7428557741580932,-0.4264200000000073,-0.4551599999999922,0.6237023665178762,0.1403799999999933,0.0158600000000177,0.1412730830696303,-1.1254300000000512,0.4727800000000002,1.2207020985072956,-0.2367900000000418,1.163179999999997,1.187037158853931,-0.2733000000000061,-0.2552950000000038,0.373989875564841,0.2262600000000247,-0.4814450000000079,0.5319613478675107,-0.2658000000000129,1.6736700000000155,1.6946447736620376,-0.6224399999999832,1.4629700000000128,1.5898782263116935,0.4107600000000388,-0.8829599999999971,0.9738285984710178,1.3774800000000482,-1.961369999999988,2.396752683799496,-0.5614400000000614,0.1236099999999851,0.5748863415494104,-0.2210900000001174,0.1687899999999729,0.2781561651303864,-0.3684400000000778,0.0787400000000104,0.3767598986092588,0.0789199999999255,0.0483800000000087,0.0925688435705507,-0.4263900000000831,0.8331300000000113,0.9359027882211324,-0.1987200000000939,1.0624899999999968,1.0809137979043617,-1.5466000000000122,0.868409999999983,1.773727004953132,-0.8363600000000133,0.9415099999999654,1.2593407520206583,-1.210770000000025,1.2717199999999875,1.7559145056921277,-1.3139400000000023,0.8478199999999845,1.5637253838190324,-2.994139999999959,1.3829000000000065,3.298073187423192,-2.641439999999932,0.842710000000011,2.7726098567414166,0.101175000000012,0.108585000000005,137.906032,0.1618019965344716,105.4265015,0.3558208082097022,95.345652,0.3584360649683434,-0.11078609,0.146699458,0.2245811578822924,0,0
20,666.6666666666666,517.0739,94.789665,0.9099678,519.1832,92.50523,0.89661473,515.5371,92.64173,0.7740279,523.4392,92.79454,0.80957454,513.49536,93.15799,0.42863536,529.654,104.83372,0.9923248,509.94266,105.194435,0.98675275,533.9026,121.728714,0.96261674,506.6453,121.254654,0.87153673,528.67694,136.6315,0.9253493,507.47467,133.37881,0.80941546,525.31934,138.00742,0.99388486,512.5637,137.91016,0.99167913,524.6255,162.18588,0.98588485,509.4698,162.03757,0.9773622,523.9722,186.65363,0.9699495,510.57043,186.22946,0.9573044,0.94253105,0.16802148,0.89218424,0.25326045,146.56125178953937,164.4844014544681,179.8856674314958,170.08781680140993,1.4898516786719076,137.95879,105.0140775,94.789665,27.257299999999987,94.1484,0.2895142106555797,178.95161158522689,0.8966400617647059,-0.0665400000000318,-0.2668649999999957,0.2750354519421122,0.7382699999999431,0.3697850000000073,0.8257018463858014,-0.0944499999999379,-0.2871099999999984,0.302246512965803,0.7733000000000629,0.3791400000000067,0.8612433045313632,-0.2695400000000063,-0.2278200000000083,0.3529217533675237,0.5033200000000306,0.3887799999999828,0.6359881373107658,-0.3501699999999346,-0.2086340000000035,0.407611548972739,0.4681300000000874,0.3239519999999913,0.5692895530431559,-0.6380400000000463,-0.0866160000000064,0.6438923613897437,0.0115199999999049,0.4109379999999873,0.4110994408217888,-0.5394000000000005,-0.0994299999999981,0.5484876342270628,0.4622699999999895,0.1829050000000052,0.4971396100945812,-0.6019000000000005,-0.0027050000000059,0.6019060782422792,-0.1754799999999932,0.4524549999999863,0.4852924452585113,-0.2585299999999506,-0.0916760000000067,0.2743032079214089,0.8669000000001006,-0.564456000000007,1.0344690357551465,-0.4745999999999526,-0.2998809999999992,0.561403396998054,-0.2012999999999465,-0.0445859999999953,0.2061785667715683,0.2724399999999605,0.3226299999999753,0.4222720337649209,0.5382399999999734,-1.3510400000000402,1.4543078694692126,-0.2105700000000183,-0.966070000000002,0.9887522287206292,-0.6213300000000572,-0.0831100000000049,0.626863813758676,-0.1096199999999498,-0.1743400000000008,0.2059392628907593,0.4518200000001116,-0.2979499999999859,0.5412166986522982,-0.2624999999999318,-0.0744600000000161,0.2728562654585131,0.105940000000146,-0.1532000000000266,0.1862619757224729,0.1089600000000245,-0.0998900000000162,0.1478184484427049,0.5353500000001077,-0.9330200000000276,1.075697886444036,-0.7416599999999676,-0.0035100000000056,0.7416683057135123,0.8049400000000446,-0.8719199999999887,1.1866646072079727,0.5468000000000757,-0.2094400000000007,0.5855385158980432,1.7575700000001009,-1.4811599999999885,2.298453230000628,-0.9564300000000115,-0.0253300000000251,0.9567653598453612,2.0377099999999477,-1.4082300000000316,2.4769686669394657,-0.1244000000000085,-0.2255750000000205,137.941316,0.1466167259985687,105.360008,0.4025007380094221,95.298869,0.4208187187554625,-0.0343903599999999,0.221228284,0.169210715578543,0,0
21,700.0,515.2979,95.61106,0.8852902,517.3299,93.30516,0.8805276,514.0505,93.47034,0.7015444,521.97345,93.23848,0.8132309,512.6623,93.70126,0.3394133,528.9344,104.924255,0.9915269,509.35257,105.38275,0.9819375,533.29364,121.96857,0.96485096,506.01956,121.60536,0.8366225,528.241,137.45218,0.9280124,506.611,134.02827,0.77373964,524.622,138.51994,0.99408394,511.9881,138.41747,0.9909768,524.18195,162.73148,0.98746616,508.9238,162.61505,0.9773627,523.6258,187.36787,0.9738541,509.84628,186.87616,0.9594023,1.09300915,0.07271105,1.0395715,0.32965618,147.58097819621997,165.66415229003633,179.74803256423084,170.60516434612848,1.4417119210425162,138.468705,105.1535025,95.61106,27.27407999999997,94.12939,0.2897509450581696,178.65870404492892,0.8811671941176471,-1.7759999999999536,0.8213949999999954,1.9567487692662104,-1.7094599999999218,1.0882599999999911,2.0264657212002657,-1.853300000000104,0.7999300000000034,2.0185660491795634,-1.758850000000166,1.0870400000000018,2.0676579224089724,-1.486599999999953,0.8286099999999976,1.7019324581486353,-1.2170599999999467,1.056430000000006,1.6116077030406262,-1.465750000000071,0.4439399999999978,1.5315044192232048,-1.1155800000001364,0.6525740000000013,1.2924285519425458,-0.8330600000000459,0.5432700000000068,0.9945507812575906,-0.1950199999999995,0.6298860000000133,0.659385451307516,-0.719600000000014,0.0905350000000027,0.7252728770780145,-0.1802000000000134,0.1899650000000008,0.2618372418602922,-0.5900899999999751,0.1883150000000029,0.6194099993743819,0.0118100000000254,0.1910200000000088,0.1913847342397088,-0.6089600000000246,0.2398560000000031,0.6544946006928029,-0.3504300000000739,0.3315320000000099,0.4824050703755698,-0.6257400000000075,0.3507060000000024,0.7173180926451048,-0.1511400000000549,0.6505870000000016,0.6679122278930208,-0.4359399999999596,0.8206800000000101,0.9292789387476622,-0.7083799999999201,0.4980500000000347,0.865942276886815,-0.8636700000000133,0.6494600000000048,1.0806128633789387,-0.6530999999999949,1.6155300000000068,1.742548935008717,-0.6973400000000538,0.512519999999995,0.8654246506773827,-0.5877200000001039,0.6868599999999958,0.9039864257831068,-0.5756000000000654,0.5073100000000181,0.7672540622897305,-0.3131000000001336,0.5817700000000343,0.6606723415582973,-0.4435499999999592,0.5456000000000074,0.7031471840944625,-0.5525099999999838,0.6454900000000237,0.8496614856517933,-0.5459999999999923,0.5774800000000084,0.7947321249326728,0.1956599999999753,0.5809900000000141,0.6130515603927672,-0.3464000000000169,0.714240000000018,0.7938083758691624,-0.8932000000000926,0.9236800000000188,1.2849089393416953,-0.7241500000000087,0.6467000000000098,0.970883161096136,0.2322800000000029,0.672030000000035,0.7110403077885588,0.5099150000000066,0.6343150000000151,138.096425,0.2134535107172537,105.3362135,0.4123648204813661,95.384073,0.4349026176570896,0.07639573,0.2986557259999999,0.0682490807881867,0,0
22,733.3333333333333,514.1892,95.64923,0.8880198,516.24536,93.294815,0.8860143,512.89514,93.52657,0.7020535,521.0106,93.2905,0.823207,511.61942,93.95795,0.33282375,528.21686,105.16344,0.9916031,508.75327,106.01659,0.9812139,532.71246,122.23509,0.9643235,505.89233,122.8065,0.82393515,528.0544,138.26291,0.92584354,505.6817,136.21234,0.75817066,524.14764,138.61143,0.9938446,511.6852,138.64806,0.9903852,523.3562,162.77435,0.9872486,508.6928,162.77841,0.97638977,522.8281,187.33813,0.973859,509.98276,186.96759,0.95863277,0.93263671,-0.04839215,0.87302389,0.32449763,149.0417284637888,171.2300274187213,179.355597771935,169.8782746483979,0.9861179396361676,138.629745,105.590015,95.64923,27.030759999999987,94.04763,0.2874156394221135,177.490153458966,0.8798569494117646,-1.108699999999999,0.038170000000008,1.1093568582291264,0.6672999999999547,-0.7832249999999874,1.0289463983244802,-1.0845399999999472,-0.0103450000000009,1.084589337318455,0.7687600000001567,-0.8102750000000043,1.1169321882841623,-1.155360000000087,0.0562300000000135,1.1567275143698288,0.3312399999998661,-0.7723799999999841,0.8404110910738188,-0.9628500000000032,0.0520199999999988,0.9642542210952492,0.5029000000000678,-0.3919199999999989,0.6375811292691052,-1.0428799999999685,0.2566899999999918,1.0740057963064862,-0.2098199999999224,-0.2865800000000149,0.3551795726107795,-0.7175399999999854,0.239184999999992,0.7563551519127606,0.0020600000000285,0.1486499999999893,0.148664273112261,-0.5993000000000279,0.6338399999999922,0.8723036372731823,-0.0092100000000527,0.4455249999999893,0.4456201854999293,-0.5811800000000176,0.2665199999999998,0.6393771209544649,0.027780000000007,0.0266639999999966,0.038505808600784,-0.1272299999999973,1.2011399999999952,1.207859583105581,0.4985100000000102,0.8504339999999928,0.985773913458861,-0.1865999999999985,0.8107300000000066,0.8319270959044489,0.249339999999961,-0.0099500000000034,0.249538450143421,-0.929300000000012,2.18407000000002,2.3735543505258327,-0.0656299999999987,1.534610000000015,1.5360127437622533,-0.4743599999999333,0.0914900000000216,0.4831022973449212,0.2229800000001205,-0.4210299999999733,0.4764308357988925,-0.3028999999999655,0.2305899999999781,0.380683803306588,0.2727000000000998,-0.27672000000004,0.3885090068454998,-0.8257500000000846,0.0428699999999935,0.826862080035201,-0.3822000000001253,-0.5027300000000139,0.6315174525696893,-0.2310000000000514,0.1633600000000115,0.2829266505651729,0.3149999999999409,-0.4141199999999969,0.5203079611152996,-0.7977000000000771,-0.0297400000000038,0.7982541936000859,-0.4513000000000602,-0.7439800000000218,0.8701597154546324,0.1364800000000059,0.0914300000000025,0.1642748772636951,0.8606300000000147,-0.5552700000000073,1.02421129158003,0.161040000000014,-0.3488749999999925,138.224489,0.305462308178122,105.2513265,0.2492791699618609,95.359933,0.4108132360270163,-0.00515855,0.318700394,0.0542171802072502,0,0
23,766.6666666666667,511.76657,96.033165,0.8687201,513.90936,93.62604,0.876589,510.58286,93.88719,0.63598263,519.14795,93.48416,0.83171594,509.75568,94.36218,0.25919476,527.2614,105.24695,0.990446,507.17114,106.52851,0.9737071,532.1315,122.08211,0.9681675,504.72955,123.299515,0.7906283,528.2135,138.5361,0.9365846,504.008,137.11794,0.74157387,523.3553,138.77817,0.9932128,510.5446,138.9932,0.9880927,523.47064,162.82724,0.9878991,508.78247,162.92589,0.9750395,524.29584,187.60693,0.97355247,510.91263,187.14964,0.95466393,0.91435598,0.05379635,0.89316682,0.18816441,150.47206147582216,174.7059124050105,178.3674580686963,170.7635085181629,0.4626280010372485,138.885685,105.88773,96.033165,28.12349999999998,94.12277,0.2987959204898459,176.35004104160646,0.8673982529411765,-2.4226300000000265,0.3839349999999939,2.452864081257892,-1.3139300000000276,0.3457649999999859,1.3586631223835666,-2.3360000000000127,0.3312250000000034,2.359365592828941,-1.2514600000000655,0.3415700000000043,1.2972363687856454,-2.312279999999987,0.3606199999999973,2.3402319506407774,-1.1569199999999,0.3043899999999837,1.1962930905508729,-1.8626499999999169,0.1936600000000083,1.8726903689878085,-0.8997999999999138,0.1416400000000095,0.9108797558403894,-1.863740000000007,0.4042299999999983,1.9070733285587167,-0.8208600000000388,0.1475400000000064,0.8340139034812702,-0.9554600000000164,0.0835100000000039,0.9591025657874304,-0.237920000000031,-0.155674999999988,0.2843248705706397,-1.5821300000000065,0.5119200000000035,1.662888277455832,-0.9828299999999786,-0.1219199999999887,0.9903632138260968,-0.5809600000000046,-0.1529799999999994,0.6007640152339395,0.0002200000000129,-0.4194999999999993,0.4195000576877188,-1.162779999999998,0.4930149999999997,1.2629810444440546,-1.0355500000000006,-0.7081249999999955,1.2545137775748,0.1590999999999667,0.2731899999999996,0.3161417183795729,0.3456999999999652,-0.537540000000007,0.6391069876006548,-1.6736999999999966,0.9055999999999926,1.9029931818059609,-0.7443999999999846,-1.278470000000027,1.4793974790096291,-0.7923399999999674,0.1667399999999759,0.809694327014794,-0.3179800000000341,0.0752499999999543,0.3267626706036276,-1.1406000000000065,0.3451400000000149,1.1916752827847126,-0.8377000000000407,0.1145500000000367,0.845495708150004,0.1144400000000587,0.0528899999999907,0.126070875700982,0.9401900000001432,0.0100199999999972,0.9402433921598542,0.0896700000000123,0.1474800000000016,0.1726008670314338,0.3206700000000637,-0.0158800000000098,0.3210629584677142,1.467740000000049,0.2687999999999988,1.4921508461278783,2.265440000000126,0.2985400000000027,2.2850261541611667,0.929869999999994,0.1820500000000038,0.9475233081038114,0.793389999999988,0.0906200000000012,0.7985484809953503,0.2559399999999812,0.0948999999999671,138.405223,0.3835008157846238,105.342094,0.38047529272034,95.42793,0.4985328129496463,-0.1363332199999999,0.276645896,0.0583027427272979,0,0
24,800.0,510.1738,95.76204,0.87941456,512.31,93.34695,0.8905741,509.02466,93.67537,0.64675903,517.7223,93.302986,0.8504284,508.46152,94.38043,0.2544199,526.1791,105.21101,0.99151015,506.25217,106.75981,0.97500926,531.48846,121.8985,0.971901,503.77637,123.379974,0.7922424,528.4928,138.78036,0.9426385,503.09653,137.02457,0.7448936,522.8701,138.62573,0.9936139,510.17764,138.97021,0.98842317,523.42,162.85318,0.9882832,508.77332,163.0723,0.97496337,524.3577,187.84409,0.9738491,510.9142,187.49176,0.9540176,1.0500114,0.10980351,1.03072826,0.16753019,152.28849170414253,174.3797085388575,179.15141156782911,171.65503183140447,0.5383957587299139,138.79797000000002,105.98541,95.76204,28.39193000000006,94.541104,0.3003130754606693,175.5556798963609,0.8713494847058824,-1.5927699999999732,-0.2711249999999978,1.6156809829062522,0.8298600000000533,-0.6550599999999918,1.0572470019820712,-1.599360000000047,-0.2790899999999965,1.6235281450286436,0.7366399999999658,-0.6103149999999999,0.956620556346637,-1.5581999999999994,-0.211820000000003,1.572531383597796,0.7540799999999876,-0.5724400000000003,0.946743999188789,-1.4256500000000187,-0.1811739999999986,1.4371158411123486,0.4369999999998981,-0.374834000000007,0.5757339034275437,-1.2941599999999769,0.0182500000000089,1.294288672630623,0.5695800000000304,-0.3859799999999893,0.6880421039442473,-1.082300000000032,-0.0359399999999965,1.0828965664365495,-0.1268400000000156,-0.1194500000000005,0.1742317080786505,-0.9189700000000016,0.2313000000000045,0.947631548071298,0.6631600000000049,-0.280619999999999,0.7200894180586227,-0.6430399999999281,-0.1836100000000016,0.668739914839774,-0.0620799999999235,-0.0306300000000021,0.0692251637772756,-0.9531800000000316,0.0804590000000047,0.956569789968856,0.2095999999999662,-0.412555999999995,0.4627468132099688,0.2793000000000347,0.244259999999997,0.3710410187567109,0.120200000000068,-0.0289300000000025,0.1236324589257064,-0.9114700000000084,-0.093369999999993,0.916239880053261,0.7622299999999882,-0.9989699999999856,1.2565570555290968,-0.4852000000000771,-0.1524399999999843,0.5085833202141711,0.3071399999998903,-0.3191799999999603,0.4429569414738945,-0.3669600000000059,-0.0229899999999929,0.3676794550964251,0.7736400000000003,-0.3681300000000078,0.8567604954128115,-0.0506400000000439,0.0259400000000198,0.0568972161006624,-0.1650800000001027,-0.0269499999999709,0.167265384643782,-0.0091499999999768,0.146410000000003,0.1466956393353274,-0.0988199999999892,-0.0010699999999985,0.098825792685907,0.0618600000000242,0.2371599999999887,0.2450949309961298,-1.4058800000000249,-0.0316400000000101,1.4062359915746965,0.0015700000000151,0.3421199999999942,0.3421236023720025,-0.9282999999999788,0.1600699999999904,0.9419996257430028,-0.0877149999999744,-0.3436549999999556,138.548179,0.3662834851825206,105.526147,0.4320946038463483,95.569032,0.4659083929352258,-0.02063422,0.252621772,0.0749936259491367,0,0
25,833.3333333333334,509.2591,96.13946,0.88253844,511.39792,93.63864,0.8897976,507.94293,94.004135,0.6596886,516.7708,93.26468,0.84251404,507.1512,94.401405,0.26715928,525.5053,104.94404,0.991384,504.85303,106.40175,0.97605556,531.2133,122.08458,0.9706067,502.74927,122.84801,0.8026136,528.2676,139.68478,0.94062376,503.2571,135.76765,0.7547281,522.47107,138.65895,0.9935923,509.33212,139.02757,0.98880273,523.4557,163.0209,0.98807716,508.37585,163.23605,0.9756368,524.33356,188.07602,0.97313505,511.00015,187.71347,0.95430714,1.05114439,0.0243189,1.02139374,0.24711931,152.08025632361273,170.4595118870694,179.6921949821922,171.6184268999094,1.247748621599403,138.84326,105.672895,96.13946,28.46402999999998,94.81134,0.3002175657445872,175.96255796478107,0.87360358,-0.9147000000000388,0.3774200000000007,0.9895059102400914,0.6780699999999342,0.6485449999999986,0.9382907555363152,-0.9120799999999464,0.2916899999999884,0.9575870626214074,0.6872800000001007,0.570779999999985,0.8933888329278139,-1.0817299999999932,0.3287650000000042,1.1305866698864744,0.4764700000000061,0.5405850000000072,0.7205940626490157,-0.95150000000001,-0.0383060000000057,0.9522707596246036,0.4741500000000087,0.1428679999999929,0.4952065103812814,-1.3103199999999902,0.0209749999999928,1.310487868324226,-0.0161600000000134,0.0027249999999838,0.0163881428173038,-0.6737999999999147,-0.2669700000000006,0.7247616303998752,0.4085000000001173,-0.231030000000004,0.4693049231577458,-1.3991399999999885,-0.3580599999999947,1.4442297958427406,-0.4801699999999869,-0.5893599999999992,0.7602028929831737,-0.275160000000028,0.186080000000004,0.3321728345304849,0.3678799999999,0.3696900000000056,0.5215423189923619,-1.0270999999999617,-0.5319640000000021,1.1566849645845336,-0.07391999999993,-0.6124230000000068,0.6168679739855182,-0.2251999999999725,0.9044199999999876,0.9320357162684084,-0.5045000000000073,0.6601599999999905,0.8308618871990667,0.1605700000000069,-1.256920000000008,1.2671348039178871,1.0720400000000154,-1.163550000000015,1.5821246360827796,-0.3990299999999251,0.03322,0.4004104260629839,0.0861700000001519,0.1856599999999844,0.2046824479529703,-0.8455200000000218,0.0573599999999885,0.8474634151395773,-0.4785600000000158,0.0803499999999814,0.4852584838001415,0.0357000000000198,0.1677200000000027,0.1714773699355175,0.0863400000000638,0.1417799999999829,0.1660004939751872,-0.3974699999999984,0.1637499999999931,0.429879591746336,-0.3883200000000215,0.0173399999999901,0.3887069564595112,-0.0241399999999885,0.2319300000000055,0.2331828992443528,-0.0860000000000127,-0.0052299999999831,0.0861588817244166,0.0859500000000252,0.2217100000000016,0.2377871455735256,0.0843800000000101,-0.1204099999999925,0.1470324879065845,0.0452899999999658,0.1330049999999403,138.725073,0.173125917419726,105.6579105,0.3237802841839807,95.838991,0.2355145412283024,0.07958912,0.251393544,0.0750308306470913,0,0
26,866.6666666666667,508.37906,95.62966,0.8765345,510.38718,93.11821,0.869235,506.96634,93.55798,0.6748715,515.4946,92.71742,0.80142003,506.09958,94.0108,0.3107264,524.40173,104.44328,0.99024874,503.73993,106.06553,0.9798157,530.42926,121.72279,0.9647039,501.81433,122.612305,0.8501768,528.3545,139.85161,0.93209004,502.51868,135.80333,0.7994482,522.14154,138.47743,0.9934856,509.0729,138.98547,0.99040574,523.0701,162.97476,0.98712397,508.34125,163.28476,0.9781237,523.8964,187.74176,0.9704094,511.06003,187.54062,0.95610607,0.99009515,0.07074589,0.96071931,0.2286959,154.2411035957074,170.30569490985218,179.74009533966247,171.8798987413683,2.627716529563905,138.73145,105.254405,95.62966,28.61493000000001,95.02434,0.3011326329534873,175.51066275818727,0.8779367817647059,-0.8800400000000081,-0.5097999999999985,1.017038072837007,0.0346600000000307,-0.8872199999999992,0.88789675300679,-1.0107399999999984,-0.5204299999999904,1.1368565135935085,-0.0986600000000521,-0.8121199999999789,0.8180908812595188,-0.9765899999999874,-0.4461550000000045,1.0736770054932625,0.1051400000000057,-0.7749200000000087,0.7820200930922521,-1.276200000000017,-0.5472599999999943,1.3885891932461658,-0.3247000000000071,-0.5089539999999886,0.6037087576936357,-1.051620000000014,-0.3906049999999936,1.1218185639509737,0.2586999999999761,-0.4115799999999865,0.486131449712911,-1.1035699999999906,-0.5007599999999996,1.211869350425193,-0.4297700000000759,-0.233789999999999,0.4892443326192597,-1.1130999999999744,-0.3362200000000115,1.1627706129757285,0.286040000000014,0.0218399999999832,0.2868725626476107,-0.7840400000000045,-0.3617899999999991,0.8634875365053085,-0.5088799999999765,-0.5478700000000032,0.7477435331047535,-0.93494000000004,-0.2357049999999958,0.9641937827143842,0.0921599999999216,0.2962590000000062,0.3102625673215982,0.0869000000000141,0.1668300000000044,0.1881059778422896,0.3120999999999867,-0.7375899999999831,0.8009028768208832,-0.7384199999999623,0.035679999999985,0.7392815152564977,-0.8989899999999693,1.292599999999993,1.5744833375110474,-0.3295300000000907,-0.1815200000000061,0.37621739898636,0.0694999999998344,-0.2147400000000061,0.2257067070336626,-0.2592199999999707,-0.0421000000000049,0.2626164853926448,0.5863000000000511,-0.0994599999999934,0.5946763671107661,-0.385599999999954,-0.0461400000000082,0.3883506915147252,-0.4212999999999738,-0.213860000000011,0.4724719987469973,-0.0346000000000117,0.0487099999999998,0.059748004987621,0.3628699999999867,-0.1150399999999933,0.3806689355594816,-0.4371600000000626,-0.3342600000000004,0.5503077440851211,-0.4130200000000741,-0.566190000000006,0.7008256819638304,0.0598799999999641,-0.172850000000011,0.1829282288221244,-0.0260700000000611,-0.3945600000000127,0.395420331419634,-0.1118099999999913,-0.1570999999999571,138.777622,0.1004980855907874,105.678091,0.2853452666814559,95.842711,0.2311201696736504,-0.01842341,0.231201488,0.0609714060283928,0,0
27,900.0,508.50397,95.50988,0.89688504,510.46786,92.98773,0.87912315,506.83075,93.50183,0.7376104,515.2386,92.52736,0.78981495,505.45914,93.939255,0.38478392,523.30304,104.09362,0.9906799,503.0846,105.63784,0.98411167,529.2506,121.139465,0.9607488,500.31982,121.1474,0.87724465,527.6797,138.8478,0.926773,503.0452,132.37914,0.826789,521.65186,138.11394,0.9934068,508.7791,138.736,0.9912949,522.9765,162.97334,0.9863029,508.4171,163.40869,0.9793032,523.7854,187.80031,0.968082,510.89374,187.8259,0.95653605,0.99029987,0.09309962,0.95801721,0.23287188,155.69590890138986,156.25325363235353,178.8159811336477,173.36770160343988,3.447447524362158,138.42497,104.86573,95.50988,28.93077999999997,95.29854,0.3035805133679851,175.63241048060985,0.8899700194117648,0.1249099999999998,-0.1197800000000057,0.1730599794868858,1.004950000000008,0.3900199999999927,1.0779796393717325,0.0806799999999725,-0.1304800000000057,0.1534089071729443,1.091419999999971,0.3899499999999847,1.1589903446103098,-0.1355899999999792,-0.0561500000000023,0.1467565010484872,0.8410000000000082,0.3900050000000021,0.9270301505479828,-0.2559999999999718,-0.1900600000000025,0.3188397773176781,1.0202000000000453,0.3571999999999917,1.0809254738417844,-0.6404400000000123,-0.0715450000000004,0.6444238361707424,0.4111800000000016,0.3190599999999932,0.5204500706119628,-1.0986900000000333,-0.3496600000000001,1.1529882183700202,0.0048799999999573,0.1510999999999995,0.151178782902891,-0.6553299999999922,-0.4276899999999983,0.7825446600673909,0.4577699999999822,-0.0914699999999868,0.4668191660589583,-1.1786600000000362,-0.5833250000000021,1.3151073915179277,-0.3946200000000317,-0.2215350000000029,0.4525513237468501,-1.4945099999999911,-1.4649050000000017,2.092727120081588,-0.559569999999951,-1.2292000000000058,1.350574405540087,-0.6748000000000047,-1.0038099999999872,1.209541051845691,-0.7617000000000189,-1.1706399999999917,1.396633416326564,0.526520000000005,-3.4241899999999816,3.4644336429638654,1.264939999999967,-3.4598699999999667,3.6838530943157446,-0.4896799999999075,-0.3634899999999845,0.6098454578824853,-0.1601499999998168,-0.1819699999999784,0.2424068963539063,-0.2937999999999761,-0.2494700000000023,0.3854266738304279,-0.0345800000000053,-0.2073699999999974,0.2102334257438604,-0.0936000000000376,-0.0014199999999959,0.0936107707478527,0.2919999999999163,0.0447200000000123,0.2954046011827714,0.0758500000000026,0.1239300000000014,0.145299233996607,0.1104500000000143,0.0752200000000016,0.133631025214968,-0.11099999999999,0.0585499999999967,0.12549542820357,0.3261600000000726,0.3928099999999972,0.5105683516435827,-0.1662900000000036,0.2852800000000002,0.3302075748676903,-0.2261699999999677,0.4581300000000112,0.5109167895068587,-0.3064799999999934,-0.1946700000000021,138.73666699999998,0.1833771568923498,105.533234,0.4671570788209349,95.814841,0.2660469996165703,0.0041759799999999,0.212876338,0.0335022905823375,0,0
28,933.3333333333334,507.20273,95.85098,0.8705125,509.09277,93.32526,0.85501397,505.6715,93.865295,0.67604554,513.9408,92.59417,0.7751309,504.60822,94.06772,0.32669067,522.3461,103.72188,0.98886406,502.42578,105.19281,0.9789044,528.6833,120.64838,0.9585369,499.91934,119.918945,0.8527861,527.5531,138.21292,0.9232365,503.11484,129.2812,0.80278975,520.9095,137.9232,0.99292564,508.19952,138.53072,0.9901467,522.3662,162.91214,0.9861221,507.66357,163.36646,0.9779821,523.66205,187.72697,0.9680696,510.03018,187.73012,0.954943,1.02050012,0.05551587,0.99044241,0.2395043,155.79268875338758,151.49495802287015,179.6530877611574,173.21563309691953,3.674321650948624,138.22696000000002,104.457345,95.85098,28.76396000000005,95.13595,0.3023458503084713,175.7769048781232,0.8752176723529412,-1.301240000000007,0.3411000000000115,1.345204351613548,-1.426150000000007,0.4608800000000173,1.4987708954006398,-1.37509,0.337530000000001,1.415909251682466,-1.4557699999999727,0.4680100000000067,1.5291499772749326,-1.1592500000000427,0.363465000000005,1.2148939742731062,-1.0236600000000635,0.4196150000000074,1.1063256951843503,-1.297800000000052,0.0668100000000038,1.299518532418886,-1.0418000000000802,0.2568700000000063,1.073000203588131,-0.8509199999999737,0.1284649999999914,0.8605626662974365,-0.2104799999999613,0.2000099999999918,0.2903546632998693,-0.9569400000000314,-0.3717400000000026,1.0266083923288676,0.1417500000000018,-0.0220800000000025,0.1434593632357282,-0.6588200000000484,-0.4450300000000027,0.7950443341726713,-0.0034900000000561,-0.0173400000000043,0.0176877273837127,-0.567299999999932,-0.4910849999999982,0.7503291059427997,0.6113600000001043,0.0922400000000038,0.6182792792906198,-0.4004800000000159,-1.228455000000011,1.292085878502292,1.0940299999999752,0.2364499999999907,1.1192900622269195,-0.1266000000000531,-0.6348800000000097,0.647379467082503,0.5481999999999516,0.3689299999999775,0.6607817982510795,0.0696399999999926,-3.097939999999994,3.098722635732337,-0.4568800000000124,0.3262499999999875,0.5614075141107422,-0.7423600000000761,-0.1907400000000052,0.7664725156195198,-0.2526800000001685,0.1727499999999793,0.3060878058663527,-0.5795800000000213,-0.2052799999999877,0.6148600286244176,-0.2857800000000452,0.0441900000000146,0.2891763553612693,-0.6102999999999383,-0.0612000000000136,0.613360848114653,-0.5166999999999007,-0.0597800000000177,0.5201466508590625,-0.753530000000012,-0.0422300000000177,0.7547124179447557,-0.8293800000000147,-0.1661600000000191,0.8458607036622702,-0.1233499999999594,-0.0733400000000017,0.1435060211280009,-0.0123499999999694,-0.1318899999999985,0.1324669566344711,-0.8635600000000068,-0.0957799999999906,0.8688553861259133,-0.6972700000000032,-0.3810599999999908,0.794601898122574,-0.1980099999999822,0.1084700000000111,138.60492200000002,0.2670767039072108,105.247157,0.6114761691656494,95.778404,0.2398574615891311,0.00663242,0.223144316,0.0318623053576141,0,0
29,966.6666666666666,506.5828,95.57213,0.86320865,508.30148,92.97426,0.8510804,504.9467,93.60709,0.6616283,513.08673,92.20538,0.7594873,503.7078,93.77441,0.3112805,521.539,103.46874,0.98650825,502.13892,104.78585,0.97188425,528.90594,120.20401,0.9517965,500.0359,119.19375,0.79874676,527.5967,137.01674,0.91446334,503.63617,125.915924,0.7506045,520.4344,137.60425,0.99131197,508.01367,138.09406,0.98683494,521.54706,162.90916,0.9845553,507.09723,163.28685,0.9733748,523.1997,187.61584,0.96745247,509.557,187.62662,0.9518842,1.07812395,0.04397053,1.01402437,0.36355525,151.78794492406774,143.52291623101934,178.69083918795658,172.1459627784008,4.045694760229963,137.849155,104.127295,95.57213,28.87003999999996,95.42124,0.3025536001989322,176.11603578393155,0.8633001429411765,-0.6199299999999539,-0.2788500000000056,0.6797576975657914,0.6813100000000532,-0.6199500000000171,0.9211521690796226,-0.7912899999999468,-0.3509999999999991,0.8656447678464388,0.5838000000000534,-0.6885300000000001,0.9027159026515832,-0.7247999999999593,-0.2582050000000038,0.7694185220183765,0.4344500000000835,-0.6216700000000088,0.7584328522684678,-0.8540699999999788,-0.3887900000000002,0.9383992908138644,0.4437300000000732,-0.455600000000004,0.6359777298774452,-0.9004199999999969,-0.2933099999999911,0.9469883486611592,-0.0495000000000231,-0.4217749999999824,0.4246697547800967,-0.8070999999999913,-0.2531400000000019,0.8458665790773311,0.1498400000000401,0.1186000000000007,0.1910967964148331,-0.2868599999999901,-0.406959999999998,0.497900694114793,0.3719600000000582,0.0380700000000047,0.3739031512304271,0.2226399999999557,-0.4443700000000063,0.4970244123782915,0.7899399999998877,0.0467149999999918,0.7913200963104765,0.1165600000000495,-0.7251949999999994,0.7345025674733959,0.5170400000000654,0.5032600000000116,0.721526845793058,0.0436000000000831,-1.1961799999999982,1.196974332389798,0.1702000000001362,-0.5612999999999886,0.5865370661774357,0.5213299999999776,-3.3652760000000086,3.4054173789824995,0.451689999999985,-0.2673360000000144,0.5248736924213236,-0.4750999999999976,-0.3189500000000009,0.5722316947705697,0.2672600000000784,-0.1282099999999957,0.2964215101844683,-0.1858500000000162,-0.4366599999999891,0.474565251677782,0.393730000000005,-0.2313800000000014,0.456683716920151,-0.8191400000000613,-0.0029799999999795,0.8191454205451558,-0.2088400000001229,0.0582200000000341,0.2168033994199706,-0.5663399999999683,-0.0796100000000024,0.5719079888408314,0.1871900000000437,-0.0373799999999846,0.1908857262867373,-0.4623500000000149,-0.1111300000000028,0.475518032675959,-0.3390000000000555,-0.0377900000000011,0.34109981545002,-0.4731799999999566,-0.1034999999999968,0.4843671772529165,0.3903800000000501,-0.0077200000000061,0.3904563263670333,-0.3778050000000235,-0.1797950000000412,138.415159,0.3997455785308593,104.875534,0.6152575798435858,95.740422,0.2574851590285977,0.12405095,0.262349328,0.0570042993054364,0,0
30,1000.0,504.36115,94.70832,0.86038935,506.4615,92.09442,0.8745158,502.9345,92.54982,0.6150655,511.81104,91.4624,0.8158153,502.0978,92.77289,0.22414778,520.1372,103.0596,0.9857597,501.0179,104.84097,0.9548706,528.00757,119.00873,0.96072775,500.03433,120.44977,0.6993983,527.5937,136.096,0.93110704,502.4616,130.63959,0.6793255,519.09265,137.25394,0.9911272,506.99628,137.93504,0.982856,520.29395,162.88039,0.9883888,507.07034,163.37898,0.97378844,524.07837,187.9119,0.97733134,511.1188,187.85197,0.9588138,0.8678716,0.00294775,0.81284076,0.30410905,152.3476918051432,162.9958706632001,174.08668327451275,170.77364610285517,4.193652560274127,137.59449,103.950285,94.70832,27.973239999999976,96.4495,0.2900299090194357,174.6770450155755,0.8513781294117646,-2.221650000000011,-0.8638100000000009,2.383672888338509,-1.601720000000057,-0.5849599999999953,1.7051935843182666,-1.8399800000000253,-0.8798400000000015,2.039520734388375,-1.0486900000000787,-0.5288400000000024,1.174488170098008,-2.012200000000007,-1.0572700000000026,2.2730527254993524,-1.2874000000000478,-0.7990649999999988,1.5152239551383555,-1.275689999999997,-0.7429800000000029,1.476280548032791,-0.4216200000000185,-0.3541900000000026,0.5506486906367957,-1.6100000000000136,-1.0015199999999993,1.896086050367979,-0.7095800000000168,-0.7082100000000082,1.0025293913397428,-1.4017999999999802,-0.4091399999999936,1.460287225034835,-0.5946999999999889,-0.1559999999999917,0.6148203721413142,-1.1210199999999872,0.0551200000000022,1.1223742935402483,-0.8341599999999971,0.4620800000000002,0.9535936409183922,-0.8983699999999999,-1.1952799999999968,1.4952467807355387,-1.1210099999999557,-0.7509099999999904,1.3492698944984602,-0.0015700000000151,1.2560200000000066,1.2560209812339986,-0.1181300000000646,1.981215000000006,1.9847336277508476,-0.0030000000000427,-0.920739999999995,0.9207448873602238,-0.0466000000001258,0.2754400000000032,0.2793541723332829,-1.174570000000017,4.723665999999994,4.867508106254779,-1.6958999999999946,8.088942000000003,8.264808496835485,-1.3417499999999336,-0.3503100000000074,1.3867264180795815,-0.866649999999936,-0.0313600000000064,0.8672172000715215,-1.0173899999999776,-0.1590200000000265,1.0297425758411485,-0.8315399999999613,0.2776399999999626,0.8766656952338873,-1.2531099999999924,-0.0287700000000086,1.253440219954658,-0.4339699999999311,-0.025790000000029,0.4347356495618247,-0.0268900000000371,0.0921300000000258,0.0959740016879923,0.5394499999999312,0.1717400000000282,0.566128015646581,0.8786699999999428,0.2960600000000113,0.9272068229364504,1.3410199999999577,0.4071900000000141,1.4014771979949934,1.5618000000000052,0.2253499999999917,1.577973973961552,2.034979999999962,0.3288499999999885,2.061379616397678,-0.2546649999999886,0.1231400000000348,138.16540500000002,0.4520862608507544,104.531012,0.5340860566144443,95.454194,0.4363385444583051,-0.0594462,0.273747276,0.0588649203630621,0,0
31,1033.3333333333337,504.84567,93.95821,0.8893899,506.97443,91.31717,0.88563156,503.0218,91.795265,0.7063601,511.61044,90.96276,0.7998844,501.1418,92.25685,0.31547543,518.8448,103.058624,0.9878857,499.61475,104.89055,0.97079146,526.96277,119.18684,0.95960647,498.6042,120.485306,0.78341115,526.9012,136.30293,0.9306155,501.16412,130.19026,0.74991256,518.37775,137.67696,0.9924465,506.3004,138.57448,0.9874836,518.5941,163.32603,0.9894252,506.80753,164.04431,0.9795098,523.3017,188.23288,0.97868115,512.56396,188.57445,0.9652543,0.92312033,0.0513399,0.90176441,0.19062086,153.07597295725293,161.51577819824152,169.78016457219476,167.9341621136278,5.202187152596267,138.12572,103.974587,93.95821,28.358569999999983,97.61169,0.2905243184446009,174.55821327071035,0.8748096929411765,0.4845199999999749,-0.7501100000000065,0.8929863618779323,2.706169999999986,0.1136999999999943,2.708557505186095,0.512929999999983,-0.7772499999999951,0.9312436563005276,2.3529100000000085,0.1025900000000064,2.355145468161158,0.0872999999999706,-0.7545549999999963,0.7595884004018159,2.0994999999999777,0.3027150000000063,2.121211121323125,-0.2006000000000085,-0.4996399999999994,0.5384055066583205,1.0750899999999888,0.2433400000000034,1.1022852914286654,-0.9560000000000172,-0.5160400000000038,1.086385420373468,0.6539999999999964,0.4854799999999954,0.8144979007953249,-1.2924000000000433,-0.0009760000000085,1.2924003685298575,0.1093999999999368,0.4081639999999851,0.4225709536823065,-1.4031499999999824,0.0495800000000059,1.404025676011643,-0.2821299999999951,-0.0055399999999963,0.282184387413615,-1.0448000000000093,0.1781100000000037,1.0598727339166814,-0.1464300000000093,1.3733900000000006,1.3811740791804643,-1.4301300000000197,0.0355359999999933,1.4305714327484855,-1.4285600000000045,-1.2204840000000132,1.878926520078964,-0.6924999999999955,0.2069299999999998,0.7227560272318686,-0.6894999999999527,1.1276699999999948,1.321760144239462,-1.2974799999999505,-0.4493300000000033,1.3730811335459658,-0.1229099999999334,-5.172995999999998,5.174455960206441,-0.7149000000000569,0.4230200000000081,0.8306791982468853,0.6268499999998767,0.7733300000000156,0.9954798900027412,-0.6958799999999883,0.6394400000000076,0.9450568702464384,0.3215099999999893,0.7984600000000341,0.8607595783376725,-1.6998499999999694,0.4456399999999973,1.757294805119475,-0.446739999999977,0.474410000000006,0.6516452069186002,-0.2628100000000017,0.6653299999999831,0.7153552299382304,-0.2359199999999646,0.5731999999999573,0.6198519874937357,-0.7766699999999673,0.3209799999999916,0.8403835132247324,-1.65533999999991,0.0249199999999802,1.6555275660645767,1.4451599999999305,0.7224800000000187,1.6156932802979114,-0.1166400000000749,0.4971300000000269,0.5106301269020898,0.5312299999999937,0.7858949999999822,138.044259,0.3260805650526291,104.2750484,0.3872067241897612,95.119904,0.7762081054910542,-0.1134881899999999,0.266132268,0.0679167656413163,0,0
32,1066.6666666666667,503.45352,93.7231,0.8996756,505.6386,91.09346,0.90416306,501.77902,91.521515,0.7053631,510.64847,90.68592,0.83792716,500.3091,91.94932,0.28881183,518.20856,102.885254,0.99018574,499.15134,104.80946,0.9724734,526.00903,119.12194,0.96946746,498.32645,121.216644,0.7835842,525.5362,136.36087,0.9453838,500.01392,132.93488,0.7550164,517.3232,137.98161,0.99331576,505.4092,138.8004,0.98794335,517.8675,163.6889,0.9900399,506.32098,164.29921,0.9787637,521.9963,188.56409,0.97872055,511.58047,188.69221,0.9628385,0.99785356,0.09924076,0.98430128,0.13043773,152.76820370212687,168.9273366897984,171.7888667314599,169.88035403610127,4.446617754379746,138.391005,103.847357,93.7231,27.68258000000003,98.00629,0.2824571741012016,174.2343899982881,0.8790396182352941,-1.3921499999999585,-0.2351099999999917,1.4118634263270229,-1.8766699999999328,0.5150000000000148,1.9460512040796265,-1.3358299999999872,-0.2237100000000111,1.3544327052312235,-1.8487599999999704,0.5535399999999839,1.9298497530118432,-1.242779999999982,-0.2737500000000068,1.2725726662552357,-1.3300799999999526,0.4808049999999895,1.414314764974496,-0.961970000000008,-0.2768400000000071,1.0010128203474815,-0.7613699999999994,0.2227999999999923,0.793299512731475,-0.8326999999999884,-0.3075299999999998,0.8876733582236096,0.1233000000000288,0.2085100000000039,0.2422381268504377,-0.6362399999999298,-0.1733699999999913,0.6594380141453081,0.6561600000001135,-0.1723939999999828,0.6784288001228597,-0.4634100000000103,-0.0810900000000032,0.4704512899334107,0.939739999999972,-0.1306700000000091,0.9487812795897428,-0.9537399999999252,-0.0649000000000086,0.9559456038916956,0.091060000000084,-0.2430100000000123,0.2595106620160746,-0.2777499999999691,0.731338000000008,0.7823045012934507,1.1523800000000506,0.6958020000000147,1.3461500984675283,-1.365000000000009,0.0579400000000021,1.3662291329056138,-0.6725000000000136,-0.1489899999999977,0.688806409740805,-1.1502000000000407,2.7446199999999976,2.975886251925648,0.1472799999999097,3.193950000000001,3.197343897815807,-1.0545499999999493,0.304649999999981,1.097673596748998,-0.3396499999998923,-0.1183700000000271,0.3596853894724294,-0.8912000000000262,0.2259200000000021,0.9193896270896512,-0.1953200000000379,-0.4135200000000054,0.4573277739215269,-0.7266000000000759,0.3628699999999867,0.8121712854442101,0.9732499999998936,-0.0827700000000106,0.9767632442919802,-0.4865499999999656,0.2548999999999921,0.5492767176023051,-0.2237399999999638,-0.4104299999999909,0.4674530698369371,-1.3053999999999633,0.3312099999999986,1.3467624972874406,-0.5287299999999959,0.010230000000007,0.5288289570362007,-0.9834899999999608,0.1177599999999756,0.9905150163929454,-2.428649999999891,-0.604720000000043,2.502803847867332,0.2652850000000057,-0.2659449999999879,138.037466,0.3163760967464873,104.0713738,0.237862700239364,94.762548,0.9447830005191824,-0.06018313,0.245645438,0.091731880276963,0,0
33,1100.0,502.16525,93.41925,0.90031564,504.3949,90.889496,0.8885358,500.49988,91.2933,0.7303811,509.62988,90.83949,0.81302214,499.51038,92.04372,0.35770044,517.5197,103.4183,0.98904,498.39307,104.86208,0.9785301,524.21075,120.520096,0.95006377,496.52292,120.9389,0.822498,521.93774,136.98921,0.90748733,499.5224,132.86176,0.7648526,516.49097,138.34326,0.9898599,504.5755,138.91582,0.985706,516.7628,163.75908,0.97939336,505.68762,164.09366,0.9670318,518.31494,187.98242,0.954069,510.0714,187.6702,0.93472373,1.01780015,0.06460475,0.98454692,0.24982141,150.7740378613717,159.24375573710057,176.9464861763096,171.9959568204964,4.272901208352931,138.62954,104.14019,93.41925,27.687829999999963,97.14293,0.2850215627115468,175.68319578749052,0.8772476888235294,-1.2882700000000114,-0.303849999999997,1.3236179265180823,0.1038799999999469,-0.0687400000000053,0.1245642083424837,-1.2436999999999898,-0.2039639999999991,1.2603138511085143,0.0921299999999973,0.019746000000012,0.0942222978705146,-1.279139999999984,-0.2282149999999916,1.2993387648434704,-0.0363600000000019,0.0455350000000152,0.0582707973602689,-1.0185899999999606,0.1535700000000019,1.0301016129488976,-0.0566199999999526,0.430410000000009,0.4341181780345099,-0.798720000000003,0.0943999999999931,0.8042791793898456,0.0339799999999854,0.401929999999993,0.4033638125811404,-0.6888600000000906,0.5330459999999988,0.8710144302571132,-0.0526200000001608,0.7064159999999902,0.7083730863436322,-0.7582699999999818,0.0526200000000045,0.7600935845670406,-0.2948599999999715,0.1337100000000077,0.3237603800652348,-1.7982800000000907,1.3981560000000002,2.2778610929414302,-0.8445400000001655,1.4630560000000088,1.6893136685459882,-1.8035300000000236,-0.2777439999999984,1.82479099911088,-1.5257800000000543,-1.0090820000000065,1.8292761112320304,-3.598460000000045,0.6283400000000086,3.652906449281221,-2.2334600000000364,0.5704000000000065,2.305146357956512,-0.49151999999998,-0.0731199999999887,0.4969290138440084,0.6586800000000608,-2.8177399999999864,2.893703172407288,-0.8322300000000951,0.3616499999999973,0.907412527685262,0.2223199999998542,0.0570000000000163,0.2295107457177921,-0.8337000000000216,0.1154200000000003,0.8416516300703256,0.0575000000000045,-0.1105000000000018,0.1245652439487071,-1.1046999999999798,0.0701800000000218,1.1069269724782924,-0.3780999999999039,-0.2926899999999648,0.4781496063994059,-0.6333600000000388,-0.2055499999999881,0.665879637847595,-0.1468100000000731,-0.4604499999999802,0.4832880906871214,-3.6813600000000406,-0.5816700000000026,3.727029841375073,-2.3759600000000773,-0.9128800000000012,2.5452968031253977,-1.5090700000000083,-1.0220099999999943,1.822579684129068,-0.5255800000000477,-1.1397699999999702,1.2551135364181132,0.2385349999999846,-0.0267500000000211,138.117982,0.4130995196469306,104.0079428,0.1244579246257923,94.276202,0.8671163145565043,0.1193836799999999,0.24770886,0.0916752257306297,0,0
34,1133.3333333333333,501.55185,92.854004,0.90641934,503.77264,90.369316,0.8957116,499.87634,90.73839,0.7514902,508.97372,90.57734,0.81770563,498.86374,91.67648,0.38092843,516.94836,103.090614,0.98860234,497.6656,104.93246,0.9783562,523.22906,119.86692,0.9374854,495.9139,122.88782,0.7950569,519.79297,135.68307,0.87735087,497.04086,138.34866,0.7136346,515.83246,137.44197,0.98699594,503.8569,138.0291,0.9820889,515.8521,163.56186,0.96906114,504.3161,163.93866,0.9515103,515.8449,188.68135,0.9365153,508.05246,188.50082,0.9114985,0.98319657,0.05576151,0.94082203,0.2800358,147.21799349334628,170.25894702218935,179.94041159913888,172.3659157831275,4.303367283445208,137.735535,104.011537,92.854004,27.31515999999999,98.312034,0.2778414667136123,174.5437889335864,0.8694359758823529,-0.6134000000000128,-0.5652460000000019,0.8341238520243969,0.6748699999999985,-0.2613960000000048,0.7237246615364165,-0.6222599999999829,-0.5201799999999963,0.8110454611179171,0.6214400000000069,-0.3162159999999971,0.6972662563583633,-0.6235399999999913,-0.5549100000000067,0.8347018867236353,0.6555999999999926,-0.326695000000015,0.7324895787825245,-0.6561599999999999,-0.2621499999999912,0.7065893914431458,0.3624299999999607,-0.4157199999999932,0.5515239099984387,-0.6466399999999908,-0.3672399999999953,0.7436454176554742,0.1520800000000122,-0.4616399999999885,0.4860450760989078,-0.5713399999999638,-0.3276859999999999,0.6586406533125316,0.1175200000001268,-0.8607319999999987,0.8687177483072551,-0.7274700000000394,0.0703800000000001,0.7308665714752983,0.0307999999999424,0.0177599999999955,0.0355535877232705,-0.9816899999999578,-0.653176000000002,1.1791327928083075,0.8165900000001329,-2.051332000000002,2.2078908945697986,-0.6090199999999868,1.948920000000001,2.041860555180002,1.1945100000000366,2.2266639999999995,2.526833336212756,-2.144769999999994,-1.3061400000000276,2.511182998608434,1.4536900000000514,-1.934480000000036,2.419799059116333,-2.4815399999999954,5.486899999999992,6.021969144856181,-1.9900200000000157,5.56001999999998,5.905421407554235,-0.6585099999999784,-0.9012899999999888,1.1162253733901373,0.1737200000001166,-1.2629399999999862,1.2748317857662657,-0.7185999999999808,-0.8867199999999968,1.1413405794941172,0.1151000000000408,-1.0021399999999971,1.0087282040272314,-0.9107000000000198,-0.1972200000000157,0.931810183674788,0.1939999999999599,-0.2674000000000376,0.3303615595071626,-1.3715199999999754,-0.1550000000000011,1.3802507418581351,-0.7381599999999366,0.0505499999999869,0.7398888349609725,-2.4700399999999263,0.6989300000000185,2.567021765879608,1.2113200000001143,1.280600000000021,1.762734382259656,-2.0189399999999864,0.8306200000000104,2.1831281016009947,-0.5098699999999781,1.8526300000000049,1.9215112109482984,-0.8940049999999928,-1.1325399999999777,138.095258,0.434171827601159,103.9847912,0.1061214960842432,93.7325768,0.6843133038903254,0.03021439,0.23100497,0.0704395721862339,0,0
35,1166.6666666666667,500.4802,92.780396,0.89072835,502.731,90.30353,0.88159746,498.96796,90.62223,0.7134046,508.114,90.55676,0.80928844,498.2939,91.51832,0.3444463,516.4055,103.26489,0.9867988,496.90692,104.89632,0.9738477,522.7018,120.37317,0.93099236,494.46216,123.20819,0.76763624,519.53687,137.11838,0.8645283,495.02405,140.38968,0.6818144,515.06714,137.66101,0.9854616,503.15408,138.11057,0.97951525,514.3971,163.51398,0.9667742,503.80792,163.7396,0.946769,514.28687,188.55142,0.93349135,508.33997,188.12082,0.90569776,0.94505483,0.02652971,0.89439505,0.30410905,149.0921091741563,170.52249914717973,178.76762366340185,170.93127634537666,4.152653743457552,137.88579,104.080605,92.780396,28.239640000000065,98.24789,0.2874325312489411,175.21724953502954,0.8566348300000001,-1.071649999999977,-0.0736080000000072,1.0741749672022485,-0.4582499999999641,0.4916379999999947,0.672087037178937,-1.0416400000000294,-0.0657860000000027,1.0437153287156713,-0.4193800000000465,0.4543939999999935,0.6183473875064349,-0.9083800000000224,-0.1161599999999936,0.9157769215262191,-0.284840000000031,0.4387500000000131,0.5231016995766972,-0.8597200000000385,-0.0205800000000095,0.8599662870136634,-0.2035600000000386,0.2415699999999816,0.3158998868312662,-0.5698399999999992,-0.1581599999999952,0.5913816121591857,0.0767999999999915,0.2090800000000001,0.2227390545009984,-0.5428600000000188,0.1742759999999918,0.5701483173491065,0.0284799999999449,0.5019619999999918,0.5027692908720546,-0.7586799999999698,-0.0361400000000031,0.7595402833293008,-0.0312099999999304,-0.1065200000000032,0.1109980833167688,-0.5272599999999557,0.5062500000000085,0.7309529192088653,0.4544300000000021,1.1594260000000105,1.2453012785571314,-1.4517400000000291,0.3203699999999969,1.4866694200460582,-0.8427200000000425,-1.6285500000000042,1.8336717538589304,-0.2560999999999467,1.4353100000000154,1.4579787399341655,1.8886700000000476,2.741450000000043,3.3290572947007706,-2.016810000000021,2.041020000000003,2.869370177669674,0.4647299999999745,-3.4458799999999883,3.4770767819103297,-0.7653199999999742,0.2190400000000067,0.7960485060597523,-0.1068099999999958,1.1203299999999956,1.12541000750837,-0.7028199999999742,0.0814699999999959,0.7075261926600055,0.0157800000000065,0.9681899999999928,0.9683185862617664,-1.4549999999999272,-0.0478799999999921,1.4557875856043654,-0.5442999999999074,0.1493400000000235,0.564415561089439,-0.5081799999999816,-0.1990600000000029,0.5457763241475233,0.8633399999999938,-0.0440600000000017,0.8644635557384646,-1.558030000000031,-0.1299300000000016,1.563438289731992,0.9120099999998956,-0.8288600000000201,1.2323843311645288,0.2875099999999975,-0.3799999999999954,0.4765102308450418,2.306449999999984,-1.2106200000000058,2.604863218462716,0.1502549999999871,1.04425999999998,138.15351800000002,0.3640596856046012,104.0108552,0.1114002173209721,93.346992,0.5206568171820337,0.0240732499999999,0.23100497,0.0704395721862339,0,0
36,1200.0,499.17853,92.92572,0.89456797,501.36014,90.42697,0.89616233,498.0733,90.759384,0.71551174,507.25552,90.470215,0.8221834,497.99896,91.42246,0.32691365,515.5954,103.105316,0.98723465,496.56015,104.63527,0.97326887,521.2513,119.987144,0.9381293,493.09277,122.99463,0.74717003,519.78436,136.66975,0.8805739,492.50018,139.67744,0.6697626,514.3157,137.00894,0.98743385,502.82556,137.39394,0.98107994,514.1403,162.52235,0.9761524,504.3609,162.67633,0.95848334,513.76044,188.58148,0.95739794,508.8873,188.02383,0.9361249,0.97405188,-0.05576151,0.92583766,0.29747663,156.4524374018662,171.33933977089316,179.55874777749548,173.3503645687073,4.277242901368993,137.20144,103.870293,92.92572,28.75112000000001,98.15451,0.2929169500931038,175.4047427124199,0.8616559300000001,-1.3016700000000014,0.1453240000000022,1.3097571736302895,-0.2300200000000245,0.2189320000000094,0.3175538080767028,-1.3708599999999933,0.1234400000000022,1.3764063982705044,-0.3292199999999639,0.189226000000005,0.3797265956921876,-0.8946599999999876,0.1371539999999953,0.9051120015312892,0.0137200000000348,0.2533139999999889,0.2536852794231375,-0.8584799999999859,-0.0865450000000009,0.8628313551470971,0.0012400000000525,-0.0659649999999913,0.0659766536359566,-0.2949399999999968,-0.0958600000000018,0.3101269791553107,0.2749000000000023,0.0622999999999933,0.2818710698173909,-0.8100999999999203,-0.1595739999999921,0.8256669252645817,-0.2672399999999015,-0.333849999999984,0.4276365747921203,-0.3467699999999922,-0.2610499999999973,0.4340466972573265,0.4119099999999775,-0.2249099999999941,0.4693126422758915,-1.4505000000000337,-0.3860260000000011,1.500988448548522,-0.923240000000078,-0.8922760000000096,1.283950372006707,-1.36939000000001,-0.213560000000001,1.3859425838396149,0.0823500000000194,-0.533929999999998,0.5402432483613294,0.2474899999999706,-0.4486300000000085,0.5123672286553788,0.5035899999999174,-1.883940000000024,1.950085334466163,-2.523869999999988,-0.7122400000000084,2.622442677066546,-0.5070599999999672,-2.753260000000012,2.7995625499709824,-0.7514400000000023,-0.652070000000009,0.994915754473722,0.0138799999999719,-0.8711100000000158,0.8712205728172555,-0.3285200000000259,-0.7166300000000092,0.7883425317081594,0.3742999999999483,-0.7981000000000051,0.8815123935600506,-0.2567999999999983,-0.9916300000000148,1.0243418847728665,1.1981999999999289,-0.9437500000000228,1.5252368021064378,0.5529799999999909,-1.0632699999999886,1.1984698466377723,1.0611599999999726,-0.8642099999999857,1.3685464806501522,-0.5264300000000048,0.0300599999999917,0.5272875387300601,1.0316000000000258,0.1599899999999934,1.0439326415531087,0.5473299999999881,-0.0969900000000052,0.5558571660057896,0.2598199999999906,0.2830099999999902,0.3841888760752835,-0.6843499999999949,-0.8346049999999821,137.968662,0.5623564048559963,103.9899964,0.128361730791376,93.140494,0.4107948452550786,-0.0066324199999999,0.252376124,0.0713283033678139,0,0
37,1233.3333333333337,498.74988,92.919,0.8966348,500.9422,90.50223,0.88439393,497.38644,90.748184,0.7123228,506.4629,90.42354,0.81175274,497.09888,91.26352,0.33354548,515.00305,102.93747,0.9890561,495.79337,104.183525,0.9805142,521.3324,120.41554,0.9549396,492.61127,122.08406,0.8542248,519.6542,136.80182,0.9172967,492.53177,139.02246,0.8011771,513.71344,137.85931,0.9902339,502.3773,138.15532,0.9869686,511.42926,164.25508,0.9780115,503.83453,164.2472,0.96602297,511.2249,189.54994,0.94645303,508.91257,188.75279,0.9259381,1.05915323,-0.07958912,1.0152526,0.29108985,154.24555412783778,170.18898974325134,175.51707066086496,171.4895237105341,4.3944356900874215,138.007315,103.5604975,92.919,28.80063000000001,99.1264,0.290544493792325,176.28865173160048,0.8782050794117646,-0.4286500000000046,-0.0067200000000013,0.4287026719067703,0.8730199999999968,-0.1520440000000036,0.8861609889495223,-0.4179399999999873,0.0752600000000001,0.4246621141566427,0.952920000000006,-0.0481800000000021,0.9541372222065396,-0.6868600000000242,-0.0112000000000023,0.6869513080270198,0.2077999999999633,-0.1483539999999976,0.2553228335186339,-0.7926199999999994,-0.0466749999999933,0.7939930856279533,0.0658599999999864,0.0398700000000076,0.0769880282901103,-0.9000800000000027,-0.1589400000000012,0.9140054321501624,-0.6051400000000058,-0.0630799999999993,0.608418857367198,-0.5923500000000104,-0.1678459999999972,0.6156710178463912,0.2177499999999099,-0.0082720000000051,0.2179070638688908,-0.7667800000000398,-0.4517450000000025,0.8899579278960682,-0.4200100000000475,-0.1906950000000051,0.4612732196053027,0.0810999999999921,0.4283959999999922,0.436004980265125,1.5316000000000258,0.8144219999999933,1.7346705030304943,-0.4814999999999827,-0.910570000000007,1.030038822035362,0.8878900000000272,-0.6970100000000059,1.128792094320321,-0.1301600000000462,0.1320699999999988,0.1854295297411168,-0.3776500000000169,0.5807000000000073,0.6926990778830453,0.0315899999999942,-0.6549799999999948,0.6557413579300857,2.5554599999999823,0.0572600000000136,2.556101429755852,-0.6022600000000011,0.8503699999999981,1.0420394639839694,0.1491800000000012,1.502440000000007,1.509828012059659,-0.4482600000000047,0.7613800000000026,0.8835363784247982,-0.1197399999999788,1.4780100000000118,1.482852395789962,-2.711040000000025,1.7327300000000037,3.2174665708442336,-2.454240000000027,2.7243600000000185,3.666801247299918,-0.5263700000000426,1.5708699999999851,1.656712990774201,-1.0793500000000336,2.6341399999999737,2.846698080601442,-2.535540000000026,0.9684599999999932,2.714199304251646,-2.009110000000021,0.9384000000000016,2.217457452151019,0.0252700000000345,0.7289600000000007,0.7293978711923985,-0.5220599999999536,0.825950000000006,0.977108001246516,0.8058750000000146,1.4902250000000097,137.891924,0.514454989739214,103.9326245,0.231069560872809,92.979674,0.252648025102424,-0.00638678,0.2845065480000001,0.0213240906179405,0,0
38,1266.6666666666663,498.4312,93.41573,0.91044664,500.65305,90.96881,0.89762914,496.8685,91.22789,0.74492556,506.04037,90.7691,0.82124716,496.20355,91.61582,0.3601014,514.3795,103.17566,0.9904089,494.80988,104.296104,0.98319894,520.7463,120.69986,0.95842016,491.36865,121.78325,0.86703455,519.3318,137.03642,0.9229066,491.53995,137.71138,0.8157748,512.85657,138.16068,0.9910452,501.30295,138.41476,0.98816943,510.3594,164.5485,0.97888774,502.58255,164.51321,0.96759653,509.84433,189.96434,0.94702744,507.38873,189.17984,0.9270768,1.22511826,-0.12454224,1.03908021,0.63695862,155.08456124985292,168.25106030362022,175.75498258711943,171.78127162890857,4.113820611124695,138.28772,103.735882,93.41573,29.377650000000017,99.19524,0.2961598732342413,176.7231503036224,0.886582175882353,-0.3186800000000289,0.4967299999999994,0.5901674637761878,0.1099699999999757,0.5034500000000008,0.5153205831324764,-0.2891500000000064,0.4665800000000075,0.5489122142018802,0.1287899999999808,0.3913200000000074,0.4119686960194923,-0.5179400000000101,0.4797060000000073,0.7059601192957131,0.1689200000000141,0.4909060000000096,0.5191557254196608,-0.4225299999999947,0.3455599999999919,0.5458418401881537,0.3700900000000047,0.3922349999999852,0.5392725686746841,-0.8953300000000013,0.3522999999999996,0.96214920823124,0.0047500000000013,0.5112400000000008,0.5112620659700863,-0.6235500000000229,0.2381899999999888,0.6674946281431958,-0.0312000000000125,0.4060359999999861,0.4072329472132497,-0.9834899999999608,0.1125789999999966,0.989912426096835,-0.2167099999999209,0.5643239999999992,0.6045037643191022,-0.5860999999999876,0.2843200000000081,0.6514223456406681,-0.6671999999999798,-0.1440759999999841,0.682578738151115,-1.242619999999988,-0.3008099999999984,1.278511290720567,-0.7611200000000053,0.6097600000000085,0.9752491538063586,-0.3223999999999023,0.2346000000000003,0.3987216071395393,-0.192239999999856,0.1025300000000015,0.2178729411834911,-0.9918200000000184,-1.311080000000004,1.6439700966866906,-1.0234100000000126,-0.6561000000000092,1.2156624688210282,-0.856869999999958,0.3013700000000199,0.9083226705306546,-0.2546099999999569,-0.5489999999999782,0.6051671274118862,-1.0743499999999813,0.2594400000000121,1.1052316662582402,-0.6260899999999765,-0.5019399999999905,0.8024540184334309,-1.0698600000000056,0.2934199999999975,1.1093672592969428,1.6411800000000198,-1.439310000000006,2.1829074805176885,-1.2519799999999464,0.2660099999999943,1.2799278262854756,-0.7256099999999037,-1.3048599999999908,1.4930403516649629,-1.3805699999999774,0.4144000000000005,1.4414232150551545,1.1549700000000485,-0.5540599999999927,1.2809910946217011,-1.523840000000007,0.4270500000000083,1.5825485926504843,-1.5491100000000415,-0.3019099999999923,1.5782558221657617,0.2804050000000018,-0.5254700000000128,137.82356,0.4024502060970945,103.8517629,0.2100617472262471,92.97897,0.2511172015377537,0.34586877,0.36193399,0.1539993731711479,0,0
39,1300.0,498.78674,94.06525,0.9203809,500.9503,91.57092,0.89578784,496.85895,91.81674,0.7904976,505.7831,91.140144,0.79193246,495.32004,91.901985,0.43981034,513.74554,103.18437,0.9912655,493.2979,104.38547,0.9881976,520.55975,120.616196,0.95840013,490.02454,122.28406,0.90859777,519.2369,136.97426,0.9252306,490.05716,138.90814,0.8625365,512.40967,138.17438,0.9928671,500.3112,138.56865,0.991816,509.90933,164.9806,0.982637,501.90482,165.08005,0.97682106,509.08347,190.93121,0.9551348,506.58878,190.44482,0.9440229,1.17851563,-0.13068337,1.01869164,0.57800372,154.02580433389036,169.5236422032181,176.49395762370276,172.9773491261987,4.692087684241952,138.371515,103.78492,94.06525,30.535210000000006,99.791066,0.3059914170473797,176.63829302825533,0.9009374176470588,0.355540000000019,0.6495200000000096,0.7404626405160669,0.674220000000048,0.1527900000000102,0.6913156966972961,0.2972500000000195,0.6021099999999961,0.6714864217540121,0.586400000000026,0.1355299999999886,0.6018582398705092,-0.0095499999999901,0.5888499999999937,0.5889274361073632,0.5083900000000199,0.1091439999999863,0.5199738501463484,-0.2572700000000054,0.3710440000000119,0.4515102466567194,0.1652599999999893,0.02548400000002,0.1672133423384554,-0.8835100000000011,0.2861649999999969,0.9286981895777552,0.0118200000000001,-0.0661350000000027,0.0671829638003591,-0.6339600000000019,0.0087100000000077,0.634019830683554,-0.0104099999999789,-0.229479999999981,0.229715995307229,-1.511979999999994,0.0893659999999982,1.514618698668408,-0.5284900000000334,-0.0232129999999983,0.5289995495924692,-0.1865500000000111,-0.0836639999999988,0.2044518706101852,0.3995499999999765,-0.3679840000000069,0.543187285156774,-1.3441100000000006,0.5008100000000013,1.4343787324831625,-0.1014900000000125,0.8016199999999998,0.8080190867176358,-0.0949000000000523,-0.0621600000000057,0.1134454741274885,0.2274999999998499,-0.2967600000000061,0.3739288001744922,-1.482789999999966,1.1967600000000118,1.9054922413119209,-0.4909699999999475,2.507840000000016,2.555447711556632,-0.4469000000000278,0.0137,0.4471099417369568,0.4099699999999302,-0.2876700000000198,0.500828742985019,-0.9917500000000246,0.1538899999999898,1.003618550346717,0.0825999999999567,-0.1055500000000222,0.134028215313036,-0.4500699999999824,0.4321000000000197,0.6239177949858469,0.6197900000000232,0.1386800000000221,0.6351155694045256,-0.6777300000000537,0.5668400000000133,0.8835301570971349,0.5742499999998927,0.300830000000019,0.6482759839758744,-0.7608600000000365,0.96687,1.23034366601371,0.6197099999999409,0.5524699999999996,0.8302189982166912,-0.7999500000000239,1.26497999999998,1.4966944921726637,0.723889999999983,0.8379299999999716,1.1073136037274751,0.0837949999999807,-0.196610000000021,137.95075599999998,0.4635398696094723,103.8064395,0.1905078134242482,93.2212192,0.5299065385455587,-0.0589549,0.421527574,0.171088475777591,0,0
