frame_id,timestamp_ms,nose_x,nose_y,nose_conf,left_eye_x,left_eye_y,left_eye_conf,right_eye_x,right_eye_y,right_eye_conf,left_ear_x,left_ear_y,left_ear_conf,right_ear_x,right_ear_y,right_ear_conf,left_shoulder_x,left_shoulder_y,left_shoulder_conf,right_shoulder_x,right_shoulder_y,right_shoulder_conf,left_elbow_x,left_elbow_y,left_elbow_conf,right_elbow_x,right_elbow_y,right_elbow_conf,left_wrist_x,left_wrist_y,left_wrist_conf,right_wrist_x,right_wrist_y,right_wrist_conf,left_hip_x,left_hip_y,left_hip_conf,right_hip_x,right_hip_y,right_hip_conf,left_knee_x,left_knee_y,left_knee_conf,right_knee_x,right_knee_y,right_knee_conf,left_ankle_x,left_ankle_y,left_ankle_conf,right_ankle_x,right_ankle_y,right_ankle_conf,acc_x,acc_y,acc_z,acc_mag,left_elbow_angle,right_elbow_angle,left_knee_angle,right_knee_angle,spine_angle,hip_height,shoulder_height,head_height,bbox_width,bbox_height,bbox_aspect_ratio,shoulder_tilt,avg_confidence,nose_vx,nose_vy,nose_speed,nose_ax,nose_ay,nose_accel,left_eye_vx,left_eye_vy,left_eye_speed,left_eye_ax,left_eye_ay,left_eye_accel,right_eye_vx,right_eye_vy,right_eye_speed,right_eye_ax,right_eye_ay,right_eye_accel,left_ear_vx,left_ear_vy,left_ear_speed,left_ear_ax,left_ear_ay,left_ear_accel,right_ear_vx,right_ear_vy,right_ear_speed,right_ear_ax,right_ear_ay,right_ear_accel,left_shoulder_vx,left_shoulder_vy,left_shoulder_speed,left_shoulder_ax,left_shoulder_ay,left_shoulder_accel,right_shoulder_vx,right_shoulder_vy,right_shoulder_speed,right_shoulder_ax,right_shoulder_ay,right_shoulder_accel,left_elbow_vx,left_elbow_vy,left_elbow_speed,left_elbow_ax,left_elbow_ay,left_elbow_accel,right_elbow_vx,right_elbow_vy,right_elbow_speed,right_elbow_ax,right_elbow_ay,right_elbow_accel,left_wrist_vx,left_wrist_vy,left_wrist_speed,left_wrist_ax,left_wrist_ay,left_wrist_accel,right_wrist_vx,right_wrist_vy,right_wrist_speed,right_wrist_ax,right_wrist_ay,right_wrist_accel,left_hip_vx,left_hip_vy,left_hip_speed,left_hip_ax,left_hip_ay,left_hip_accel,right_hip_vx,right_hip_vy,right_hip_speed,right_hip_ax,right_hip_ay,right_hip_accel,left_knee_vx,left_knee_vy,left_knee_speed,left_knee_ax,left_knee_ay,left_knee_accel,right_knee_vx,right_knee_vy,right_knee_speed,right_knee_ax,right_knee_ay,right_knee_accel,left_ankle_vx,left_ankle_vy,left_ankle_speed,left_ankle_ax,left_ankle_ay,left_ankle_accel,right_ankle_vx,right_ankle_vy,right_ankle_speed,right_ankle_ax,right_ankle_ay,right_ankle_accel,hip_velocity,hip_acceleration,hip_height_mean_5,hip_height_std_5,shoulder_height_mean_5,shoulder_height_std_5,head_height_mean_5,head_height_std_5,acc_mag_diff,acc_mag_mean_5,acc_mag_std_5,label_binary,label_3class
0,0.0,532.4887,79.06646,0.95533395,536.67303,74.47659,0.9611509,530.8768,76.003235,0.6493869,549.5176,70.15404,0.95838326,534.8978,73.37096,0.21321708,570.43896,87.72597,0.9989052,540.1594,92.130646,0.9762782,583.7772,121.77429,0.9972761,543.26263,122.899414,0.85206777,559.6251,147.7735,0.99184895,534.3646,138.91638,0.8345454,570.47845,149.83914,0.99873644,551.7915,148.108,0.99435186,538.61237,179.09131,0.9968149,522.23145,172.45062,0.985817,559.32117,219.93927,0.9857094,551.4011,205.92708,0.9651187,1.00425747,-0.18841005,0.71974114,0.67454238,115.71680661352568,145.1869967936657,105.66729874557448,88.40415800703614,5.64456094164316,148.97357,89.928308,79.06646,61.54575,149.78523,0.4108933143081376,171.7234097641135,0.9008789417647058,0.0,0.0,0.0,0.0,0.0,0.0,0.0,0.0,0.0,0.0,0.0,0.0,0.0,0.0,0.0,0.0,0.0,0.0,0.0,0.0,0.0,0.0,0.0,0.0,0.0,0.0,0.0,0.0,0.0,0.0,0.0,0.0,0.0,0.0,0.0,0.0,0.0,0.0,0.0,0.0,0.0,0.0,0.0,0.0,0.0,0.0,0.0,0.0,0.0,0.0,0.0,0.0,0.0,0.0,0.0,0.0,0.0,0.0,0.0,0.0,0.0,0.0,0.0,0.0,0.0,0.0,0.0,0.0,0.0,0.0,0.0,0.0,0.0,0.0,0.0,0.0,0.0,0.0,0.0,0.0,0.0,0.0,0.0,0.0,0.0,0.0,0.0,0.0,0.0,0.0,0.0,0.0,0.0,0.0,0.0,0.0,0.0,0.0,0.0,0.0,0.0,0.0,0.0,0.0,148.97357,0.0,89.928308,0.0,79.06646,0.0,0.0,0.67454238,0.0,0,0
1,33.333333333333336,530.9616,79.06505,0.95395285,535.0622,74.5092,0.959535,529.4077,76.00514,0.64230764,547.9566,70.26984,0.9574928,533.6196,73.41729,0.21109651,569.6425,87.88553,0.99890256,539.1555,91.92211,0.97663945,584.0407,121.68477,0.99727976,542.38403,121.56784,0.85767037,559.7292,147.68167,0.99191636,534.28375,137.15582,0.8407257,570.63184,149.57726,0.9987931,551.8259,147.73709,0.99468863,539.5717,179.44022,0.99694294,523.0915,172.74922,0.9866752,559.53564,219.97418,0.98614824,551.5505,206.05984,0.96670014,0.99246503,-0.0832738,0.70942403,0.68903546,113.84516087445432,146.32616632418973,107.65290051017324,90.52925667539988,6.63067991482562,148.657175,89.90382,79.06505,60.94920000000002,149.70434,0.4071304786011517,172.45771810931524,0.9010274852941176,-1.5271000000000186,-0.001410000000007,1.5271006509395697,-1.5271000000000186,-0.001410000000007,1.5271006509395697,-1.610830000000078,0.0326100000000053,1.6111600482262003,-1.610830000000078,0.0326100000000053,1.6111600482262003,-1.4691000000000258,0.0019049999999936,1.4691012351179464,-1.4691000000000258,0.0019049999999936,1.4691012351179464,-1.5610000000000357,0.1158000000000072,1.565289315110824,-1.5610000000000357,0.1158000000000072,1.565289315110824,-1.2781999999999698,0.0463299999999975,1.2790393695660516,-1.2781999999999698,0.0463299999999975,1.2790393695660516,-0.7964599999999109,0.159559999999999,0.8122856179939774,-0.7964599999999109,0.159559999999999,0.8122856179939774,-1.0039000000000442,-0.2085359999999951,1.025330421520832,-1.0039000000000442,-0.2085359999999951,1.025330421520832,0.2635000000000218,-0.0895199999999931,0.2782913588310105,0.2635000000000218,-0.0895199999999931,0.2782913588310105,-0.8785999999998921,-1.3315739999999892,1.595314162626215,-0.8785999999998921,-1.3315739999999892,1.595314162626215,0.1041000000000167,-0.0918300000000158,0.1388148367430743,0.1041000000000167,-0.0918300000000158,0.1388148367430743,-0.0808499999999412,-1.760559999999998,1.762415455021881,-0.0808499999999412,-1.760559999999998,1.762415455021881,0.1533900000000585,-0.2618799999999908,0.3034956778934638,0.1533900000000585,-0.2618799999999908,0.3034956778934638,0.034400000000005,-0.3709100000000092,0.372501796103062,0.034400000000005,-0.3709100000000092,0.372501796103062,0.959329999999909,0.3489100000000178,1.0208095987988346,0.959329999999909,0.3489100000000178,1.0208095987988346,0.8600500000000011,0.2986000000000217,0.9104108756490196,0.8600500000000011,0.2986000000000217,0.9104108756490196,0.214469999999892,0.0349099999999964,0.2172926344815982,0.214469999999892,0.0349099999999964,0.2172926344815982,0.1494000000000142,0.1327600000000188,0.1998638976904264,0.1494000000000142,0.1327600000000188,0.1998638976904264,-0.316395,-0.316395,148.8153725,0.2237250500335177,89.916064,0.0173156308577048,79.065755,0.0009970205614729,0.01449308,0.68178892,0.0102481551482791,0,0
2,66.66666666666667,529.9701,80.25137,0.95206183,533.80676,75.62504,0.9569731,528.2822,77.26731,0.6378286,546.4849,70.58407,0.95477605,532.5388,74.17183,0.21212125,569.11633,87.41522,0.99885035,538.2511,91.727615,0.97669095,584.21735,121.42879,0.99717075,541.75183,121.36896,0.8627868,559.97675,147.4895,0.9916856,534.3768,136.5862,0.84566116,570.56793,149.19821,0.9988055,551.5534,147.49994,0.994892,540.4587,179.83435,0.99698406,523.8264,173.28722,0.987288,559.7203,219.87985,0.98641104,551.2034,206.08627,0.96802706,1.04492852,-0.04642699,0.7811525,0.69247449,113.13248801294353,147.4072689591133,109.80975280191808,93.0727471479063,7.153569178807748,148.349075,89.5714175,80.25137,60.390949999999975,149.29578,0.4045054026007605,172.04629749038747,0.9011184764705884,-0.9914999999999736,1.186319999999995,1.546100705775641,0.5356000000000449,1.187730000000002,1.302908251911873,-1.2554399999999075,1.1158399999999915,1.6796513028601352,0.3553900000001704,1.083229999999986,1.140039159415189,-1.1254999999999882,1.2621699999999976,1.6911012266863172,0.3436000000000376,1.260265000000004,1.3062652220070148,-1.4716999999999416,0.3142299999999949,1.5048725470616522,0.0893000000000938,0.1984299999999876,0.2175981500381192,-1.0807999999999538,0.7545400000000058,1.3181271758066095,0.197400000000016,0.7082100000000082,0.7352062051560895,-0.5261700000000928,-0.4703099999999978,0.7057240005838653,0.270289999999818,-0.6298699999999968,0.6854144009282981,-0.9044000000000096,-0.1944950000000034,0.9250771130154604,0.0995000000000345,0.0140409999999917,0.1004858183078918,0.1766499999999951,-0.2559799999999939,0.3110160492643348,-0.0868500000000267,-0.1664600000000007,0.1877547711777383,-0.6322000000000116,-0.1988800000000026,0.6627443658002803,0.2463999999998805,1.1326939999999863,1.1591844795527202,0.2475500000000465,-0.1921700000000044,0.3133852443878376,0.1434500000000298,-0.1003399999999885,0.1750600414143852,0.0930499999999483,-0.5696200000000147,0.5771700329192491,0.1738999999998896,1.1909399999999837,1.2035693970851544,-0.0639099999999643,-0.3790500000000065,0.3844000398022877,-0.2173000000000229,-0.1171700000000157,0.2468766876398289,-0.2725000000000364,-0.2371499999999855,0.3612428165375929,-0.3069000000000415,0.1337600000000236,0.3347825377764374,0.8870000000000573,0.3941299999999899,0.9706222009103715,-0.0723299999998516,0.045219999999972,0.0853022701923929,0.7349000000000387,0.5379999999999825,0.9107809890418432,-0.1251499999999623,0.2393999999999607,0.2701386357039136,0.184660000000008,-0.0943299999999851,0.2073582998097741,-0.0298099999998839,-0.1292399999999816,0.1326333807907659,-0.3471000000000686,0.0264300000000048,0.3481048044771113,-0.4965000000000827,-0.106330000000014,0.5077581303141144,-0.308099999999996,0.0082950000000039,148.65994,0.3122566815538155,89.80118183333333,0.199358100387431,79.46096,0.6845155024541051,0.00343903,0.6853507766666667,0.009516974871945,0,0
3,100.0,529.0307,79.7693,0.95337677,532.93054,75.056465,0.9589433,527.3214,76.78651,0.63946736,545.76575,70.45236,0.95687115,531.505,74.26642,0.20704961,568.6537,87.81749,0.9989078,537.3667,92.77873,0.976158,584.43945,121.40329,0.9973086,540.5317,122.61685,0.85751563,560.07227,147.31932,0.9920365,533.4153,137.87595,0.8419935,570.58234,149.37906,0.99881375,551.32794,148.01137,0.9947462,540.6171,179.4577,0.9969869,523.93945,173.62129,0.9868514,559.94476,219.62686,0.98624414,551.38696,206.65263,0.96687627,0.97387664,-0.17760165,0.64555622,0.70721322,111.59018003610052,148.94216596745878,109.41336496728675,93.352928318944,7.747543793561143,148.69521500000002,90.29811,79.7693,60.5,149.1745,0.4055652916177679,170.9895207744073,0.9005968752941177,-0.9393999999999778,-0.4820699999999931,1.0558711308204007,0.0520999999999958,-1.668389999999988,1.669203283635627,-0.876220000000103,-0.5685749999999956,1.044528132232529,0.3792199999998047,-1.6844149999999871,1.726575136107551,-0.9607999999999493,-0.4807999999999879,1.074386001397957,0.1647000000000389,-1.7429699999999857,1.750734277638946,-0.7191500000000133,-0.1317099999999982,0.7311116512544569,0.7525499999999283,-0.4459399999999931,0.8747536716698513,-1.033800000000042,0.0945899999999966,1.0381183497559834,0.0469999999999117,-0.6599500000000091,0.6616214948896414,-0.4626299999999901,0.4022700000000014,0.6130641645048192,0.0635400000001027,0.8725799999999992,0.8748903862770534,-0.8843999999999141,1.0511149999999958,1.3736834072029986,0.0200000000000954,1.2456099999999992,1.2457705535531018,0.2220999999999549,-0.025500000000008,0.2235590749667308,0.0454499999999598,0.2304799999999858,0.2349185665288927,-1.22013000000004,1.2478899999999982,1.7452640685581349,-0.5879300000000285,1.4467700000000008,1.5616674158731862,0.0955199999999649,-0.1701799999999877,0.1951545613097197,-0.1520300000000816,0.0219900000000166,0.1536121121527386,-0.9615000000000008,1.289749999999998,1.6087067204745544,-1.0545499999999493,1.8593700000000128,2.137599705136568,0.014409999999998,0.1808500000000208,0.1814231809885591,0.0783199999999624,0.5599000000000274,0.5653512469253295,-0.2254599999999982,0.5114299999999901,0.5589211540995643,0.0470400000000381,0.7485799999999756,0.750056516537232,0.1584000000000287,-0.3766500000000121,0.4086022301701476,-0.7286000000000286,-0.770780000000002,1.0606412062521635,0.1130499999999301,0.334069999999997,0.3526798369626228,-0.6218500000001086,-0.2039299999999855,0.6544347694003805,0.2244600000000218,-0.2529900000000111,0.338210336477192,0.0398000000000138,-0.158660000000026,0.163575779380718,0.1835600000000568,0.5663599999999747,0.595363689856874,0.5306600000001254,0.5399299999999698,0.7570498269599567,0.3461400000000196,0.6542400000000157,148.66875875,0.255565852289094,89.925413875,0.2970356356287895,79.538045,0.5797781509336117,0.0147387299999999,0.6908163875,0.0134116919489908,0,0
4,133.33333333333334,528.0652,79.779724,0.94764996,531.88055,75.09013,0.9539215,526.423,76.76605,0.60822177,544.5761,70.67839,0.95406926,530.53784,74.471016,0.19224758,568.1238,87.902405,0.9988741,535.85736,93.66837,0.97432953,584.9287,120.70419,0.99735767,538.81604,124.69153,0.8527657,560.87836,146.7026,0.9921462,531.8206,141.44873,0.8382576,570.6281,149.24698,0.9988299,550.8174,148.23175,0.994701,541.9334,179.95746,0.99698764,524.55695,174.31364,0.986586,560.6059,219.62494,0.9860553,551.6507,206.80579,0.96597666,1.02186368,-0.00884324,0.69615918,0.74799036,110.10220588381452,151.89365164787608,111.73588780534098,94.98132790719164,8.568547924914437,148.73936500000002,90.7853875,79.779724,60.37175000000002,148.94655,0.4053249275976858,169.8682718489332,0.8964104335294117,-0.96550000000002,0.0104240000000004,0.9655562696063024,-0.0261000000000422,0.4924939999999935,0.4931851072731169,-1.0499899999999798,0.0336649999999991,1.050529548525389,-0.1737699999998767,0.6022399999999948,0.626808607550942,-0.8984000000000378,-0.0204599999999999,0.8986329459796519,0.0623999999999114,0.460339999999988,0.4645499710472253,-1.1896500000000287,0.2260299999999944,1.2109321547469396,-0.4705000000000154,0.3577399999999926,0.5910568141896422,-0.9671600000000352,0.2045960000000093,0.9885635987715066,0.0666400000000067,0.1100060000000127,0.1286165216292358,-0.5298999999999978,0.0849149999999951,0.5366605698437299,-0.0672700000000077,-0.3173550000000062,0.3244063022276309,-1.5093400000000656,0.88964,1.7520178552743684,-0.6249400000001515,-0.1614749999999958,0.6454643128982329,0.4892500000000837,-0.6991000000000014,0.853291493277698,0.2671500000001288,-0.6735999999999933,0.7246420374916568,-1.715659999999957,2.0746800000000007,2.692171305470708,-0.495529999999917,0.8267900000000026,0.9639147706098928,0.8060900000000402,-0.616720000000015,1.014950563574445,0.7105700000000752,-0.4465400000000272,0.8392304191937583,-1.594699999999989,3.572780000000023,3.912521567787216,-0.633199999999988,2.283030000000025,2.369212574021187,0.0457599999999729,-0.1320800000000019,0.1397823450940713,0.0313499999999749,-0.3129300000000228,0.3144964346379982,-0.5105399999999918,0.2203800000000058,0.5560741281519885,-0.2850799999999935,-0.2910499999999842,0.4074073009900377,1.3162999999999556,0.4997600000000091,1.4079793136264085,1.1578999999999269,0.8764100000000212,1.452180050165911,0.6175000000000637,0.6923500000000047,0.9277148120516806,0.5044500000001335,0.3582800000000077,0.6187360995611458,0.6611400000000458,-0.0019199999999841,0.6611427879059565,0.4366800000000239,0.251070000000027,0.5037117899156565,0.2637399999999843,0.1531600000000139,0.3049865131444274,0.0801799999999275,-0.4131999999999607,0.42090743923095,0.0441500000000019,-0.3019900000000177,148.68288,0.2235676120326943,90.0974086,0.4626916400413718,79.5863808,0.5136037149721551,0.0407771399999999,0.702251182,0.0280834067909703,0,0
5,166.66666666666666,527.0904,80.145706,0.94351393,530.92053,75.52089,0.9503785,525.55145,77.08017,0.58889395,543.84644,71.010345,0.9517871,529.764,74.577324,0.18339221,567.58514,87.98276,0.99882597,534.70856,93.73059,0.9727686,584.8123,120.83273,0.99730814,537.8225,125.62424,0.8484452,561.53156,147.00616,0.991981,531.1497,144.06818,0.8340355,570.0058,148.84242,0.9988146,549.83563,147.89664,0.9945905,543.126,180.84518,0.9968918,525.21564,175.29019,0.9861407,560.96686,218.9884,0.98551625,551.7334,206.62071,0.96463567,0.99051177,-0.02775793,0.65685591,0.74086665,110.674163508248,154.53406811069627,114.90531966558686,97.8081797814206,8.673879163415911,148.36953,90.856675,80.145706,59.59666000000004,147.978055,0.4027398494814666,170.08317599121295,0.8934070364705882,-0.9747999999999593,0.3659820000000024,1.041238620261428,-0.0092999999999392,0.355558000000002,0.35567960493118,-0.960019999999986,0.4307599999999922,1.0522321882550287,0.0899699999999938,0.3970949999999931,0.4071597228668295,-0.8715499999999565,0.3141199999999884,0.9264290457989304,0.0268500000000813,0.3345799999999883,0.3356556254556097,-0.7296599999999671,0.3319550000000077,0.8016220042045734,0.4599900000000616,0.1059250000000133,0.4720285009669008,-0.7738399999999501,0.1063079999999985,0.781108018435301,0.1933200000000852,-0.0982880000000108,0.2168712828938748,-0.5386599999999362,0.0803549999999972,0.5446205299333939,-0.0087599999999383,-0.0045599999999978,0.0098757885760531,-1.1487999999999374,0.0622200000000106,1.1504837106190846,0.3605400000001282,-0.8274199999999894,0.9025591105296512,-0.1163999999999987,0.128540000000001,0.1734113364229685,-0.6056500000000824,0.8276400000000024,1.025572957960624,-0.9935400000000528,0.9327100000000002,1.3627434372251093,0.7221199999999044,-1.1419700000000006,1.3511301844381478,0.6531999999999698,0.3035600000000045,0.7202908534751522,-0.1528900000000703,0.9202800000000196,0.9328936866010282,-0.6708999999999605,2.6194500000000005,2.704001685003164,0.9238000000000284,-0.9533300000000224,1.3274955852657646,-0.6222999999999956,-0.4045600000000036,0.7422439515415383,-0.6680599999999686,-0.2724800000000016,0.7214911738891605,-0.9817699999999832,-0.3351100000000144,1.037386641999971,-0.4712299999999914,-0.5554900000000202,0.7284413861114801,1.1925999999999704,0.8877200000000016,1.4867217488151343,-0.1236999999999852,0.3879599999999925,0.4072034523429173,0.6586899999999787,0.9765500000000032,1.17793141506625,0.041189999999915,0.2841999999999984,0.2871693857290364,0.3609599999999773,-0.6365399999999966,0.7317617735301423,-0.3001800000000685,-0.6346200000000124,0.7020331735751928,0.0826999999999316,-0.1850799999999992,0.2027162953489147,-0.1810400000000527,-0.3382400000000132,0.383642775508712,-0.3698350000000232,-0.4139850000000251,148.562072,0.1875130599985068,90.283082,0.5549440537043966,79.80223,0.4649536964881546,-0.00712371,0.715516036,0.0273783940833174,0,0
6,200.0,526.59094,81.08181,0.9481174,530.462,76.453964,0.95438826,524.80725,77.93908,0.61713976,543.3639,71.49556,0.9529703,528.5013,75.06023,0.19478099,567.22876,87.962494,0.998855,533.3482,94.23807,0.97346944,584.8991,120.73479,0.99724966,536.5637,127.903534,0.8470249,562.7454,146.92075,0.9916898,529.688,148.93848,0.83006936,569.91565,148.473,0.9987903,549.1537,147.7399,0.99448484,544.4439,181.95782,0.99679476,525.68243,176.23975,0.98574907,561.2534,219.065,0.9851483,551.4042,206.50577,0.96380115,1.01078373,-0.12847256,0.64285412,0.76936152,111.43540377572624,156.44300785463656,118.36945805388494,100.16681669442148,9.212943844360971,148.10645,91.100282,81.08181,60.09185000000002,147.56944,0.4072106636224232,169.50623685607337,0.8959131347058824,-0.4994599999999991,0.9361040000000004,1.061014132995409,0.4753399999999601,0.5701219999999978,0.7422851274840144,-0.4585299999999961,0.9330740000000048,1.039652273780039,0.5014899999999898,0.5023140000000126,0.7097968545267035,-0.7442000000000917,0.8589100000000087,1.136468225732753,0.1273499999998648,0.5447900000000203,0.559476689952305,-0.4825400000000854,0.4852149999999966,0.6843087372122901,0.2471199999998816,0.1532599999999888,0.290786729408235,-1.2626999999999953,0.4829059999999998,1.351891080981004,-0.4888600000000451,0.3765980000000013,0.6170981714476597,-0.3563800000000583,-0.0202659999999923,0.3569557607828192,0.1822799999998778,-0.1006209999999896,0.2082080306831448,-1.3603600000000142,0.5074799999999868,1.4519350123197752,-0.2115600000000768,0.4452599999999762,0.4929646044088879,0.0867999999999256,-0.0979399999999941,0.1308681917044242,0.2031999999999243,-0.2264799999999951,0.3042752543339123,-1.258799999999951,2.279293999999993,2.603796954149045,-0.2652599999998983,1.346583999999993,1.3724617796703582,1.2138400000000047,-0.0854099999999959,1.2168411620667714,0.5606400000000349,-0.3889700000000005,0.6823597808341575,-1.4617000000000644,4.870299999999986,5.084917794812425,-0.7908000000001039,2.2508499999999856,2.385726380476206,-0.0901499999999941,-0.369419999999991,0.3802606460048058,0.5321500000000015,0.0351400000000126,0.5333089555782862,-0.6819300000000794,-0.156739999999985,0.6997113351233518,0.2998399999999037,0.1783700000000294,0.3488837664609128,1.3179000000000087,1.112639999999999,1.7247690221012264,0.1253000000000383,0.2249199999999973,0.2574666898843585,0.4667899999999463,0.9495599999999912,1.058091252066632,-0.1919000000000323,-0.026990000000012,0.1937887254202707,0.2865400000000591,0.0765999999999849,0.2966019750440505,-0.0744199999999182,0.7131399999999815,0.7170125494020041,-0.3292000000000143,-0.11493999999999,0.3486887488864634,-0.411899999999946,0.0701400000000092,0.4178291871087475,-0.2630800000000022,0.106755000000021,148.451927,0.2638805657063557,90.5223744,0.6061195267508355,80.205582,0.5350593901596263,0.02849487,0.731581248,0.0312488636161521,0,0
7,233.3333333333333,525.9225,81.64736,0.95315903,529.8575,76.94008,0.9594583,523.94904,78.50404,0.64371586,542.82916,71.81767,0.9556681,527.291,75.60719,0.20147492,566.7663,88.15358,0.99888474,532.5613,94.81772,0.97337025,584.809,120.99437,0.99724054,535.8913,128.47142,0.84212977,562.76794,147.7637,0.99167037,529.3645,149.52245,0.8262338,570.2954,148.20218,0.9987098,549.273,147.73352,0.99404126,545.0727,181.78088,0.9965436,525.87103,176.69333,0.9844226,562.032,218.88124,0.98391956,551.44446,207.07483,0.96046555,0.96255597,-0.02898616,0.6033052,0.74946424,111.74863383610888,157.12316308350685,118.52182410468306,100.97008625006036,10.158385505613502,147.96785,91.48565,81.64736,60.85996,147.06356999999997,0.4138343682678562,168.97520729050717,0.8977122382352941,-0.6684400000000323,0.5655500000000018,0.8755905641908467,-0.1689800000000332,-0.3705539999999985,0.4072646649489863,-0.60450000000003,0.4861159999999955,0.7757119410296789,-0.1459700000000339,-0.4469580000000093,0.4701900622769671,-0.8582099999999855,0.5649599999999992,1.027474673994437,-0.1140099999998938,-0.2939500000000095,0.3152853986469741,-0.5347399999999425,0.3221100000000092,0.6242609387907788,-0.052199999999857,-0.1631049999999874,0.1712544335921875,-1.210299999999961,0.5469599999999986,1.3281533539467134,0.0524000000000342,0.0640539999999987,0.0827567212738845,-0.4624599999999645,0.1910859999999985,0.5003829643342853,-0.1060799999999062,0.2113519999999908,0.2364796699591241,-0.7869000000000597,0.5796500000000009,0.9773462705203796,0.5734599999999546,0.072170000000014,0.577983460403453,-0.0901000000000067,0.2595799999999997,0.2747722445954123,-0.1768999999999323,0.3575199999999938,0.3988911636022684,-0.6724000000000387,0.5678860000000014,0.8801228715333183,0.5863999999999123,-1.7114079999999916,1.809083276818364,0.0225399999999353,0.8429500000000019,0.8432512994949964,-1.1913000000000693,0.928359999999998,1.5103138679096346,-0.3234999999999672,0.5839699999999937,0.6675876054121822,1.1382000000000971,-4.286329999999992,4.434875884272316,0.3797499999999445,-0.2708200000000147,0.466426344560388,0.4698999999999387,0.0985999999999762,0.4801332835785681,0.1193000000000665,-0.0063800000000071,0.1194704750137705,0.801230000000146,0.1503599999999778,0.815216316384938,0.6288000000000693,-0.1769400000000018,0.6532206392943258,-0.6890999999999394,-1.2895800000000008,1.462147525525355,0.1886000000000649,0.4535800000000165,0.4912278253519841,-0.2781899999998813,-0.4959799999999745,0.5686702352857135,0.7785999999999831,-0.1837600000000065,0.7999910609500434,0.492059999999924,-0.2603599999999915,0.5566959432220795,0.0402600000001029,0.569059999999979,0.5704823846535355,0.3694600000001173,0.6839999999999691,0.7774038150151081,-0.1385999999999967,0.1244800000000054,148.375682,0.3439539648448733,90.9052209,0.4359607682811109,80.48478,0.841430901546874,-0.01989728,0.742979198,0.0226211320991707,0,0
8,266.6666666666667,524.9676,83.06088,0.9529435,528.914,78.19595,0.9586173,522.78925,79.948044,0.65111214,541.9984,72.532,0.9530235,525.6827,76.843056,0.20208104,566.7156,88.38555,0.998781,530.6771,95.946724,0.9725432,584.9249,121.595505,0.99697375,534.3686,130.36043,0.8411977,562.2147,148.78928,0.9911316,529.2627,150.88042,0.8259801,570.654,148.3802,0.99856573,548.44196,148.32567,0.99358,545.79346,181.28395,0.9961932,525.5742,176.68927,0.98335934,562.7247,218.15778,0.9827145,551.9424,206.88086,0.9583118,1.0511303,0.10169721,0.70868709,0.76960716,111.39756842143814,159.90449106463402,118.2639873210859,99.99024289547802,10.931228860479662,148.352935,92.166137,83.06088,62.13564999999994,145.62578000000002,0.4266802867824615,168.15074465199768,0.8974770235294118,-0.954900000000066,1.4135199999999912,1.7058349276527611,-0.2864600000000337,0.8479699999999895,0.8950488548118485,-0.9434999999999718,1.2558700000000016,1.5707965198904503,-0.3389999999999418,0.769754000000006,0.8410958450236036,-1.15978999999993,1.4440039999999923,1.8520962167543609,-0.3015799999999444,0.8790439999999933,0.929337855860803,-0.8307600000000548,0.7143299999999897,1.0956411485975124,-0.2960200000001123,0.3922199999999805,0.4913902408473851,-1.608300000000099,1.2358660000000017,2.0282982177077225,-0.3980000000001382,0.6889060000000029,0.7956101286661162,-0.0507000000000061,0.2319699999999898,0.2374459325825479,0.4117599999999584,0.0408839999999912,0.413784725498616,-1.8841999999999643,1.129004000000009,2.1965563211572534,-1.097299999999905,0.5493540000000081,1.2271336957788257,0.1159000000000105,0.6011349999999993,0.6122059279564366,0.2060000000000172,0.3415549999999996,0.3988681712358193,-1.5226999999999862,1.8890100000000127,2.4263087334673648,-0.8502999999999474,1.3211240000000115,1.5711074798930664,-0.5532399999999598,1.0255799999999908,1.1652848724667872,-0.5757799999998952,0.1826299999999889,0.6040499360978985,-0.1018000000000256,1.3579699999999946,1.3617803644127016,0.2216999999999416,0.7740000000000009,0.8051253877502407,0.358600000000024,0.1780200000000036,0.4003561919091779,-0.0211499999999205,0.4488400000000183,0.4493380332222202,-0.83104000000003,0.5921500000000037,1.0204259424867903,-0.9503400000000966,0.5985300000000109,1.123113652530409,0.7207599999999275,-0.4969299999999919,0.8754623935383445,0.0919599999998581,-0.31998999999999,0.3329417992682317,-0.2968299999999999,-0.0040600000000097,0.2968577647628574,-0.4854300000000648,-0.4576400000000262,0.6671406557091892,0.6926999999999452,-0.7234599999999887,1.001612530672369,-0.0859000000000378,-0.5396999999999821,0.5464932753474531,0.4979399999999714,-0.1939699999999788,0.5343861941517234,0.4576799999998684,-0.7630299999999579,0.8897672523192879,0.3850850000000037,0.5236850000000004,148.307226,0.295043339176649,91.2788263,0.5664953569349788,81.143096,1.3028338006660556,0.0201429199999999,0.7554579859999999,0.0132108373885304,0,0
9,300.0,524.3554,83.70929,0.9510761,528.3903,78.807365,0.95658135,522.05786,80.5961,0.65223825,541.51306,72.81773,0.95016503,524.6536,77.16382,0.20574203,566.36896,88.455444,0.99864894,529.2549,96.15437,0.9712488,584.9861,121.70201,0.99658895,533.54974,131.37502,0.834792,562.75854,149.2684,0.99005777,528.35956,155.47276,0.8164071,570.20325,148.88878,0.99835664,547.43463,148.9754,0.9928536,545.3594,182.03442,0.9955432,525.02014,177.58456,0.9810656,563.2419,216.50507,0.98034805,553.11694,205.71701,0.95346653,1.05728862,0.03439036,0.71409129,0.77894169,111.87218826355202,160.8929124715092,115.72798043650894,96.95860327435588,10.99981076208669,148.93209000000002,92.304907,83.70929,62.92823999999996,143.68734,0.4379525681389007,168.28079652820554,0.89559882,-0.6121999999999161,0.6484099999999984,0.8917535355129774,0.3427000000001499,-0.7651099999999929,0.8383535066426882,-0.5236999999999625,0.611415000000008,0.8050403668294966,0.4198000000000093,-0.6444549999999936,0.7691256640010132,-0.7313900000000331,0.6480560000000111,0.9771938964381957,0.4283999999998968,-0.7959479999999814,0.903913590286086,-0.485339999999951,0.2857300000000009,0.5632020494458032,0.3454200000001037,-0.4285999999999887,0.5504661083119123,-1.0290999999999713,0.3207639999999969,1.0779315162365088,0.5792000000001281,-0.9151020000000044,1.082997834902802,-0.3466399999999794,0.069894000000005,0.3536162621203759,-0.2959399999999732,-0.1620759999999848,0.3374153425319886,-1.4221999999999753,0.2076459999999969,1.4372785747084411,0.4619999999999891,-0.921358000000012,1.0307010061914232,0.0611999999999852,0.1065049999999985,0.1228362935984226,-0.0547000000000252,-0.4946300000000008,0.497645382677267,-0.8188599999999724,1.0145899999999983,1.3038115537530537,0.7038400000000138,-0.8744200000000149,1.122497697993205,0.5438400000000456,0.4791200000000231,0.724788189749303,1.0970800000000054,-0.5464599999999677,1.2256439360597255,-0.9031400000000076,4.592340000000007,4.680304320789416,-0.801339999999982,3.2343700000000126,3.332160724289879,-0.4507499999999709,0.5085799999999949,0.6795801489890421,-0.8093499999999949,0.3305599999999913,0.8742524441487058,-1.0073300000000245,0.6497300000000052,1.1986921213556283,-0.1762899999999945,0.0575800000000015,0.1854551711330752,-0.4340599999999313,0.7504700000000071,0.8669563452100405,-1.1548199999998587,1.247399999999999,1.6998870528360617,-0.5540600000000495,0.895290000000017,1.052865930543906,-0.2572300000000496,0.8993500000000267,0.9354131148321974,0.5172000000000025,-1.6527100000000132,1.7317465704022763,-0.1754999999999427,-0.9292500000000246,0.945677435757048,1.174539999999979,-1.163850000000025,1.6535087039686271,0.6766000000000076,-0.969880000000046,1.1825627993472902,0.5791550000000143,0.1940700000000106,148.345771,0.3689460007982287,91.5827302,0.6385999939528816,81.9290092,1.451531457996391,0.00933453,0.761648252,0.0158289832882179,0,0
10,333.3333333333333,523.0967,84.960266,0.94527197,526.98016,80.173584,0.9499053,521.04675,81.87383,0.6250276,540.33203,73.574524,0.9448991,524.1115,77.78003,0.19507447,566.02655,88.16117,0.99858046,528.1709,95.495224,0.97157425,585.08044,121.41708,0.99656785,532.0217,130.78242,0.84684163,563.37616,148.79811,0.99014837,527.45886,154.99525,0.82819784,569.60095,148.21002,0.998519,546.34076,148.0614,0.99376947,546.14514,182.70253,0.9960588,525.0524,177.44565,0.983878,563.23737,217.34933,0.98257715,552.6577,205.6631,0.9597756,0.99279892,-0.05723539,0.62516764,0.76911587,111.78654527042148,163.100030827327,119.52486685685948,99.70562498268376,10.928468131883882,148.13571,91.828197,84.960266,64.03368999999998,143.774806,0.4453748979819529,169.03550088312278,0.8945098152941177,-1.2586999999999762,1.2509760000000083,1.774617322854694,-0.64650000000006,0.6025660000000101,0.8837692200773287,-1.4101400000000694,1.366219000000001,1.9634279145314195,-0.8864400000001069,0.7548039999999929,1.1642615479419471,-1.0111100000000306,1.2777299999999912,1.629397859640192,-0.2797199999999975,0.6296739999999801,0.6890084358525471,-1.1810299999999645,0.7567939999999993,1.4027006164310023,-0.6956900000000132,0.4710639999999984,0.8401701424092723,-0.5421000000000049,0.6162099999999953,0.8207235674086614,0.4869999999999663,0.2954459999999983,0.5696115684534209,-0.3424099999999725,-0.2942740000000015,0.4514884219733459,0.0042300000000068,-0.3641680000000065,0.36419256599223,-1.08400000000006,-0.6591460000000069,1.2686723175493897,0.3381999999999152,-0.8667920000000038,0.9304340982917324,0.0943399999999883,-0.2849300000000028,0.3001418672894526,0.033140000000003,-0.3914350000000013,0.3928353584200399,-1.5280400000000327,-0.5926000000000045,1.6389267834775614,-0.7091800000000603,-1.6071900000000028,1.7567003069676097,0.6176199999999881,-0.4702900000000056,0.7762906340411371,0.0737799999999424,-0.9494100000000288,0.9522724591733428,-0.9007000000000289,-0.4775099999999952,1.0194490129967495,0.0024399999999786,-5.069850000000002,5.069850587157379,-0.6023000000000138,-0.6787600000000111,0.9074582236114408,-0.1515500000000429,-1.187340000000006,1.1969727140165003,-1.0938699999999244,-0.9140000000000156,1.4254639865320566,-0.0865399999998999,-1.563730000000021,1.5661228190981855,0.7857399999999188,0.6681099999999844,1.031386600504317,1.21979999999985,-0.0823600000000226,1.2225772816471103,0.0322600000000647,-0.1389100000000098,0.1426067870054119,0.5863200000001143,-1.0342000000000269,1.188840099592956,-0.0045299999999315,0.8442600000000198,0.8442721530999543,-0.5217299999999341,2.496970000000033,2.550894230225961,-0.4592400000000225,-0.0539100000000019,0.462393410095798,-1.6337800000000016,1.109940000000023,1.9751465494995697,-0.7963800000000276,-1.375535000000042,148.299007,0.3798392361184006,91.7770346,0.4938538767350166,82.8919212,1.5652575011726044,-0.0098258199999999,0.767298096,0.0107994617752527,0,0
11,366.6666666666666,520.9449,83.79138,0.94983095,525.04877,78.769394,0.9526104,519.1372,80.54566,0.6498652,539.29974,72.80866,0.9450581,522.5176,77.306465,0.21632019,565.1074,88.729706,0.99808455,526.1656,97.09483,0.97417396,584.9261,122.24301,0.9947674,530.26276,133.75136,0.84574366,561.9099,148.70357,0.98694617,526.8364,157.9836,0.8265271,569.3627,148.86784,0.99764794,545.5376,149.12476,0.9915115,545.96423,182.45099,0.9942253,524.6165,179.06902,0.9799091,562.3562,215.30688,0.9761657,552.99945,207.00055,0.95107144,0.99281503,0.03193391,0.65120606,0.7487273,108.38354455055274,165.57434264419706,118.61898090206068,99.59995083141912,11.895006940410624,148.99630000000002,92.912268,83.79138,65.78890000000001,142.49822,0.4616822549665375,167.8764749029123,0.8959093329411764,-2.151800000000094,-1.1688860000000003,2.448782906056885,-0.8931000000001177,-2.419862000000009,2.579410729031779,-1.9313899999999649,-1.4041899999999998,2.387889630657134,-0.5212499999998954,-2.770409000000001,2.819018905538041,-1.9095499999999677,-1.32817,2.3260302559080945,-0.8984399999999368,-2.6058999999999912,2.7564305258068527,-1.032289999999989,-0.7658639999999934,1.2853677725055843,0.1487399999999752,-1.5226579999999927,1.5299055436738471,-1.5938999999999623,-0.4735649999999936,1.6627630676752698,-1.0517999999999574,-1.0897749999999888,1.514560263120912,-0.9191500000000588,0.5685359999999946,1.0807728280245124,-0.5767400000000862,0.8628099999999961,1.0378198898171551,-2.00529999999992,1.5996060000000083,2.5651447220840597,-0.92129999999986,2.2587520000000154,2.4394167924944297,-0.1543399999999337,0.8259299999999996,0.8402268744214141,-0.248679999999922,1.1108600000000024,1.1383548137553452,-1.7589400000000524,2.9689400000000035,3.450865782263953,-0.2309000000000196,3.561540000000008,3.56901694890905,-1.466260000000034,-0.0945399999999949,1.4693046652073551,-2.083880000000022,0.3757500000000107,2.1174852813892477,-0.6224599999999327,2.988349999999997,3.0524895043390234,0.2782400000000962,3.465859999999992,3.4770106466906308,-0.2382499999999936,0.6578200000000152,0.699635773027664,0.3640500000000202,1.3365800000000263,1.385271994555613,-0.8031600000000481,1.0633600000000172,1.3325916385750414,0.2907099999998763,1.9773600000000329,1.998615739380649,-0.1809099999999261,-0.2515400000000056,0.3098399582041931,-0.966649999999845,-0.91964999999999,1.3342294948769804,-0.4359000000000606,1.6233699999999942,1.6808744649437786,-0.4681600000001253,1.762280000000004,1.82340466819632,-0.881170000000111,-2.0424500000000023,2.2244240988175354,-0.8766400000001795,-2.886710000000022,3.0168845376812885,0.3417500000000473,1.3374500000000182,1.380422241562371,0.8009900000000698,1.39136000000002,1.6054493544488309,0.8605900000000304,1.656970000000058,148.47697699999998,0.4658014883724634,92.1394318,0.5361130347917112,83.4338352,1.2108152046720824,-0.02038857,0.763171252,0.0134348058881468,0,0
12,400.0,520.44855,84.529564,0.9534391,524.5502,79.53835,0.9553246,518.39044,81.264,0.6714351,538.5483,73.37871,0.9463646,521.3528,77.828896,0.23100606,564.3672,88.8683,0.9981845,525.4486,97.19671,0.97624534,584.75635,121.57631,0.9948861,529.93097,133.17514,0.8550843,562.70807,148.00446,0.98714066,526.1739,157.53871,0.83465123,569.6092,148.81075,0.9978307,545.75433,149.07574,0.992308,546.7356,182.75264,0.9947278,524.9613,179.17188,0.9820047,562.6231,215.66998,0.9783514,552.7225,207.10272,0.9560834,1.02709543,0.13485935,0.68412255,0.7541315,108.22456270006523,164.13195779706578,120.25958001485677,100.53443616133998,12.869422766436076,148.943245,93.032505,84.529564,66.36590999999999,142.29127,0.466408863548629,167.92113524575186,0.9002980935294118,-0.4963500000000067,0.7381839999999897,0.8895386109416452,1.6554500000000871,1.9070699999999905,2.5253575365480927,-0.4985699999999724,0.7689559999999886,0.916441692000072,1.4328199999999924,2.1731459999999885,2.6029861101657703,-0.7467599999999948,0.7183399999999978,1.036177037576103,1.162789999999973,2.046509999999998,2.353780738344149,-0.7514400000000023,0.5700499999999948,0.9431962023354408,0.2808499999999867,1.3359139999999885,1.3651164558000028,-1.1648000000000138,0.5224309999999974,1.276594371662757,0.4290999999999485,0.995995999999991,1.0844975066895903,-0.7401999999999589,0.1385940000000118,0.753063302011154,0.1789500000000998,-0.4299419999999827,0.4656964954388436,-0.7169999999999845,0.1018799999999942,0.7242019983402259,1.2882999999999356,-1.4977260000000143,1.975575880870152,-0.1697500000000218,-0.6666999999999916,0.6879708950965849,-0.015410000000088,-1.4926299999999912,1.4927095447540946,-0.3317899999999554,-0.5762200000000064,0.664916605673206,1.427150000000097,-3.54516000000001,3.821637940477924,0.7981700000000274,-0.6991100000000188,1.0610514318354554,2.264430000000061,-0.6045700000000238,2.343746596754928,-0.6625000000000227,-0.4448899999999867,0.7980183970937126,-0.04004000000009,-3.433239999999984,3.433473474369636,0.246499999999969,-0.057089999999988,0.2530247381185946,0.4847499999999627,-0.7149100000000033,0.8637585719400812,0.2167299999999841,-0.0490200000000129,0.2222045303318417,1.0198900000000322,-1.11238000000003,1.5091603216690177,0.7713699999999335,0.3016500000000235,0.8282538254665122,0.9522799999998596,0.5531900000000292,1.1012975867129489,0.3448000000000775,0.1028599999999926,0.359815535517926,0.7807000000001381,-1.5205100000000016,1.7092229667601064,0.2669000000000778,0.3631000000000028,0.4506408991647824,1.1480700000001889,2.405550000000005,2.665470976656932,-0.2769500000000562,0.1021700000000009,0.2951948702129346,-0.6187000000001035,-1.2352800000000173,1.381559397347856,-0.0530550000000289,-0.9136450000000592,148.672056,0.3986855185387155,92.4488028,0.510212153088355,84.010276,0.7436400041134809,0.0054041999999999,0.764104704,0.0123638011153586,0,0
13,433.33333333333337,519.7172,85.171165,0.9543671,523.6595,80.16222,0.955985,517.4566,81.993515,0.6784717,537.2255,73.7368,0.9471267,520.2548,78.460724,0.23948862,563.1861,89.074036,0.9982785,524.5856,97.3493,0.97718936,584.16815,121.42459,0.9950966,529.1364,132.40591,0.859329,562.4956,147.68445,0.987445,525.3186,156.8589,0.83792585,568.68854,149.06934,0.99800736,545.10126,149.41138,0.9929041,546.3048,183.27808,0.99512297,524.87024,179.92136,0.9833196,562.5622,215.47522,0.9799555,552.22394,207.12163,0.9592033,1.02709543,0.13485935,0.68412255,0.7541315,107.49997490809834,163.72978640624075,120.01142973772964,101.29069390194412,13.071640615074646,149.24036,93.211668,85.171165,66.71154999999999,141.73842000000002,0.4706666656036755,167.89995198703852,0.9023068388235294,-0.7313499999999067,0.6416010000000085,0.972894992124471,-0.2349999999998999,-0.0965829999999812,0.2540733671382133,-0.890700000000038,0.6238700000000108,1.0874558689436924,-0.3921300000000656,-0.1450859999999778,0.4181098949989643,-0.933840000000032,0.7295150000000064,1.1850102450295816,-0.1870800000000372,0.0111750000000085,0.1874134654314201,-1.3228000000000293,0.3580900000000042,1.370411722111308,-0.571360000000027,-0.2119599999999906,0.6094089687558157,-1.0979999999999563,0.6318279999999987,1.266811202028109,0.0668000000000574,0.1093970000000013,0.1281793415843909,-1.181100000000015,0.2057360000000017,1.1988846949127492,-0.440900000000056,0.0671419999999898,0.4459830245245306,-0.8630000000000564,0.1525900000000035,0.8763861638000103,-0.1460000000000718,0.0507100000000093,0.1545558284246244,-0.5882000000000289,-0.1517200000000116,0.6074522190263507,-0.4184500000000071,0.51497999999998,0.6635546721258055,-0.7945700000000215,-0.7692299999999932,1.1059187482812758,-0.4627800000000661,-0.1930099999999868,0.5014161829259763,-0.212470000000053,-0.3200099999999963,0.3841222474681988,-1.0106400000000804,0.3791000000000224,1.0794026216385522,-0.8553000000000566,-0.6798100000000034,1.0925565093394949,-0.1928000000000338,-0.2349200000000166,0.3039066409278035,-0.920659999999998,0.2585899999999981,0.9562863711775856,-1.1671599999999671,0.3156799999999862,1.2090973194908317,-0.653069999999957,0.3356400000000121,0.7342714991744892,-0.8697999999999411,0.3846600000000251,0.9510601219691196,-0.4307999999999765,0.5254399999999748,0.6794673160645428,-1.20216999999991,0.2237899999999513,1.2228224208771123,-0.091060000000084,0.7494800000000055,0.7549915191576813,-0.4358600000001615,0.6466200000000129,0.7798021313129103,-0.0609000000000605,-0.1947600000000022,0.2040594707432327,-0.3278000000001384,-0.5578600000000051,0.6470398902696004,-0.4985599999999976,0.0189100000000053,0.4989184920405314,-0.2216099999999414,-0.0832599999999956,0.2367344919946676,0.2971150000000193,0.3501700000000483,148.849541,0.4181588120618504,92.657909,0.5754785202606119,84.432333,0.6647653292951552,0.0,0.761009572,0.0125771904413022,0,0
14,466.6666666666667,519.28064,86.05409,0.9458185,523.07806,81.08873,0.9403753,517.4323,83.048904,0.6875464,536.4915,75.1613,0.91683644,521.1969,79.57707,0.25820157,562.4506,90.35713,0.99587613,525.27716,96.92396,0.9735677,583.57184,122.863434,0.9893889,527.4598,129.95543,0.87640125,563.26373,148.97394,0.9789231,522.6244,155.27411,0.8605602,568.96436,148.01138,0.9945538,546.32117,148.01004,0.9867682,543.91187,184.5904,0.9857859,523.7481,182.15993,0.96635544,562.5393,216.1742,0.9466908,550.3393,210.0232,0.9148402,0.99380558,0.07590444,0.66078623,0.73841019,109.1109699829943,165.40729350427296,115.0621009966733,102.87350529746556,14.220917471032282,148.01071000000002,93.640545,86.05409,66.1395399999999,141.0129,0.4690318370231948,169.98183944397235,0.895205284117647,-0.4365600000000995,0.8829250000000002,0.9849574555406376,0.2947899999998071,0.2413239999999916,0.3809703624639091,-0.5814399999999296,0.9265099999999932,1.0938433405656889,0.3092600000001084,0.3026399999999825,0.432703960231538,-0.0242999999999256,1.055388999999991,1.0556687128644942,0.9095400000001064,0.3258739999999847,0.966155720097016,-0.7340000000000373,1.4244999999999948,1.6024843993000493,0.588799999999992,1.0664099999999903,1.2181607973087831,0.9420999999999822,1.1163460000000072,1.460746658978203,2.0400999999999385,0.4845180000000084,2.096846609154746,-0.7355000000000018,1.2830939999999913,1.478949107588216,0.4456000000000131,1.0773579999999896,1.165872900518744,0.6915599999999813,-0.4253400000000056,0.8118924492812941,1.5545600000000377,-0.5779300000000092,1.6585113440975097,-0.5963100000000168,1.4388440000000031,1.557516507917662,-0.0081099999999878,1.5905640000000147,1.5905846755819215,-1.6766000000000076,-2.450479999999999,2.969147990653214,-0.8820299999999861,-1.6812500000000057,1.898572749040709,0.768130000000042,1.2894900000000007,1.500935760450815,0.980600000000095,1.609499999999997,1.8846927097010209,-2.69419999999991,-1.584789999999998,3.125743588987988,-1.8388999999998528,-0.9049799999999948,2.0495223859229865,0.275820000000067,-1.0579600000000084,1.0933233894873258,1.196480000000065,-1.3165500000000063,1.7790076708379232,1.2199100000000271,-1.4013400000000047,1.8579381592776651,1.872979999999984,-1.7369800000000168,2.554438020543853,-2.3929299999999785,1.3123199999999997,2.7291569700733405,-1.962130000000002,0.7868800000000249,2.1140327034603903,-1.1221399999999448,2.23857000000001,2.504075443052769,-1.0310799999998608,1.4890900000000045,1.8112192011183312,-0.0228999999999359,0.6989800000000059,0.69935502457622,0.0380000000001246,0.8937400000000082,0.8945474764371224,-1.8846399999999903,2.9015699999999924,3.459909882424674,-1.3860799999999929,2.882659999999987,3.198585068745227,-1.2296499999999924,-1.5267650000000117,148.665265,0.5537287369958167,92.9250366,0.6724729422453626,84.901293,0.8329674290348275,-0.0157213099999999,0.752903272,0.011105782164633,0,0
15,500.0,518.723,86.104546,0.94585377,522.4007,81.29938,0.9362406,516.8144,83.21692,0.6981034,535.2151,75.6917,0.9096657,520.1359,80.05301,0.27749598,561.0953,90.607285,0.99591947,523.4213,97.48341,0.9768897,582.52185,121.6582,0.9894909,525.0789,129.89932,0.89476126,564.0265,147.6188,0.97904277,520.61755,154.59354,0.87670296,568.0488,148.22664,0.9951931,545.03375,148.4654,0.98900336,544.6089,185.77112,0.98706543,523.7317,183.19542,0.9711972,562.94354,216.73734,0.95060205,549.8356,210.19687,0.9238887,0.98958441,0.0994864,0.63327394,0.75388585,109.92498823497928,166.83190254995822,117.39335273677736,104.44494021190484,14.73697885338442,148.34602,94.0453475,86.104546,65.70745,141.04564,0.4658594872846868,169.6564303397816,0.8998303735294118,-0.5576399999999921,0.0504559999999969,0.559918009654977,-0.1210799999998926,-0.8324690000000032,0.8412282700676311,-0.6773600000000215,0.2106500000000011,0.7093588598868908,-0.0959200000000919,-0.7158599999999922,0.7222577005473921,-0.6179000000000769,0.1680160000000086,0.6403356824791963,-0.5936000000001513,-0.8873729999999824,1.0676103226969795,-1.276399999999967,0.5304000000000002,1.3822160178495675,-0.5423999999999296,-0.8940999999999946,1.0457593269963763,-1.0610000000000357,0.4759399999999942,1.1628584968086486,-2.0031000000000176,-0.6404060000000129,2.1029810876078003,-1.3553000000000566,0.2501550000000065,1.378192879834008,-0.6198000000000548,-1.0329389999999847,1.2046223548154154,-1.855860000000007,0.5594500000000124,1.9383499792607213,-2.547419999999988,0.984790000000018,2.7311462795866457,-1.0499899999999798,-1.2052340000000044,1.5984580053463926,-0.453679999999963,-2.6440780000000075,2.682717654261068,-2.380899999999997,-0.056110000000018,2.381561072511051,-0.7042999999999893,2.394369999999981,2.495805718981326,0.7627700000000459,-1.3551400000000058,1.5550635011150142,-0.005359999999996,-2.6446300000000065,2.6446354316805247,-2.006849999999986,-0.6805700000000172,2.119108880496697,0.687349999999924,0.9042199999999808,1.1358097687992743,-0.9155600000000276,0.2152600000000006,0.9405248434783904,-1.1913800000000947,1.2732200000000091,1.743695923261923,-1.2874199999999971,0.4553599999999846,1.3655778945193786,-2.5073300000000245,1.8566999999999891,3.1199420858246847,0.697029999999927,1.180720000000008,1.3711128835000848,3.089959999999905,-0.1315999999999917,3.0927611226215665,-0.0163999999999759,1.03549000000001,1.0356198627392292,1.1057399999999689,-1.20308,1.6340325682188623,0.4042399999999588,0.5631399999999758,0.6932074993823563,0.4271399999998948,-0.1358400000000301,0.4482199071883335,-0.5036999999999807,0.1736699999999871,0.5327991731412278,1.3809400000000096,-2.7279000000000053,3.0575208410737047,0.3353099999999926,1.564959999999985,148.707327,0.5096824671989167,93.3684667,0.4684462532695357,85.130149,0.9947114625522728,0.01547566,0.7498572679999999,0.0068022057769799,0,0
16,533.3333333333334,516.62054,85.772675,0.9411813,520.2816,81.1541,0.92918366,514.8905,82.89482,0.6826645,533.0824,76.23471,0.9039871,518.3825,80.15673,0.27520588,559.3867,91.26306,0.99576783,521.6034,97.88536,0.9773891,581.8835,121.35445,0.98921716,523.7247,129.63449,0.90097314,564.44653,147.64114,0.9785472,519.60187,153.93088,0.8821471,567.22125,148.33405,0.99549896,544.03687,148.43694,0.9900446,544.9535,186.77562,0.9879632,523.1615,183.49614,0.97419703,562.75476,218.2119,0.95387155,549.00415,210.72008,0.9307332,1.02560183,0.12748998,0.67061205,0.76543119,109.65978442336196,166.54677056964405,120.396554857608,105.7201137147004,15.708233069691431,148.385495,94.57421,85.772675,66.99300000000005,141.97719,0.4718574830798001,170.05871409873734,0.8993277947058824,-2.102459999999951,-0.3318709999999925,2.1284915814352634,-1.5448199999999588,-0.3823269999999894,1.5914279020203412,-2.119100000000003,-0.1452799999999996,2.12407417205709,-1.4417399999999816,-0.3559300000000007,1.4850253844631571,-1.9239000000000035,-0.322100000000006,1.9506767082220509,-1.3059999999999263,-0.4901160000000146,1.3949371646980455,-2.1327,0.5430100000000095,2.200742863239595,-0.8563000000000329,0.0126100000000093,0.8563928433260384,-1.7533999999999423,0.1037199999999956,1.7564650290853492,-0.6923999999999069,-0.3722199999999986,0.7861078096545473,-1.708599999999933,0.6557749999999913,1.8301242609792263,-0.3532999999998765,0.4056199999999847,0.5379112142351193,-1.8179000000000087,0.4019499999999993,1.8618067065353563,0.0379599999999982,-0.157500000000013,0.1620099120424549,-0.6383499999999458,-0.3037499999999937,0.7069333667326271,0.411640000000034,0.9014840000000106,0.9910201268672836,-1.3541999999999916,-0.2648299999999892,1.37985237213985,1.0267000000000053,-0.2087199999999711,1.0477007819029245,0.420029999999997,0.022340000000014,0.4206236756294135,-0.3427400000000489,1.3774800000000198,1.4194794320454551,-1.0156800000000883,-0.6626599999999883,1.2127341580083264,0.9911699999998972,0.0179100000000289,0.9913317996512556,-0.8275499999999738,0.1074099999999873,0.8344914083440008,0.0880100000000538,-0.1078500000000133,0.1392026673595458,-0.9968800000000329,-0.0284599999999954,0.9972861705649312,0.2905399999999645,-0.4838199999999801,0.5643538641667657,0.344600000000014,1.0045000000000073,1.0619648817169165,-0.352429999999913,-0.1762200000000007,0.3940309547484041,-0.5701999999999998,0.3007199999999841,0.6446398672126866,-0.5538000000000238,-0.7347700000000259,0.9200985778165643,-0.1887799999999515,1.4745600000000252,1.4865951304911689,-0.5930199999999104,0.9114200000000494,1.087363387649218,-0.831450000000018,0.523210000000006,0.9823735575635352,-0.3277500000000373,0.3495400000000188,0.4791641410832384,0.0394749999999817,-0.2958350000000109,148.585166,0.4961246721767499,93.7008551,0.6267090589239566,85.526408,0.6695585905731988,0.01154534,0.753198046,0.009624788884492,0,0
17,566.6666666666666,514.4188,86.12242,0.9460888,518.25977,81.53043,0.9349209,512.63245,83.20856,0.7051855,531.26746,76.79822,0.90887123,515.94135,80.57384,0.28798282,557.98615,91.89532,0.99595886,519.4812,98.833244,0.9785244,581.4882,121.353836,0.9891912,522.77234,130.55661,0.90303624,564.48395,147.15167,0.978309,519.3816,154.27563,0.8830364,566.9591,149.04816,0.9954661,543.2861,149.29732,0.99006313,545.066,187.45203,0.9876073,522.4209,184.21973,0.97374254,562.88745,218.11462,0.95244306,549.01776,210.77655,0.92917585,0.96587212,0.06386781,0.63425652,0.72563663,108.02681337139188,165.94147180657882,120.14795409710388,104.09965904379288,16.93963675155118,149.17274,95.364282,86.12242,68.85575000000006,141.3164,0.4872452844309279,169.78588985223757,0.9023296076470588,-2.2017399999999725,0.3497449999999986,2.2293453282578,-0.0992800000000215,0.6816159999999911,0.6888083114016498,-2.0218300000000227,0.3763299999999958,2.056555571289064,0.0972699999999804,0.5216099999999955,0.5306019647532333,-2.2580500000000256,0.3137400000000099,2.279741781452479,-0.3341500000000224,0.635840000000016,0.7182957107626602,-1.814939999999979,0.5635099999999937,1.9004080413689888,0.3177600000000211,0.0204999999999841,0.3184205828774465,-2.4411499999999933,0.4171100000000081,2.4765286339148136,-0.6877500000000509,0.3133900000000125,0.7557865800608514,-1.4005500000000666,0.6322600000000023,1.5366499308886814,0.3080499999998665,-0.023514999999989,0.3089462052282197,-2.1222000000000207,0.9478839999999876,2.324266963465269,-0.304300000000012,0.5459339999999884,0.6250139377293874,-0.3953000000000202,-0.0006139999999987,0.3953004768476961,0.2430499999999256,0.3031359999999949,0.3885418085559915,-0.9523599999999988,0.9221200000000068,1.3256299875908095,0.4018399999999928,1.186949999999996,1.2531263655753095,0.0374199999999973,-0.4894700000000114,0.4908982962895786,-0.3826099999999997,-0.5118100000000254,0.6390147793283233,-0.220269999999914,0.3447500000000048,0.4091105417854268,0.7954100000001745,1.007409999999993,1.2835700121926592,-0.2621500000000196,0.7141100000000051,0.7607073777741462,0.5653999999999542,0.6067000000000178,0.8293142046293248,-0.7507699999999886,0.8603800000000206,1.1418884960012594,0.2461100000000442,0.8888400000000161,0.9222834042202268,0.1125000000000682,0.6764100000000042,0.6857016392717907,-0.2320999999999458,-0.3280900000000031,0.4018873699184597,-0.7406000000000859,0.7235900000000015,1.0354085416395449,-0.170400000000086,0.4228700000000174,0.4559113915006336,0.1326899999999113,-0.097280000000012,0.1645297374336287,0.3214699999998629,-1.5718400000000372,1.604376497739863,0.0136099999999714,0.0564699999999902,0.0580869434554627,0.8450599999999895,-0.4667400000000157,0.9653872959595008,0.7872450000000129,0.7477700000000311,148.631065,0.5456756833504564,94.1672105,0.8372450922634849,85.84497920000001,0.4022838305544391,-0.03979456,0.7474990719999999,0.0155476287305791,0,0
18,600.0,513.35596,87.029335,0.952258,517.3053,82.37175,0.94102484,511.27264,84.08376,0.7416223,530.234,77.37959,0.9103297,513.9918,81.274994,0.31585804,556.9044,92.35404,0.99589914,517.87036,99.49775,0.98001045,580.4472,122.17987,0.98829436,521.6493,131.54527,0.90693015,562.66907,147.77158,0.97685355,518.2355,155.44286,0.8860379,566.68384,149.173,0.99512106,542.65204,149.5809,0.9898067,545.0686,187.2799,0.9867465,522.0584,184.37582,0.97317684,562.8408,217.82668,0.9502806,548.98303,211.1268,0.9280249,0.9357734,0.05232248,0.60453343,0.71237177,106.927403966124,165.14515107334367,120.24598637923684,104.1951453504466,17.915862079443038,149.37695000000002,95.925895,87.029335,69.17455999999993,140.44709,0.4925310984191187,169.6289381212569,0.9069573547058823,-1.062840000000051,0.906914999999998,1.3971841978869874,1.1388999999999214,0.5571699999999993,1.2678847025261486,-0.9544700000000148,0.8413200000000103,1.272333416719079,1.067360000000008,0.4649900000000144,1.1642478557850258,-1.359809999999925,0.8751999999999924,1.61711418152825,0.8982400000001007,0.5614599999999825,1.0592792026657378,-1.033459999999991,0.5813699999999926,1.185761632243164,0.7814799999999877,0.0178599999999988,0.7816840602186927,-1.9495500000000447,0.7011540000000025,2.071801663822138,0.4915999999999485,0.2840439999999944,0.5677601200647561,-1.0817499999999427,0.4587199999999996,1.1749923833369629,0.3188000000001239,-0.1735400000000027,0.3629732381320693,-1.6108399999999392,0.6645060000000029,1.7425193627721351,0.5113600000000815,-0.2833779999999848,0.584629917541067,-1.0410000000000537,0.8260339999999928,1.3289142820950115,-0.6457000000000335,0.8266479999999916,1.0489401345663294,-1.1230399999999463,0.9886599999999816,1.4962177104953152,-0.1706799999999475,0.0665399999999749,0.1831917956677611,-1.8148800000000165,0.6199100000000044,1.917831541741888,-1.8523000000000136,1.1093800000000158,2.1591061285634123,-1.1461000000000467,1.167229999999989,1.6358395651469255,-0.9258300000001328,0.8224799999999846,1.2383999916425308,-0.2752600000000029,0.124840000000006,0.3022467422487844,-0.0131099999999833,-0.5892699999999991,0.5894158167202492,-0.6340599999999768,0.2835800000000006,0.6945859917965311,0.1167100000000118,-0.57680000000002,0.5884891367731657,0.0025999999999157,-0.1721300000000099,0.1721496352014809,-0.1099000000001524,-0.8485400000000141,0.8556273380392058,-0.3624999999999545,0.156090000000006,0.3946775115204424,0.3781000000001313,-0.5674999999999955,0.6819207138664246,-0.0466499999999996,-0.2879399999999918,0.2916944738934821,-0.179339999999911,-0.1906599999999798,0.2617519268314187,-0.0347299999999677,0.3502500000000168,0.351967662435073,-0.0483399999999392,0.2937800000000266,0.2977304888653658,0.2042100000000175,-0.5830349999999953,148.658383,0.5857517554775137,94.7100559,0.9368059347865678,86.21661320000001,0.4757738581495851,-0.01326486,0.739147126,0.0212607518168169,0,0
19,633.3333333333333,511.92172,87.96309,0.95053273,515.1447,82.73417,0.9567752,509.4418,84.88077,0.6786064,528.3664,77.45798,0.95162815,512.32886,82.766716,0.24434355,554.89734,92.45342,0.99871683,517.2255,100.55403,0.9776848,577.86115,119.88301,0.9963654,520.05884,130.54172,0.86087227,562.8837,148.26448,0.9875674,518.137,154.57501,0.815405,565.5658,148.77036,0.99871576,542.05176,149.6904,0.9949816,546.8188,183.87138,0.99591595,524.7925,179.41208,0.9843407,564.0756,217.18802,0.9802847,551.7295,205.39746,0.95584166,0.91422204,0.03954892,0.57407339,0.71040661,112.24275172911987,170.0305494576494,124.5113994246362,103.82628812557232,18.60281433757131,149.23038000000005,96.503725,87.96309,68.41934999999995,139.73003999999997,0.4896538318485139,167.86442712878232,0.9016810647058824,-1.4342399999999884,0.9337549999999908,1.7114154310467549,-0.3713999999999373,0.0268399999999928,0.3723685615085584,-2.160600000000045,0.3624200000000002,2.1907853880287305,-1.20613000000003,-0.4789000000000101,1.2977267766753071,-1.8308400000000236,0.7970100000000002,1.996797447339135,-0.4710300000000984,-0.0781899999999922,0.4774755878577369,-1.8676000000000383,0.078390000000013,1.869244433481118,-0.8341400000000476,-0.5029799999999796,0.974052575583094,-1.6629400000000487,1.4917219999999958,2.233965973081092,0.286609999999996,0.7905679999999933,0.8409179833515199,-2.007060000000024,0.0993799999999964,2.0095189046137625,-0.9253100000000812,-0.3593400000000031,0.9926347927108704,-0.6448599999999942,1.056280000000001,1.2375669105143343,0.965979999999945,0.391773999999998,1.0424031021998603,-2.58605,-2.2968599999999952,3.458788872148744,-1.5450499999999463,-3.122893999999988,3.4841995404591515,-1.590460000000007,-1.00354999999999,1.8806051191305428,-0.467420000000061,-1.992209999999972,2.0463093951062103,0.2146299999999428,0.4928999999999917,0.537602498971096,2.0295099999999597,-0.1270100000000127,2.0334803614000894,-0.0985000000000582,-0.8678500000000042,0.8734219326877581,1.0475999999999883,-2.0350799999999936,2.2888897672015465,-1.1180400000000643,-0.402639999999991,1.188331776567528,-0.8427800000000616,-0.5274799999999971,0.994240050893194,-0.6002800000001116,0.109499999999997,0.6101854868809429,0.0337799999998651,-0.1740800000000035,0.1773271970116037,1.7502000000000637,-3.40852000000001,3.831606533870654,1.7476000000001477,-3.23639,3.678087273583991,2.734100000000012,-4.963740000000001,5.666923115553985,3.0965999999999667,-5.119830000000007,5.983443054705198,1.2348000000000638,-0.6386600000000158,1.3901861873864874,1.2814500000000637,-0.3507200000000239,1.3285776683732793,2.746470000000045,-5.729340000000008,6.3536158442654,2.781200000000013,-6.0795900000000245,6.685543209650235,-0.1465699999999969,-0.3507800000000145,148.902317,0.495631351782727,95.2826919,0.9930076498196456,86.59841320000001,0.8944767015962611,-0.0019651599999999,0.73354641,0.0248832893624417,0,0
20,666.6666666666666,509.39166,88.35667,0.95294935,512.8297,83.08712,0.9588311,506.90503,85.259735,0.6949346,526.4547,78.42555,0.9519597,509.8065,83.67064,0.25157896,552.96783,93.94704,0.99861753,515.29895,102.31875,0.9775099,576.247,120.500015,0.9959644,519.0189,131.70314,0.859014,562.28143,148.71686,0.9865674,517.65454,153.93155,0.81410867,565.03564,150.19254,0.998456,541.41705,151.28766,0.9941936,545.5519,184.18681,0.9949668,523.3004,179.9544,0.98136866,563.5243,217.18117,0.97580624,551.5733,205.6434,0.94716257,0.94303339,0.07467621,0.61878086,0.70770451,112.4262133450638,169.27259898916714,121.60328947072496,99.96671084738384,19.9475699282572,150.74009999999998,98.132895,88.35667,69.34196999999995,138.75562000000002,0.4997417005542423,167.46996347734117,0.9019993811764706,-2.530059999999992,0.39358,2.560489957019937,-1.0958200000000031,-0.5401749999999907,1.2217243973273997,-2.314999999999941,0.3529499999999927,2.341751204227238,-0.1543999999998959,-0.0094700000000074,0.1546901448055693,-2.53676999999999,0.378965000000008,2.5649203699384038,-0.7059299999999666,-0.4180449999999922,0.8204259789432233,-1.911699999999996,0.9675699999999948,2.142612562947388,-0.0440999999999576,0.8891799999999819,0.8902729257929638,-2.522359999999935,0.9039240000000036,2.679436240587874,-0.8594199999998864,-0.5877979999999923,1.0412056594178671,-1.9295099999999368,1.493620000000007,2.440063430425483,0.0775500000000875,1.3942400000000106,1.3963950659108055,-1.92655000000002,1.764719999999997,2.612629246735952,-1.281690000000026,0.708439999999996,1.4644509174772848,-1.614149999999995,0.617005000000006,1.7280553788941462,0.9719000000000052,2.9138650000000013,3.071676878876588,-1.0399400000000014,1.1614199999999926,1.558964919425702,0.5505200000000059,2.1649699999999825,2.2338682528967397,-0.6022699999999759,0.4523800000000051,0.7532441949991886,-0.8168999999999187,-0.0405199999999865,0.8179043222772857,-0.4824599999999464,-0.6434600000000046,0.804244007251502,-0.3839599999998881,0.2243899999999996,0.4447203095203927,-0.5301600000000235,1.4221799999999971,1.517783112964437,0.587880000000041,1.8248199999999883,1.9171778547646552,-0.6347099999999273,1.5972599999999773,1.7187484666756316,-0.0344299999998156,1.4877599999999802,1.4881583391897275,-1.2668999999999642,0.3154300000000205,1.3055771501140492,-3.017100000000028,3.7239500000000314,4.792775397668912,-1.4921000000000504,0.5423199999999895,1.5875998842278047,-4.226200000000063,5.506059999999991,6.940998715141823,-0.5512999999999693,-0.0068499999999858,0.5513425545883122,-1.786100000000033,0.63181000000003,1.8945545877857823,-0.1562000000000125,0.2459400000000187,0.2913501735026308,-2.9026700000000574,5.975280000000026,6.643001144610819,1.5097199999999589,1.656289999999956,149.381133,0.8520941762915142,96.1002014,1.3412013648673626,87.048838,1.121773589013092,-0.0027021,0.724310142,0.0240014588162745,0,0
21,700.0,508.32184,88.088806,0.9599435,511.97702,82.620674,0.96336925,505.2845,85.202225,0.7447587,525.6829,78.8649,0.9519237,507.2707,84.91269,0.2899576,551.5258,95.332596,0.9985239,513.5306,104.85505,0.97975165,574.8275,121.57332,0.99536574,517.50757,133.7472,0.8680974,559.6726,150.48926,0.98504895,516.3112,155.1765,0.8228443,564.85364,150.38303,0.9981018,540.8654,152.32323,0.9934535,544.6204,183.9456,0.9934695,522.5026,182.09106,0.9777231,563.60834,215.91342,0.96832776,551.88806,207.53224,0.9343402,1.1551816,0.2773337,0.70745887,0.87007615,110.7358799435866,168.96712348125752,118.20721040073298,99.21609933610728,21.635094209336074,151.35313,100.093823,88.088806,69.543,137.04852,0.5074334220651677,165.9301900452075,0.9073529735294116,-1.0698199999999929,-0.2678639999999888,1.1028444835496882,1.4602399999999989,-0.6614439999999888,1.6030623889094215,-0.8526800000000208,-0.4664460000000048,0.9719233783154102,1.46231999999992,-0.8193959999999976,1.6762426993773194,-1.620530000000031,-0.0575100000000077,1.6215501475440408,0.9162399999999592,-0.4364750000000157,1.01489219290767,-0.7717999999999847,0.4393500000000045,0.8880898955060689,1.1399000000000117,-0.5282199999999904,1.256339276787929,-2.535800000000052,1.242049999999992,2.8236447798014965,-0.0134400000001164,0.3381259999999884,0.3383930044726032,-1.4420300000000452,1.385555999999994,1.999803977902863,0.4874799999998913,-0.108064000000013,0.4993141080481272,-1.7683499999999412,2.5363000000000118,3.091905466294183,0.1582000000000789,0.7715800000000144,0.787631218528092,-1.419499999999971,1.0733049999999906,1.7795965478233815,0.1946500000000242,0.4562999999999846,0.4960829693710472,-1.5113300000000436,2.0440600000000018,2.542105358261168,-0.4713900000000421,0.8826400000000092,1.0006307519260318,-2.608830000000012,1.7724000000000046,3.1539492273814558,-2.006560000000036,1.3200199999999995,2.4018192758823766,-1.343340000000012,1.244950000000017,1.83151927592916,-0.8608800000000656,1.8884100000000217,2.075381098136001,-0.1819999999999026,0.1904899999999827,0.2634586117399809,0.3481600000001208,-1.2316900000000146,1.2799514216172894,-0.5516499999999951,1.035570000000007,1.173338377195602,0.0830599999999321,-0.5616899999999703,0.5677980448187149,-0.9315000000000282,-0.2412099999999952,0.9622237339101808,0.3353999999999359,-0.5566400000000158,0.6498778728345617,-0.7977999999999383,2.136660000000006,2.280745666574844,0.694300000000112,1.5943400000000167,1.738957309884348,0.084039999999959,-1.2677500000000066,1.2705324805371998,0.6353399999999283,-1.2609000000000208,1.411922705249817,0.3147599999999784,1.888839999999988,1.9148865248886,0.4709599999999909,1.642899999999969,1.7090710142062235,0.6130300000000091,-0.8966899999999498,149.97466,1.0050327834701882,97.204124,1.9184904613814888,87.5120642,0.9237901299337518,0.16237164,0.745239134,0.0701265910161665,0,0
22,733.3333333333333,505.46652,90.59732,0.9525999,508.80392,85.0683,0.9566768,503.02115,87.75128,0.7066757,522.5479,80.340324,0.94644266,506.19855,86.551895,0.26297447,549.1211,95.34289,0.9983005,511.74796,106.2776,0.9769602,573.1163,121.36975,0.9950826,516.49066,137.3187,0.86103415,558.319,149.7177,0.98457277,516.5521,156.72546,0.81748676,562.58057,152.35179,0.9978193,538.9177,154.9403,0.99250174,543.4233,185.01877,0.9923017,521.40076,183.80307,0.97392046,562.5041,216.73734,0.9624937,551.0471,208.79053,0.92286974,1.04163286,0.30067002,0.62369377,0.77820475,109.76177088640225,171.49447865515086,118.5812068173212,98.87216727907084,21.031036222159223,153.64604500000002,100.810245,90.59732,70.09515000000005,136.397016,0.5139053004362995,163.6914713653672,0.90004195,-2.855320000000006,2.508513999999991,3.800722929995817,-1.7855000000000132,2.77637799999998,3.3009521427739505,-3.1730999999999767,2.447626,4.007422693686785,-2.320419999999956,2.9140720000000044,3.725072428501736,-2.263350000000002,2.549054999999996,3.408875858039566,-0.642819999999972,2.606565000000004,2.684659876339083,-3.134999999999991,1.4754239999999896,3.464837799923095,-2.363200000000006,1.036073999999985,2.580341755170427,-1.072149999999965,1.639205000000004,1.9586982040439356,1.4636500000000865,0.3971550000000121,1.5165762152049145,-2.404700000000048,0.0102940000000018,2.404722033091607,-0.9626700000000028,-1.3752619999999922,1.6787135245609908,-1.7826400000000715,1.422550000000001,2.280669610465369,-0.0142900000001304,-1.1137500000000102,1.1138416703463856,-1.7111999999999623,-0.2035699999999991,1.7232661387318766,-0.2916999999999916,-1.2768749999999898,1.3097704591358628,-1.016909999999939,3.5715000000000146,3.7134509823208894,0.4944200000001046,1.5274400000000128,1.605466938308025,-1.3536000000000286,-0.7715599999999938,1.5580557735845233,1.2552299999999832,-2.5439599999999984,2.83678247923593,0.2409000000000105,1.548959999999994,1.567580904323597,1.5842400000000223,0.3040099999999768,1.613145516591748,-2.273070000000075,1.9687600000000032,3.007135374821086,-2.0910700000001725,1.7782700000000204,2.744962283493308,-1.9477000000000544,2.6170700000000124,3.262298373064652,-1.3960500000000593,1.5815000000000057,2.109525504112283,-1.1970999999999776,1.0731699999999762,1.607713363413981,-0.2655999999999494,1.3143799999999717,1.3409467343634116,-1.1018400000000383,1.7120099999999925,2.035934582863619,-0.3040400000001,-0.4246500000000139,0.5222719062902701,-1.1042400000000043,0.8239199999999869,1.3777482150233358,-1.1882799999999634,2.091669999999993,2.405637700756264,-0.8409599999999955,1.258289999999988,1.513442250533519,-1.155719999999974,-0.6305499999999995,1.3165416897690474,2.292915000000022,1.679885000000013,150.869321,1.7940362447996303,98.2933166,2.1453327296628304,88.4070442,1.3225259131196694,-0.0918714,0.755752758,0.0703930879016493,0,0
23,766.6666666666667,503.72943,92.33449,0.9559311,507.1341,86.588,0.957467,500.9927,89.68352,0.7392148,520.88116,82.00963,0.942202,503.76587,89.015,0.29165718,546.90924,97.089554,0.99804497,509.6958,109.10101,0.97800034,571.81525,122.81479,0.9941247,515.4372,140.07858,0.8685189,556.48663,150.02231,0.9825649,515.6012,159.08139,0.8251176,560.3938,153.67303,0.9973193,536.5862,157.06966,0.9916169,541.8238,183.98288,0.9905628,519.50995,185.14102,0.9709112,562.62573,214.88895,0.9555037,550.19135,210.47833,0.91359496,1.01415475,0.2719295,0.59298809,0.77648523,106.53022313895492,169.9943834767681,114.5620694957636,98.23776392756884,21.115098901157975,155.37134500000002,103.095282,92.33449,70.82254999999998,132.87932,0.5329839847691574,162.11137411840355,0.90307955,-1.7370900000000231,1.737170000000006,2.4566728062564827,1.1182299999999827,-0.7713439999999849,1.35845864833492,-1.6698200000000156,1.5197000000000005,2.257827921343886,1.503279999999961,-0.9279259999999994,1.7666061869799623,-2.028449999999964,1.9322400000000075,2.801456910270062,0.2349000000000387,-0.6168149999999883,0.6600293586083908,-1.6667400000000043,1.669306000000006,2.3589414467587013,1.4682599999999866,0.1938820000000163,1.4810056237313776,-2.432680000000005,2.4631049999999988,3.4619096209209475,-1.3605300000000398,0.8238999999999947,1.5905511909083907,-2.211860000000001,1.7466640000000098,2.8183611884384234,0.1928400000000465,1.736370000000008,1.7470455181534468,-2.052159999999958,2.8234099999999955,3.490416120421719,-0.2695199999998863,1.4008599999999944,1.4265517060379982,-1.301050000000032,1.445040000000006,1.9444463747041472,0.4101499999999305,1.648610000000005,1.6988637245523726,-1.0534600000000864,2.759879999999981,2.9541014853928225,-0.0365500000001475,-0.8116200000000333,0.8124425683702602,-1.832369999999969,0.3046099999999967,1.857516371125672,-0.4787699999999404,1.0761699999999903,1.1778635667172672,-0.9509000000000468,2.3559300000000007,2.540593823282284,-1.1918000000000577,0.8069700000000068,1.4393011571245775,-2.1867699999999104,1.3212400000000173,2.554924298389221,0.0863000000001648,-0.6475199999999859,0.6532456202685252,-2.331500000000005,2.1293599999999917,3.157541173064888,-0.383799999999951,-0.4877100000000212,0.6206154075592896,-1.5995000000000346,-1.0358899999999949,1.9056411892326688,-0.4024000000000569,-2.109059999999971,2.147104991284759,-1.890809999999988,1.3379500000000064,2.316305821475215,-0.7889699999999493,-0.3740599999999858,0.8731520740970095,0.1216299999999819,-1.8483899999999949,1.8523874996878964,1.2258699999999862,-2.6723099999999818,2.940067685105203,-0.8557499999999436,1.68780000000001,1.8923469297409332,-0.0147899999999481,0.4295100000000218,0.4297645683394772,1.7253000000000045,-0.5676150000000177,152.06820000000002,2.435608692008464,99.727194,2.529030187806537,89.4680752,1.9296445994573743,-0.0017195199999999,0.7685754499999999,0.0662317246907735,0,0
24,800.0,501.50873,93.835655,0.9544938,505.4317,89.19255,0.9488677,499.3174,91.1962,0.7225435,518.82935,84.39574,0.9331379,501.40353,89.36342,0.28529996,545.2647,98.82669,0.9980106,505.8008,109.02089,0.98129064,569.1706,125.94643,0.9940766,512.1974,139.85582,0.89741576,551.6958,152.00769,0.9852234,512.1158,160.45909,0.8713276,556.8022,154.14203,0.997938,532.26105,156.39154,0.99399287,542.6071,186.80357,0.99411607,518.1116,186.2647,0.98369527,561.2017,214.28809,0.9756648,547.5338,209.79807,0.9564463,1.00284506,0.24564544,0.56645838,0.79024138,104.76105010570828,168.05349358566335,122.42940947965994,103.30997659316547,20.30640710578594,155.266785,103.92379,93.835655,69.85320000000002,129.89235000000002,0.5377776247963978,165.51613863235198,0.9102082805882352,-2.2206999999999653,1.5011650000000003,2.680485934905245,-0.4836099999999419,-0.2360050000000058,0.53812358443479,-1.7024000000000117,2.6045500000000037,3.1115665608339564,-0.0325799999999958,1.084850000000003,1.085339107790743,-1.675299999999993,1.5126800000000031,2.257173203899068,0.353149999999971,-0.4195600000000041,0.548402695197592,-2.051810000000046,2.386110000000002,3.146973976409751,-0.3850700000000415,0.7168039999999962,0.8136872122111952,-2.362340000000017,0.3484200000000044,2.3878958880152386,0.0703399999999874,-2.1146849999999944,2.115854523549522,-1.6445400000000063,1.7371359999999925,2.392102275007487,0.5673199999999952,-0.0095280000000173,0.5674000045682013,-3.895000000000039,-0.0801200000000079,3.8958239455088703,-1.8428400000000809,-2.9035300000000035,3.438974516698301,-2.644649999999956,3.1316400000000044,4.098944097215744,-1.343599999999924,1.6865999999999983,2.1563581613451395,-3.2397999999999456,-0.2227599999999938,3.247449161665144,-2.186339999999859,-2.982639999999975,3.698137905108358,-4.790830000000028,1.985379999999992,5.185921888468842,-2.958460000000059,1.6807699999999954,3.4025686421438044,-3.485399999999913,1.3777000000000044,3.747808753124872,-2.5344999999998663,-0.9782299999999964,2.7167304214624086,-3.591600000000085,0.4689999999999941,3.6220921523341456,-1.4048300000001746,-0.8522400000000232,1.6431251767593755,-4.325150000000008,-0.6781200000000069,4.377986895469204,-1.9936500000000024,-2.807479999999998,3.4433391167440943,0.7832999999999402,2.820690000000013,2.927430779044994,2.3827999999999747,3.856580000000008,4.533315027262052,-1.3983500000000504,1.1236800000000071,1.79388947956672,0.4924599999999373,-0.214269999999999,0.5370553830844057,-1.424030000000016,-0.6008599999999831,1.54560479440898,-1.545659999999998,1.2475300000000118,1.986302075843456,-2.6575500000000147,-0.6802600000000041,2.743232704328979,-1.8018000000000711,-2.368060000000014,2.9755993351928822,-0.1045600000000206,-1.829860000000025,153.27548099999998,2.157478006108545,101.211207,2.3341576336955625,90.6425882,2.490355498827627,0.0137561499999999,0.7845424040000001,0.0577876411910159,0,0
25,833.3333333333334,498.27194,94.29944,0.9430238,501.96152,89.93374,0.93576014,496.44885,91.83422,0.67307025,514.5197,85.93902,0.92302996,498.63852,90.493,0.2586626,540.86804,99.731155,0.9977812,502.3077,110.17392,0.9789225,565.6357,125.439835,0.9940989,507.23712,140.00635,0.89519835,549.4201,153.76825,0.9851952,507.1461,162.39244,0.8697717,555.1185,153.24168,0.9979594,531.0926,156.08733,0.994021,541.2196,185.45142,0.994105,516.58795,186.39685,0.98346657,561.427,212.66061,0.9754768,546.62335,210.06184,0.9556374,0.87925507,0.25596255,0.5330506,0.65071477,106.28057518845722,170.3844393696404,120.05910865438553,102.66120006782688,23.40523532970539,154.66450500000002,104.9525375,94.29944,69.18685000000005,126.72159,0.5459752316398873,164.8468461893067,0.9032459276470588,-3.236790000000042,0.4637850000000014,3.269848013337206,-1.0160900000000763,-1.0373799999999989,1.4521005999930423,-3.4701799999999707,0.7411900000000031,3.548452035536031,-1.7677799999999593,-1.86336,2.5684930636464363,-2.8685500000000275,0.6380199999999974,2.9386474138453824,-1.1932500000000346,-0.8746600000000058,1.4794849367601188,-4.309650000000033,1.5432799999999958,4.577640907814883,-2.2578399999999874,-0.8428300000000064,2.410021550629777,-2.765009999999961,1.12957999999999,2.9868430284331584,-0.4026699999999437,0.7811599999999856,0.878836773525057,-4.396659999999997,0.904465000000002,4.488727669599146,-2.752119999999991,-0.8326709999999906,2.875327022903818,-3.49309999999997,1.153030000000001,3.678481451754215,0.4019000000000687,1.233150000000009,1.2969897966060018,-3.5348999999999933,-0.5065950000000043,3.5710161724675733,-0.8902500000000373,-3.6382350000000088,3.745570581063068,-4.960280000000012,0.1505300000000033,4.96256354712966,-1.720480000000066,0.3732899999999972,1.7605103960216266,-2.2756999999999152,1.760559999999998,2.8772177539420976,2.515130000000113,-0.224819999999994,2.52515800481882,-4.969700000000046,1.93334999999999,5.332519133814751,-1.4843000000001323,0.5556499999999858,1.584895394813291,-1.6836999999999307,-0.9003500000000031,1.9093129163392184,1.9079000000001545,-1.3693499999999972,2.3484466850453685,-1.168450000000007,-0.3042099999999834,1.2074018082643436,3.1567000000000007,0.3739100000000235,3.178767619392777,-1.3874999999999318,-1.3521499999999946,1.9373863508603015,-2.170799999999872,-4.172840000000008,4.703718348880969,-1.523649999999975,0.1321499999999957,1.529370113805001,-0.1252999999999247,-0.9915300000000116,0.999415744772917,0.2253000000000611,-1.6274800000000198,1.6430006818014689,1.6493300000000772,-1.0266200000000367,1.9427398367512645,-0.9104500000000826,0.2637699999999938,0.9478891366611114,1.7470999999999322,0.944029999999998,1.985837619469366,-0.602279999999979,-0.4977199999999584,154.060362,1.6613161442045,102.5751355,2.0623537409403143,91.8311422,2.5441758025761434,-0.13952661,0.773144456,0.0786032020217936,0,0
26,866.6666666666667,496.25104,96.79802,0.94204074,499.75122,92.35212,0.9371137,494.13788,94.362686,0.6651936,511.59216,87.52064,0.92566884,495.96338,92.30382,0.25369483,537.6246,100.50685,0.99790156,500.2082,111.09674,0.9772545,562.34033,125.6371,0.99458814,505.652,140.271,0.8851515,546.0212,153.47394,0.9859503,504.43637,162.60672,0.8602929,553.21106,153.6485,0.9979778,530.1199,156.7071,0.9936621,537.7285,186.3733,0.9941507,515.05066,187.5344,0.9822985,560.0273,213.28421,0.9754267,546.90204,210.54626,0.9532734,0.87029219,0.12159449,0.49939718,0.70230031,105.09583074738264,166.31511832636883,115.0348391439786,99.79654212854192,24.737014256647413,155.1778,105.801795,96.79802,68.20245,125.76357,0.5423068815372617,164.19700000293284,0.90127293,-2.0208999999999837,2.49857999999999,3.2135554805230737,1.2158900000000583,2.0347949999999884,2.3703964191934426,-2.210300000000018,2.418379999999999,3.2762765320406144,1.2598799999999528,1.677189999999996,2.0976806025941768,-2.310969999999997,2.5284659999999946,3.4254521824214623,0.5575800000000299,1.8904459999999967,1.9709595468492047,-2.927539999999965,1.581620000000001,3.327463339542571,1.3821100000000683,0.0383400000000051,1.38264167726139,-2.675140000000056,1.8108200000000068,3.2303936435054355,0.0898699999999053,0.6812400000000167,0.6871423102240217,-3.243439999999964,0.7756949999999989,3.334907160120768,1.153220000000033,-0.1287700000000029,1.1603870394398916,-2.0995000000000346,0.9228200000000016,2.2933593269263643,1.3935999999999351,-0.2302099999999995,1.412486319969089,-3.295370000000048,0.1972650000000015,3.301268985878812,0.2395299999999451,0.7038600000000059,0.743500854404339,-1.5851200000000176,0.2646499999999889,1.6070609935220412,3.375159999999994,0.1141199999999855,3.377088746242828,-3.398900000000026,-0.2943099999999958,3.411618323625926,-1.1232000000001108,-2.054869999999994,2.34180890699908,-2.709729999999979,0.2142800000000022,2.7181892118283244,2.259970000000066,-1.719069999999988,2.8394834153064283,-1.907440000000065,0.4068200000000104,1.950340961473213,-0.2237400000001344,1.3071700000000137,1.32617985073673,-0.972699999999918,0.6197699999999884,1.153369040203449,0.1957500000000891,0.9239799999999718,0.9444877462942454,-3.4910999999999603,0.9218799999999874,3.6107675007399327,-2.103600000000029,2.274029999999982,3.0977968624330483,-1.5372899999999845,1.1375500000000045,1.9124017743664543,-0.0136400000000094,1.0054000000000087,1.0054925209070518,-1.3997000000000526,0.6236000000000104,1.532330594225724,-1.6250000000001137,2.25108000000003,2.776326019472588,0.2786900000000969,0.4844200000000001,0.5588656837738869,1.1891400000001795,0.2206500000000062,1.2094380356597147,0.513294999999971,1.11557499999995,154.825296,0.713061670582834,103.7167299,1.9203803494886895,93.572985,2.3122518896304736,0.05158554,0.739589288,0.06063671885816,0,0
27,900.0,492.45242,100.46828,0.927875,495.54944,95.63304,0.917435,490.44238,97.92079,0.613908,507.176,90.18593,0.9075551,492.98904,95.5621,0.24720074,533.6382,102.01487,0.99630827,497.39667,112.75873,0.9742143,556.54706,126.3109,0.9909418,503.78162,141.185,0.87835974,538.2897,152.34149,0.9784726,503.10345,163.1924,0.8446112,551.4071,154.4596,0.9956381,528.5996,157.30414,0.9885141,533.47534,188.00812,0.98636824,510.3698,188.37903,0.9652283,557.88666,215.12741,0.94245607,542.6727,210.60364,0.9048139,0.75152495,0.23188929,0.49743202,0.51339897,101.63812972708102,165.57560371237392,109.88356189048106,94.13060281950042,26.78992223767177,155.88187,107.3868,100.46828,67.44427999999999,124.94148,0.5398069517040541,163.4874582142917,0.8858764976470589,-3.7986199999999712,3.670259999999999,5.282075574241604,-1.777719999999988,1.1716800000000092,2.129113059656527,-4.201779999999985,3.2809199999999947,5.330984075646807,-1.9914799999999675,0.8625399999999956,2.170246032596273,-3.695499999999981,3.558104,5.129992624245756,-1.3845299999999838,1.0296380000000056,1.7254210303412807,-4.416159999999991,2.665289999999999,5.158123683055682,-1.4886200000000258,1.083669999999998,1.8412849245296263,-2.974339999999984,3.258279999999999,4.41169887843673,-0.2991999999999279,1.4474599999999924,1.4780599079874723,-3.9864000000000033,1.508020000000002,4.262101509865764,-0.7429600000000391,0.732325000000003,1.0432111326213225,-2.8115300000000047,1.661990000000003,3.266023836563358,-0.7120299999999702,0.7391700000000014,1.0263327968061624,-5.793270000000007,0.6738,5.832322327589592,-2.4978999999999587,0.4765349999999984,2.5429490785748725,-1.8703800000000117,0.9140000000000156,2.081758233897508,-0.2852599999999938,0.6493500000000267,0.7092451551473801,-7.731499999999983,-1.1324500000000055,7.813996112905339,-4.332599999999957,-0.8381400000000099,4.41292436141836,-1.3329200000000014,0.5856799999999964,1.455917850979237,1.3768099999999777,0.3713999999999942,1.42602375018789,-1.803959999999961,0.811099999999982,1.977916806036045,0.1034800000001041,0.4042799999999715,0.4173133460602459,-1.5203000000000202,0.5970399999999927,1.6333306008276622,-0.5476000000001022,-0.0227299999999956,0.548071539947215,-4.2531600000000935,1.6348199999999906,4.55653447457613,-0.7620600000001332,0.7129400000000032,1.043560677296825,-4.680859999999996,0.8446299999999951,4.756453529311513,-3.143570000000011,-0.2929200000000094,3.157187747236467,-2.140639999999962,1.843199999999996,2.824840853853509,-0.7409399999999096,1.2195999999999856,1.427030568558302,-4.229340000000093,0.0573800000000233,4.229729223011892,-4.50803000000019,-0.4270399999999767,4.52821130718319,0.7040700000000015,0.1907750000000305,155.272461,0.4358212920932432,105.0320409,1.667557171298048,95.547177,3.1854895967840746,-0.18890134,0.6866281320000001,0.1121981868422125,0,0
28,933.3333333333334,489.69244,103.61543,0.9333019,492.82825,98.75549,0.9247205,487.43304,101.02786,0.63243,504.56946,92.360275,0.91241026,489.55582,97.77723,0.24840496,531.02625,103.71665,0.99661934,494.31763,113.55153,0.9749737,551.9543,129.97562,0.9916453,500.48483,142.40036,0.87964666,531.31384,154.70918,0.9799398,500.17007,166.02756,0.84721816,550.2808,154.6026,0.9961118,527.0744,157.16739,0.98953176,532.4398,187.14128,0.98844564,508.47473,186.97408,0.9695749,558.4337,214.03574,0.9527914,541.9447,209.12071,0.92007345,0.59556067,0.29723098,0.39991078,0.32621714,101.6002069978894,167.1698985850495,107.23949818188431,91.52749960389411,28.827236067893736,155.884995,108.63409,103.61543,71.00066000000004,121.675465,0.5835248660563999,165.0016966916077,0.8904611488235294,-2.7599800000000414,3.1471500000000106,4.185933912868226,1.0386399999999298,-0.5231099999999884,1.1629347022510947,-2.7211899999999787,3.1224500000000006,4.141807457934264,1.4805900000000063,-0.1584699999999941,1.4890465033033782,-3.009340000000009,3.1070700000000078,4.325507047792212,0.6861599999999726,-0.4510339999999928,0.8211255779452714,-2.6065399999999954,2.1743450000000024,3.3943816742707336,1.8096199999999956,-0.4909449999999964,1.875033743009704,-3.4332200000000057,2.215130000000002,4.085804753692967,-0.4588800000000219,-1.0431499999999971,1.1396195755163274,-2.611949999999979,1.7017799999999994,3.117424894187491,1.3744500000000244,0.1937599999999975,1.3880402516137873,-3.079039999999964,0.7927999999999997,3.179468377197637,-0.2675099999999588,-0.8691900000000032,0.9094244642629664,-4.592759999999998,3.664719999999989,5.875680139013687,1.2005100000000084,2.9909199999999885,3.222860019687475,-3.2967899999999872,1.215360000000004,3.5136767400687168,-1.4264099999999758,0.3013599999999883,1.4578968885692585,-6.975860000000012,2.3676900000000103,7.3667210260536,0.7556399999999712,3.500140000000016,3.5807781038763165,-2.93338,2.835160000000002,4.079564982936295,-1.6004599999999982,2.249480000000005,2.760730425449037,-1.1263000000000147,0.1430000000000006,1.1353416622321375,0.6776599999999462,-0.6680999999999813,0.9516200321556404,-1.5252000000000407,-0.1367499999999779,1.5313182564379353,-0.0049000000000205,-0.7337899999999706,0.7338063600841553,-1.035539999999969,-0.8668399999999963,1.35046461530835,3.2176200000001245,-2.501659999999987,4.075706223466153,-1.895069999999976,-1.4049500000000137,2.3590622728957253,2.78579000000002,-2.249580000000009,3.580675369326316,0.5470400000000382,-1.0916699999999937,1.221063532540395,2.6876800000000003,-2.934869999999989,3.9795836087837055,-0.7279999999999518,-1.4829300000000103,1.6519883125797108,3.501340000000141,-1.5403100000000336,3.825171459124557,0.0031250000000113,-0.7009449999999902,155.37519100000003,0.5177869701352243,106.1398025,1.8848760932816688,97.803365,4.180693816228293,-0.18718183,0.5965745140000001,0.1814023477257894,0,0
29,966.6666666666666,485.1927,106.15375,0.87998194,487.13614,101.29828,0.8479958,483.66333,104.18236,0.51041335,496.972,95.67309,0.84252435,487.8605,101.83295,0.21945092,523.85156,107.56447,0.99237627,492.13547,116.84513,0.96655864,543.5272,135.19868,0.9852857,496.64502,145.31856,0.88602984,523.2515,158.54773,0.9694508,495.40393,168.87808,0.85605294,546.13745,159.23659,0.99186313,526.4303,162.32097,0.98335904,526.14343,190.37013,0.97256505,506.94696,191.96922,0.94397867,559.4101,212.99103,0.8991587,542.2734,210.13077,0.8547922,0.568561,0.26603401,0.42840565,0.26259497,103.5788321253094,167.98489654100095,91.50653332793232,83.89708086737248,30.217293323179323,160.77877999999998,112.2048,106.15375,75.74677000000008,117.31794,0.6456537623687079,163.68963874506224,0.8589316082352942,-4.499739999999974,2.538319999999999,5.1663070456564775,-1.739759999999933,-0.6088300000000118,1.8432142649458256,-5.692110000000014,2.5427900000000108,6.234251938781446,-2.970920000000035,-0.5796599999999899,3.0269409247621923,-3.769710000000032,3.1544999999999987,4.915443391404303,-0.7603700000000231,0.0474299999999914,0.7618478468828498,-7.597460000000012,3.3128150000000005,8.288313560418983,-4.990920000000017,1.138469999999998,5.11912066543661,-1.695319999999981,4.055719999999994,4.395790556976059,1.7379000000000246,1.840589999999992,2.53141619614398,-7.174690000000055,3.847819999999999,8.141369377967123,-4.562740000000076,2.1460399999999997,5.042230061113901,-2.1821600000000103,3.293599999999998,3.950901571236625,0.8968799999999533,2.500799999999998,2.656763891353521,-8.427099999999996,5.223060000000004,9.914452590718255,-3.834339999999997,1.5583400000000154,4.138911305065624,-3.83981,2.9181999999999846,4.8228655461354,-0.5430200000000127,1.7028399999999806,1.7873261554623845,-8.062340000000063,3.838549999999998,8.92949004020392,-1.0864800000000514,1.4708599999999876,1.828624600622029,-4.766140000000007,2.8505200000000173,5.553517333186254,-1.8327600000000075,0.0153600000000153,1.8328243634347587,-4.143350000000055,4.633990000000011,6.216205638699588,-3.01705000000004,4.490990000000011,5.410321791039821,-0.6440999999999804,5.153579999999977,5.193674193324004,0.8811000000000604,5.290329999999955,5.363201349837579,-6.296370000000024,3.2288499999999942,7.075997986107703,-5.260830000000055,4.095689999999991,6.667158980030438,-1.5277700000000325,4.995140000000021,5.223552889796398,0.3672999999999433,6.400090000000034,6.410620976013197,0.9764000000000124,-1.0447100000000091,1.429956623153319,0.4293599999999742,0.0469599999999843,0.4319204223001922,0.3287000000000262,1.01006000000001,1.0621981423444673,1.056699999999978,2.49299000000002,2.707695335539073,4.89378499999998,4.8906599999999685,156.47759000000002,2.4588115945435303,107.7960045,2.8447095413648724,100.266984,4.836112003937608,-0.06362217,0.4910452320000001,0.1936366320384144,0,0
30,1000.0,481.41357,111.65541,0.8993856,483.3849,106.89559,0.87553173,479.66803,109.55537,0.55396605,493.19617,99.47533,0.8605912,483.3604,105.23432,0.23014903,519.7685,110.03766,0.99376535,487.90915,118.2903,0.9684955,537.2877,140.98486,0.9874549,491.87946,148.91142,0.8844163,514.81525,161.69398,0.97280425,490.35965,172.16641,0.8556774,543.9612,159.61919,0.99270016,524.28906,162.5027,0.98410046,523.9269,192.54742,0.9749086,505.33264,194.14874,0.94513714,557.2101,212.33319,0.90584654,541.0579,210.04729,0.8585196,0.6453087,0.24859318,0.54435029,0.24146947,103.14742557976668,168.87309086678755,89.41279135847418,83.06794972721526,32.85458702859056,161.060945,114.16398,111.65541,77.54207000000002,112.85786,0.6870772608387468,165.47766417180063,0.8672617535294117,-3.779130000000009,5.501660000000001,6.67458510414693,0.7206099999999651,2.9633400000000023,3.0496987929466024,-3.751239999999996,5.597309999999993,6.738076934385648,1.940870000000018,3.0545199999999824,3.6189872598974375,-3.995299999999986,5.373009999999994,6.6956447449144,-0.2255899999999542,2.218509999999995,2.2299501044193697,-3.775829999999985,3.8022399999999976,5.358537226379963,3.8216300000000274,0.4894249999999971,3.85284215709977,-4.500099999999975,3.40137,5.6409412234927405,-2.804779999999994,-0.6543499999999938,2.8800980488344416,-4.083059999999932,2.4731900000000024,4.77368282772321,3.091630000000123,-1.3746299999999962,3.3834573580585805,-4.226319999999987,1.4451700000000045,4.466575541877681,-2.0441599999999767,-1.8484299999999931,2.755954203266063,-6.239500000000021,5.786180000000002,8.509479375520002,2.187599999999975,0.5631199999999978,2.258915203012253,-4.765559999999994,3.5928600000000017,5.968182729541711,-0.9257499999999936,0.6746600000000171,1.1455038970252398,-8.436249999999973,3.146250000000009,9.003843797234579,-0.3739099999999098,-0.6922999999999888,0.7868214397815537,-5.044280000000015,3.288330000000002,6.021451229338337,-0.2781400000000076,0.4378099999999847,0.5186901345697552,-2.176249999999982,0.3825999999999965,2.209625946285913,1.967100000000073,-4.251390000000015,4.684420918544832,-2.141240000000039,0.1817300000000159,2.14893800061802,-1.4971400000000583,-4.971849999999961,5.192371385224654,-2.2165299999999206,2.1772899999999997,3.107023814681768,4.079840000000104,-1.051559999999995,4.213178474643679,-1.6143199999999638,2.179519999999997,2.712256715873309,-0.0865499999999315,-2.815620000000024,2.816949926232293,-2.200000000000045,-0.6578399999999931,2.296247692562845,-3.176400000000058,0.386870000000016,3.199872709483985,-1.21550000000002,-0.0834800000000086,1.2183633121528448,-1.5442000000000462,-1.0935400000000186,1.8921900992236969,0.2821650000000204,-4.611619999999959,157.75687799999997,2.9034460014750847,109.638293,3.4592326570093506,103.738178,5.643373186664995,-0.0211254999999999,0.409196172,0.1957536318737473,0,0
31,1033.3333333333337,477.37238,113.086624,0.91452974,480.03452,108.46024,0.902076,475.6281,110.91835,0.5872281,490.53888,102.97479,0.8904727,478.86658,108.1142,0.23509814,515.7656,115.01817,0.99513596,484.5195,123.44197,0.9690568,534.39856,143.5763,0.9893939,490.1733,152.3495,0.87115145,510.43402,162.37675,0.97587764,488.4003,174.37735,0.8428718,540.34937,161.39526,0.99337476,521.14514,164.42441,0.983922,519.2512,192.55316,0.97742736,501.79062,195.23605,0.94510037,553.0366,211.57372,0.91439533,540.2152,211.31485,0.8621412,0.75298518,0.0675525,0.70942403,0.24318899,94.99184978014198,164.3318947122649,85.27532611050017,80.5716808079046,35.017429146373125,162.909835,119.23007,113.086624,77.4085,108.59893,0.7127924675427975,164.91204207093145,0.8734854852941176,-4.041189999999972,1.431213999999997,4.287142420062082,-0.2620599999999626,-4.070446000000004,4.078873138811259,-3.3503800000000297,1.5646500000000003,3.6977257560425167,0.400859999999966,-4.032659999999993,4.052534443431656,-4.03992999999997,1.3629800000000074,4.263654405002799,-0.0446299999999837,-4.010029999999986,4.010278349167286,-2.657289999999989,3.499459999999999,4.394019849261031,1.118539999999996,-0.3027799999999985,1.158795693813189,-4.493820000000028,2.87988,5.337427002479776,0.0062799999999469,-0.52149,0.5215278118183145,-4.002900000000068,4.980509999999995,6.389733035902244,0.0801599999998643,2.507319999999993,2.5086010460015244,-3.3896500000000174,5.151669999999996,6.16680070307125,0.8366699999999696,3.7064999999999912,3.799757747396521,-2.8891399999999976,2.5914400000000057,3.8810683082367943,3.3503600000000238,-3.194739999999996,4.629392594844396,-1.7061600000000112,3.4380800000000136,3.838147473977535,3.0593999999999824,-0.1547799999999881,3.063312783311539,-4.381230000000016,0.6827699999999766,4.434112220704401,4.055019999999956,-2.4634800000000325,4.74467289818801,-1.959349999999972,2.2109399999999937,2.954201771392716,3.0849300000000426,-1.0773900000000085,3.267653946947302,-3.611829999999941,1.7760700000000045,4.02489013437629,-1.435579999999959,1.3934700000000078,2.0006620347524726,-3.14391999999998,1.9217099999999905,3.684725538014987,-1.0026799999999412,1.7399799999999743,2.008207554711363,-4.675700000000006,0.0057400000000029,4.675703523278616,-2.4591700000000856,-2.1715499999999963,3.28072347073026,-3.5420200000000364,1.0873100000000022,3.705151645547084,-1.9277000000000728,-1.0922099999999944,2.2156150329198137,-4.17349999999999,-0.7594699999999932,4.242039242027342,-1.9734999999999443,-0.1016300000000001,1.9761151046686984,-0.8427000000000362,1.2675600000000031,1.522120771686685,0.3727999999999838,1.3510400000000118,1.4015309206721127,1.848889999999983,1.5667249999999626,159.30328500000002,3.2274000449063545,112.323948,4.719240339288738,106.9958988,5.328099313828203,0.00171952,0.317373908,0.1148582229310116,0,0
32,1066.6666666666667,473.97986,117.99692,0.90030926,476.1243,113.17258,0.9003965,471.95444,115.84397,0.5240904,485.64496,106.74102,0.90515137,474.29977,112.02775,0.21819194,508.89807,117.0415,0.9975272,482.17908,127.153305,0.9677784,524.14325,146.0364,0.99494344,491.97055,159.05493,0.85459554,501.7273,168.3539,0.9843588,484.01483,178.94626,0.8222104,537.0701,162.19633,0.9976109,519.10126,166.39006,0.9919382,518.623,190.96463,0.9931433,498.3353,193.77776,0.9766717,557.285,210.72575,0.97273076,540.08435,209.2118,0.9440013,1.13669371,0.14615904,0.88776262,0.6946853,107.1390330832849,141.13794304940774,84.40350237313677,73.11843934611692,37.64427221415646,164.293195,122.0974025,117.99692,85.33055999999999,103.98473,0.8206066331027004,159.27084547121402,0.8791558476470589,-3.3925200000000477,4.910296000000002,5.968265975810423,0.6486699999999246,3.4790820000000053,3.5390372040463123,-3.910219999999981,4.7123399999999975,6.123395195804353,-0.5598399999999515,3.147689999999997,3.197088231766513,-3.673660000000041,4.925619999999995,6.144714003108708,0.366269999999929,3.562639999999988,3.5814183618365307,-4.89391999999998,3.7662300000000073,6.175349494506352,-2.236629999999991,0.2667700000000081,2.2524830720340527,-4.566809999999975,3.9135500000000008,6.0142852591642,-0.0729899999999474,1.0336700000000008,1.0362437980514017,-6.867529999999931,2.0233300000000014,7.159387724505431,-2.8646299999998632,-2.957179999999994,4.117161472337365,-2.3404199999999946,3.711335000000005,4.387661479492808,1.0492300000000228,-1.4403349999999904,1.7819788172492457,-10.255310000000009,2.460099999999983,10.546254084085977,-7.366170000000011,-0.1313400000000228,7.367340813651841,1.7972500000000196,6.705430000000007,6.942110561450327,3.5034100000000308,3.2673499999999933,4.79055922107223,-8.706719999999962,5.977150000000023,10.560932500537044,-4.325489999999945,5.294380000000047,6.836689500372239,-4.385469999999998,4.568909999999988,6.333031320702581,-2.426120000000026,2.3579699999999946,3.38320569509158,-3.279269999999997,0.8010699999999815,3.375696206384684,0.332559999999944,-0.9750000000000228,1.030155888009192,-2.0438799999999446,1.9656500000000108,2.8357054460750706,1.1000400000000354,0.0439400000000205,1.1009172199580128,-0.6281999999999925,-1.5885299999999916,1.7082338250075613,4.047500000000014,-1.5942699999999943,4.350167017816683,-3.455319999999972,-1.4582900000000052,3.750446110331386,0.0867000000000643,-2.5456000000000074,2.5470760196743343,4.248399999999947,-0.8479700000000037,4.332199866222651,8.421899999999937,-0.0885000000000104,8.422364980217786,-0.1308500000000094,-2.103049999999996,2.1071167563758744,0.7118500000000267,-3.370609999999999,3.444958953978992,1.3833600000000104,-0.4655299999999727,160.98555,3.1901209912084747,115.2660685,5.407160410671798,110.5016268,5.712192779197886,0.4514963099999999,0.353631174,0.1937361352531968,0,0
33,1100.0,469.07626,120.78563,0.8805279,471.45853,116.20178,0.898489,467.27896,118.95445,0.40672198,481.8932,109.911514,0.9274573,471.31488,115.59735,0.15224805,502.42557,120.41533,0.99799395,478.63928,129.52914,0.9605279,512.4576,150.4756,0.99652004,486.67087,159.84845,0.810157,488.2349,170.28351,0.9880167,477.42038,180.15103,0.77518004,526.97375,168.92586,0.9981407,511.50504,172.86159,0.9917714,509.53647,192.34033,0.99452,492.15933,195.56311,0.9755248,551.61633,211.97203,0.9777427,536.3068,210.77213,0.9457817,1.10194899,0.41784289,0.75830747,0.68166609,110.81886715941708,140.6676253977687,78.3347870552673,68.5722129196134,32.01080263864178,170.89372500000002,124.972235,120.78563,84.33736999999996,102.060516,0.8263466860549018,159.03547027289335,0.8633718329411765,-4.903599999999983,2.7887099999999947,5.641116593733886,-1.5110799999999358,-2.121586000000008,2.6047053426051554,-4.665770000000009,3.029200000000003,5.562864579773635,-0.7555500000000279,-1.6831399999999943,1.844943376393981,-4.675479999999993,3.1104799999999955,5.61562098621336,-1.0018199999999524,-1.8151399999999995,2.073252645482432,-3.751760000000047,3.170493999999991,4.911999114580162,1.142159999999933,-0.5957360000000165,1.2881889796516142,-2.984890000000007,3.5696000000000083,4.65312932037141,1.5819199999999682,-0.3439499999999924,1.6188800106554824,-6.472500000000025,3.373829999999998,7.299040013515498,0.395029999999906,1.3504999999999967,1.4070888212546917,-3.539800000000014,2.375835000000009,4.263188476624642,-1.1993800000000192,-1.335499999999996,1.795013268586067,-11.68565000000001,4.4392,12.500436494878898,-1.430340000000001,1.9791000000000167,2.4418659516034187,-5.299680000000024,0.7935200000000009,5.358757513901916,-7.096930000000043,-5.911910000000006,9.236725354420834,-13.492400000000032,1.9296099999999967,13.629682773714906,-4.78568000000007,-4.047540000000026,6.267799702766585,-6.594449999999995,1.2047699999999963,6.703599149367444,-2.208979999999997,-3.364139999999992,4.024553463429196,-10.09635000000003,6.729530000000011,12.133542654286948,-6.817080000000033,5.92846000000003,9.03433548735051,-7.596220000000017,6.471530000000001,9.979141186960945,-5.552340000000072,4.505879999999991,7.150624731448345,-9.08653000000004,1.3756999999999948,9.190080409381666,-8.458330000000046,2.9642299999999864,8.962700814029256,-6.175970000000007,1.785349999999994,6.428847491067124,-2.7206500000000347,3.243639999999999,4.233572589681224,-5.66867000000002,1.2462799999999843,5.804053187842113,-9.917069999999969,2.094249999999988,10.135786128732162,-3.7775500000000193,1.5603299999999931,4.08711557353106,-3.64670000000001,3.663379999999989,5.169020595277213,6.60053000000002,5.21717000000001,163.987296,4.117382755896507,118.53369750000002,5.333597934790388,113.9356668,5.6985622578893,-0.0130192099999999,0.4247209639999999,0.2406872171798563,0,0
34,1133.3333333333333,465.7285,127.34769,0.8526161,467.6259,122.44327,0.8905937,463.87534,125.78107,0.32384655,477.38766,114.03224,0.9286417,467.84027,120.89339,0.10934322,497.38257,122.99191,0.99797624,475.02988,132.59415,0.9378279,504.87448,155.86873,0.99719644,480.93362,163.20154,0.73023623,475.73743,177.72548,0.98975533,469.35715,185.73994,0.7137037,523.6476,170.13293,0.9979253,508.97357,175.0968,0.98840463,505.08997,191.6145,0.99384004,488.41403,199.17123,0.9649572,553.52637,208.98236,0.9745175,534.8283,213.71072,0.9270047,1.08569074,0.65587332,0.61337666,0.61018327,114.03763618670638,141.89598166599907,68.90305252276673,66.89611735320076,33.88708654157959,172.614865,127.79303000000002,127.34769,89.65103000000005,99.67848,0.8994020484722278,156.75266918774918,0.842258028235294,-3.347759999999994,6.562060000000002,7.366690468670446,1.5558399999999892,3.773350000000008,4.081520345177765,-3.832629999999994,6.241489999999999,7.324291783988397,0.8331400000000144,3.212289999999996,3.318573383805155,-3.403619999999989,6.8266200000000055,7.628064612259128,1.2718600000000038,3.71614000000001,3.9277632768791046,-4.505539999999996,4.120726000000005,6.105757402540328,-0.7537799999999493,0.950232000000014,1.2128994773780517,-3.474610000000041,5.296039999999991,6.334110382184715,-0.4897200000000339,1.7264399999999824,1.7945530786243054,-5.043000000000006,2.576580000000007,5.663092220368665,1.4295000000000186,-0.7972499999999911,1.6367888723045618,-3.6093999999999937,3.065010000000001,4.73519320198236,-0.0695999999999799,0.6891749999999917,0.6926805473123854,-7.583119999999951,5.3931300000000135,9.305351155722144,4.102530000000058,0.953930000000014,4.211975171555562,-5.73724999999996,3.3530899999999804,6.6452426675479215,-0.4375699999999369,2.5595699999999795,2.5967029267515067,-12.497469999999964,7.441969999999998,14.54543481240073,0.9949300000000676,5.512360000000001,5.601428253088684,-8.063230000000033,5.588909999999999,9.810789622706244,-1.468780000000038,4.384140000000002,4.623634742061718,-3.326149999999984,1.2070699999999874,3.538402437174136,6.770200000000045,-5.522460000000024,8.736885743306987,-2.531470000000013,2.235209999999995,3.3770555377429083,5.064750000000004,-4.236320000000006,6.602885710422383,-4.446500000000015,-0.725830000000002,4.505351422353215,4.640030000000024,-2.101529999999997,5.093751735391137,-3.745299999999986,3.6081200000000138,5.200557857038031,2.4306700000000205,1.82277000000002,3.0381980056935345,1.9100400000000943,-2.9896699999999896,3.547728781981551,7.578710000000115,-4.235949999999974,8.68217240479602,-1.47849999999994,2.938590000000005,3.2895704032745448,2.2990500000000798,1.3782600000000116,2.6805282184861245,1.7211399999999912,-4.879390000000029,166.354513,5.097380536517634,121.6513435,5.264759718958496,118.1744548,6.312328530713874,-0.0714828199999999,0.494238624,0.2322010173384825,0,0
35,1166.6666666666667,459.84128,128.24742,0.9047588,462.44012,122.70091,0.9378563,458.4661,126.466354,0.4694745,473.25906,117.33227,0.94454736,462.57986,124.096985,0.13992755,490.6435,129.77834,0.99797446,472.09848,139.70776,0.9267133,493.12283,160.92332,0.99628395,476.3504,169.57951,0.6416127,467.25,185.93396,0.98496336,467.89444,189.38995,0.627951,521.82544,172.13564,0.99641895,507.09558,178.08478,0.97988874,502.75067,191.3168,0.9909752,484.72446,201.72821,0.9490124,556.9979,208.69447,0.9669011,531.85034,217.12442,0.9050408,1.43300757,0.19160344,0.98209047,1.02581536,129.47775554615555,148.7840801652059,62.92178810080191,64.67625264554499,39.341949084678994,175.11021,134.74304999999998,128.24742,98.53179999999998,99.79215,0.987370239168409,151.83440387104912,0.8447235570588235,-5.887220000000013,0.8997300000000052,5.955574984944793,-2.53946000000002,-5.662329999999997,6.2057101221778055,-5.185780000000023,0.257639999999995,5.192176092738018,-1.3531500000000278,-5.983850000000004,6.134938935718931,-5.409240000000011,0.6852839999999958,5.452475725599896,-2.0056200000000217,-6.14133600000001,6.460535538892748,-4.128600000000006,3.3000299999999925,5.285407832977508,0.3769399999999905,-0.8206960000000123,0.9031199743201416,-5.260409999999979,3.203595000000007,6.15913421611551,-1.785799999999938,-2.092444999999984,2.7508921676475637,-6.73906999999997,6.7864299999999815,9.564031399456995,-1.696069999999963,4.209849999999975,4.538666155094431,-2.9313999999999965,7.113609999999994,7.693929632645459,0.6779999999999973,4.048599999999993,4.104978192390301,-11.751649999999984,5.05458999999999,12.792582139294613,-4.1685300000000325,-0.3385400000000231,4.182254379219452,-4.58322000000004,6.377970000000005,7.853942124137434,1.1540299999999206,3.0248800000000244,3.237542934896766,-8.487430000000018,8.208480000000009,11.807438838092724,4.010039999999947,0.7665100000000109,4.082641103709655,-1.4627100000000155,3.650010000000009,3.932186865371496,6.600520000000017,-1.9388999999999896,6.879403860829817,-1.8221600000000533,2.0027100000000075,2.7076030746215785,1.5039899999999309,0.7956400000000201,1.7014784540803989,-1.8779900000000112,2.987979999999993,3.529145919411664,0.6534800000000018,0.7527699999999982,0.9968444127846632,-2.33929999999998,-0.2976999999999918,2.3581666141305413,2.1072000000000344,0.4281300000000101,2.150252807671729,-3.6895700000000033,2.5569799999999816,4.488994709876581,0.0557299999999827,-1.0511400000000322,1.0526163273007243,3.471529999999916,-0.2878900000000044,3.483446740370724,1.5614899999998215,2.701779999999985,3.1205554294867706,-2.977960000000053,3.4136999999999773,4.530076539265111,-1.4994600000001128,0.4751099999999724,1.5729303238542742,2.495344999999986,0.7742049999999949,169.16436600000003,5.317357231591046,125.7671575,5.947758445025774,121.4928568,6.389242708777021,0.4156320899999999,0.651107802,0.2789763143273388,0,0
36,1200.0,453.2404,134.07628,0.8694945,456.1179,129.25967,0.88783556,452.4123,131.92703,0.43335524,468.46436,124.2982,0.89691323,459.05945,128.95705,0.15968384,483.2852,135.78697,0.99283737,469.56805,142.34967,0.93815494,482.14005,173.2505,0.9862359,473.86533,176.43747,0.73208016,458.01413,192.48178,0.96022606,460.69907,201.25035,0.6726319,516.4045,176.08427,0.9884946,506.11978,180.70216,0.96595484,502.35825,194.7023,0.9660708,485.14377,203.14545,0.89917994,550.55835,205.62054,0.9010086,527.0594,213.76776,0.81988794,1.67341493,0.2368022,1.17737859,1.16534197,130.30990690653564,144.86350261806822,65.73070977234089,61.15606017684106,41.53576730336031,178.393215,139.06832,134.07628,98.14605,89.46956000000002,1.0969769931027156,154.43213546113833,0.8276497305882352,-6.600879999999961,5.828859999999992,8.806090260382264,-0.7136599999999476,4.9291299999999865,4.980525389203411,-6.322219999999959,6.558760000000007,9.109763908356769,-1.1364399999999364,6.301120000000012,6.402781358753398,-6.053799999999967,5.460676000000007,8.152758846977855,-0.6445599999999558,4.775392000000011,4.818695502650488,-4.7946999999999775,6.96593,8.456555377628634,-0.6660999999999717,3.665900000000008,3.725924317535183,-3.52040999999997,4.860065000000006,6.001126425290909,1.740000000000009,1.6564699999999988,2.402393152858213,-7.358300000000042,6.008630000000011,9.4999059662136,-0.6192300000000728,-0.7777999999999707,0.994192452646893,-2.530429999999967,2.641909999999996,3.658246086993029,0.4009700000000293,-4.471699999999999,4.489641169503417,-10.982780000000048,12.327179999999998,16.510021904310154,0.7688699999999358,7.272590000000008,7.313120153874133,-2.4850700000000074,6.857959999999991,7.294325758183543,2.0981500000000324,0.4799899999999866,2.1523530896672423,-9.235869999999975,6.547819999999973,11.321450499352952,-0.7484399999999596,-1.6606600000000356,1.821525204107826,-7.1953699999999685,11.860399999999998,13.872362365397594,-5.732659999999953,8.21038999999999,10.013685366921576,-5.420939999999973,3.948630000000009,6.706584030674616,-3.59877999999992,1.945920000000001,4.091188352398289,-0.9757999999999925,2.617379999999997,2.793360647034316,0.9021900000000188,-0.370599999999996,0.9753415586859974,-0.3924200000000155,3.3855000000000075,3.408167206344205,1.9468799999999649,3.6832,4.16608977032419,0.4193099999999958,1.417240000000021,1.4779682316274785,4.108879999999999,-1.139739999999961,4.2640241699596295,-6.43954999999994,-3.07392999999999,7.135604378565223,-9.911079999999856,-2.7860399999999856,10.29521858184648,-4.790939999999978,-3.3566599999999767,5.849809607089759,-1.812979999999925,-6.770359999999954,7.008899415029374,3.283005000000003,0.7876600000000167,172.261042,5.27263303064449,129.7348075,7.017469279194457,125.690788,6.380719930177864,0.1395266100000001,0.835538398,0.244579708108241,0,0
37,1233.3333333333337,448.15836,140.7626,0.7601872,450.09915,136.4609,0.850344,448.708,138.20395,0.22513859,461.10645,131.7333,0.92949224,457.91815,134.12193,0.100602016,475.838,144.01733,0.99651504,469.38974,147.61581,0.9053096,474.88754,179.33142,0.9942246,473.98392,180.82076,0.6024282,453.06982,199.22818,0.9747346,456.72864,205.90579,0.55134916,511.27182,176.88113,0.9962303,505.0274,180.41933,0.9808795,505.1619,201.42209,0.99097615,486.44305,208.0852,0.9552021,553.5513,208.18246,0.97062194,523.96234,215.22699,0.922941,1.55856154,0.03635553,0.9828274,1.20906685,133.90509406510105,137.59968676076997,83.97258935978793,66.88636157768053,47.26325407612213,178.65023000000002,145.81657,140.7626,105.39293999999995,83.49368999999999,1.2622862726238795,150.83610509261607,0.8063044844705882,-5.082040000000006,6.686319999999995,8.398452577945534,1.518839999999955,0.8574600000000032,1.7441653009964015,-6.018750000000011,7.20123000000001,9.385257858759145,0.3034699999999475,0.642470000000003,0.7105362353884367,-3.704299999999989,6.27691999999999,7.288454100589493,2.3494999999999777,0.8162439999999833,2.48724838275872,-7.357910000000004,7.43510000000002,10.460380087649796,-2.5632100000000264,0.4691700000000196,2.605794695097861,-1.141300000000001,5.164879999999982,5.289475503714884,2.3791099999999687,0.3048149999999765,2.398557186377852,-7.447199999999952,8.23035999999999,11.099532132914392,-0.08889999999991,2.22172999999998,2.223507904843132,-0.1783100000000104,5.266140000000007,5.269157898156031,2.3521199999999567,2.6242300000000114,3.5240674776882264,-7.252509999999972,6.08092000000002,9.464485688430187,3.730270000000076,-6.246259999999978,7.275347294837566,0.1185900000000401,4.383290000000017,4.384893933973792,2.603660000000048,-2.474669999999975,3.5920797603199355,-4.94431000000003,6.746400000000023,8.364216301369819,4.291559999999947,0.1985800000000495,4.296151911885748,-3.9704300000000217,4.655439999999999,6.118613893562835,3.224939999999947,-7.20496,7.893775180811755,-5.1326799999999935,0.7968600000000094,5.194168830717764,0.2882599999999797,-3.151769999999999,3.1649246374123954,-1.0923799999999917,-0.2828299999999899,1.1284001388248657,-0.116579999999999,-2.900209999999987,2.902552142597946,2.8036500000000046,6.719789999999989,7.281210817343491,3.19607000000002,3.334289999999981,4.618696055057099,1.2992800000000102,4.939749999999975,5.107764538513868,0.8799700000000144,3.5225099999999543,3.6307607881819615,2.9929499999999507,2.5619199999999864,3.9396933622935215,9.43249999999989,5.6358499999999765,10.987941639474505,-3.097059999999942,1.459229999999991,3.423614002264218,1.6938800000000356,4.815889999999968,5.105098034954844,0.257015000000024,-3.025989999999979,175.132449,3.4392180429954737,134.47864099999998,8.43731072278844,130.243924,7.535964143673244,0.0437248799999998,0.938414708,0.276605842271312,0,0
38,1266.6666666666663,444.05643,148.09007,0.80725,446.02997,144.07765,0.88028425,444.46924,145.52621,0.27246985,456.2035,138.91982,0.9423111,452.66617,140.70207,0.11952102,470.56497,150.32578,0.9975956,464.12445,152.09015,0.9286835,468.6688,185.71123,0.99568826,467.86203,182.41396,0.65225303,447.87143,208.91733,0.97894365,451.8132,207.55237,0.5866982,509.31223,180.61038,0.9968406,503.54294,183.52063,0.98353034,501.42813,205.61288,0.9914341,487.6823,210.11212,0.9557428,551.96594,210.69899,0.9693721,530.8007,214.1424,0.91790557,1.46842063,1.21913832,0.70942403,0.40826272,141.20054446378987,140.41849219581164,78.24512491869677,64.52573062303615,51.70745474457463,182.065505,151.207965,148.09007,107.90951000000008,75.22258000000002,1.4345361268579715,164.67978106158682,0.8221484688235294,-4.101930000000039,7.327470000000005,8.397478569535048,0.9801099999999678,0.6411500000000103,1.1711912459542848,-4.069180000000017,7.616749999999996,8.635572154460878,1.9495699999999945,0.4155199999999865,1.993358988065112,-4.238760000000013,7.32226,8.46064878394087,-0.5344600000000241,1.04534000000001,1.1740456580559575,-4.902949999999976,7.186519999999973,8.699711972985046,2.454960000000028,-0.2485800000000466,2.467513043126654,-5.251980000000003,6.58014,8.419117313590544,-4.110680000000002,1.4152600000000175,4.3474878872746805,-5.273030000000006,6.308450000000022,8.22200625050847,2.174169999999947,-1.9219099999999685,2.9018534141130643,-5.265289999999993,4.474339999999984,6.90963075856444,-5.086979999999983,-0.7918000000000234,5.14823394577207,-6.218740000000025,6.379809999999992,8.909248162650998,1.0337699999999472,0.2988899999999717,1.0761113534387945,-6.121890000000008,1.593199999999996,6.325806147211601,-6.240480000000048,-2.7900900000000206,6.835802281993001,-5.198390000000018,9.689149999999984,10.995584855504498,-0.2540799999999876,2.942749999999961,2.953698395046415,-4.91543999999999,1.6465800000000002,5.183895840967477,-0.945009999999968,-3.0088599999999985,3.1537727248011915,-1.9595899999999915,3.729249999999979,4.2127542689551465,3.173090000000002,2.9323899999999696,4.32057996803668,-1.4844600000000128,3.101300000000009,3.438267468013519,-0.3920800000000213,3.384129999999999,3.4067671748007684,-3.7337699999999927,4.190789999999993,5.612820969619455,-6.537419999999997,-2.5289999999999964,7.009543584028845,1.23924999999997,2.0269200000000183,2.375740989438874,-0.0600300000000402,-2.912829999999957,2.913448508177166,-1.5853599999999233,2.5165300000000173,2.9742712671341605,-4.578309999999874,-0.0453899999999691,4.5785349958473445,6.838359999999966,-1.0845899999999915,6.923835855773843,9.935419999999908,-2.5438199999999824,10.255905165747102,3.41527499999998,3.158259999999956,177.366805,3.6211750049653033,139.725787,9.173176517230614,135.704812,8.761879581731788,-0.80080413,0.883734034,0.3557508133878468,0,0
39,1300.0,440.05505,153.6871,0.7759816,442.23062,149.83864,0.8511758,440.6154,150.85973,0.2776416,451.52524,145.14966,0.92405164,447.63388,145.98409,0.13056193,464.87308,155.91577,0.9961139,458.55594,157.57782,0.91914034,461.55887,193.14024,0.9925426,463.60648,190.49738,0.63778543,443.80087,218.55695,0.9655903,449.60455,215.86946,0.5553266,506.81067,182.03247,0.9952526,500.2166,185.1603,0.97948074,501.87836,206.08621,0.9890239,482.62927,211.08057,0.9528751,551.7998,208.97023,0.96714693,523.7549,214.22403,0.92097574,1.22795013,0.09531043,0.51413591,1.11105432,150.14679819674998,142.38494379865512,81.71828657260195,60.21339698238333,57.28541513587246,183.596385,156.74679500000002,153.6871,111.74475,73.40728999999999,1.5222568286847695,165.25945071220292,0.8135686323529411,-4.001379999999983,5.5970299999999895,6.880246123889737,0.1005500000000552,-1.7304400000000155,1.7333588480462043,-3.799350000000004,5.7609899999999925,6.901019214768203,0.2698300000000131,-1.855760000000004,1.875274221680664,-3.853839999999991,5.333520000000021,6.580160965812323,0.3849200000000223,-1.9887399999999784,2.0256480923398152,-4.678260000000023,6.229840000000024,7.790829420106727,0.2246899999999527,-0.9566799999999488,0.9827116660037576,-5.032290000000046,5.282020000000017,7.295455977833095,0.2196899999999573,-1.298119999999983,1.3165786077936772,-5.691890000000001,5.58999,7.97781924915575,-0.4188599999999951,-0.7184600000000216,0.8316420330887725,-5.568510000000003,5.4876700000000085,7.818108828162994,-0.3032200000000102,1.0133300000000247,1.0577239986405038,-7.109929999999963,7.429010000000005,10.283058600679055,-0.8911899999999378,1.0492000000000132,1.3766046113898924,-4.255550000000028,8.08341999999999,9.13517294302084,1.86633999999998,6.490219999999994,6.753234828139759,-4.07056,9.639620000000008,10.463829722333989,1.1278300000000172,-0.0495299999999758,1.128917060638219,-2.2086499999999774,8.317090000000007,8.605354199020516,2.706790000000012,6.670510000000007,7.198778768944089,-2.501559999999984,1.4220899999999972,2.8775236578870915,-0.5419699999999921,-2.307159999999982,2.3699617605564667,-3.326339999999959,1.6396699999999953,3.70851122480433,-1.8418799999999464,-1.4616300000000138,2.3513579462301872,0.4502299999999763,0.4733300000000042,0.6532597812509069,4.183999999999969,-3.717459999999989,5.596906721716886,-5.053029999999978,0.96844999999999,5.144998307424382,-6.292279999999948,-1.0584700000000282,6.380685412970883,-0.1661400000000412,-1.7287600000000225,1.736724974542628,1.419219999999882,-4.24529000000004,4.476234197682244,-7.045799999999986,0.0816299999999898,7.046272851437119,-13.884159999999952,1.1662199999999814,13.933053075115971,1.5308799999999962,-1.884394999999984,179.563109,3.3376492692110946,145.51654,8.891689825970339,140.972694,10.269498831266208,0.7027916000000001,0.983908244,0.3289774669718947,0,0
40,1333.3333333333333,432.9623,168.7413,0.6991128,433.37778,165.17531,0.784284,432.7466,166.84825,0.20697059,441.0608,156.29669,0.87951416,440.65274,158.95912,0.10531353,455.16122,158.86151,0.9915421,455.1693,161.76695,0.8684011,458.3956,196.82089,0.9880967,465.82742,195.15099,0.5857501,446.7778,217.24017,0.95706046,451.83417,219.16525,0.53526586,501.0835,183.23566,0.9896994,498.93698,187.58205,0.9593795,498.63705,207.74629,0.97246796,481.36682,215.5889,0.89414126,548.61273,208.90521,0.92451376,516.61633,216.40659,0.83613175,1.73298777,0.60674424,0.68559642,1.47141618,145.49155599779712,132.06429814015192,85.62851626662935,59.22666710451222,60.76923309917608,185.408855,160.31423,168.7413,115.86613000000006,62.86855999999997,1.84299001213023,89.84066141272879,0.77515559,-7.092749999999967,15.054200000000009,16.641395380270843,-3.0913699999999835,9.45717000000002,9.94960465977419,-8.852840000000015,15.336669999999998,17.708365897352024,-5.053490000000011,9.575680000000006,10.8273454106951,-7.868800000000021,15.988519999999994,17.819954692153406,-4.014960000000031,10.654999999999973,11.386348352373542,-10.464440000000025,11.14703,15.289237467398449,-5.786180000000002,4.917189999999977,7.593328419639163,-6.981139999999982,12.975030000000004,14.733896945496118,-1.948849999999936,7.693009999999987,7.936020361780805,-9.71186,2.9457400000000007,10.148773758794707,-4.019970000000001,-2.6442499999999995,4.811675057960586,-3.38664,4.189130000000006,5.386848860558467,2.1818700000000035,-1.2985400000000027,2.539047622337955,-3.163270000000012,3.6806499999999858,4.853190859156475,3.946659999999952,-3.74836000000002,5.443007242802435,2.220940000000041,4.653610000000015,5.156419350256564,6.476490000000069,-3.429809999999975,7.328609646870321,2.9769300000000385,-1.3167799999999945,3.2551531136492207,7.047490000000039,-10.956400000000002,13.027272019118223,2.2296199999999544,3.2957899999999825,3.9791251637137126,4.438269999999932,-5.021300000000025,6.701618780779734,-5.727170000000001,1.2031900000000064,5.85219124644778,-3.2256100000000174,-0.2188999999999907,3.233029087728737,-1.2796200000000226,2.421750000000003,2.739032750242332,2.0467199999999366,0.7820800000000077,2.191052688732006,-3.2413099999999986,1.6600799999999936,3.641696874054727,-3.691539999999975,1.186749999999989,3.877607913920616,-1.2624500000000012,4.508330000000001,4.681753879840333,3.790579999999977,3.539880000000011,5.1864484139726965,-3.1870699999999488,-0.0650199999999756,3.187733173479184,-3.0209299999999075,1.6637400000000468,3.448774978524925,-7.1385700000000725,2.182559999999995,7.464767230028075,-0.0927700000000868,2.1009300000000053,2.1029772081028453,1.812470000000019,0.2815900000000226,181.62283800000003,3.0696754552464918,150.63077600000005,8.490805101440307,149.07147,13.257662334465218,0.36036186,1.073028408,0.3965792664258888,0,0
