frame_id,timestamp_ms,nose_x,nose_y,nose_conf,left_eye_x,left_eye_y,left_eye_conf,right_eye_x,right_eye_y,right_eye_conf,left_ear_x,left_ear_y,left_ear_conf,right_ear_x,right_ear_y,right_ear_conf,left_shoulder_x,left_shoulder_y,left_shoulder_conf,right_shoulder_x,right_shoulder_y,right_shoulder_conf,left_elbow_x,left_elbow_y,left_elbow_conf,right_elbow_x,right_elbow_y,right_elbow_conf,left_wrist_x,left_wrist_y,left_wrist_conf,right_wrist_x,right_wrist_y,right_wrist_conf,left_hip_x,left_hip_y,left_hip_conf,right_hip_x,right_hip_y,right_hip_conf,left_knee_x,left_knee_y,left_knee_conf,right_knee_x,right_knee_y,right_knee_conf,left_ankle_x,left_ankle_y,left_ankle_conf,right_ankle_x,right_ankle_y,right_ankle_conf,acc_x,acc_y,acc_z,acc_mag,left_elbow_angle,right_elbow_angle,left_knee_angle,right_knee_angle,spine_angle,hip_height,shoulder_height,head_height,bbox_width,bbox_height,bbox_aspect_ratio,shoulder_tilt,avg_confidence,nose_vx,nose_vy,nose_speed,nose_ax,nose_ay,nose_accel,left_eye_vx,left_eye_vy,left_eye_speed,left_eye_ax,left_eye_ay,left_eye_accel,right_eye_vx,right_eye_vy,right_eye_speed,right_eye_ax,right_eye_ay,right_eye_accel,left_ear_vx,left_ear_vy,left_ear_speed,left_ear_ax,left_ear_ay,left_ear_accel,right_ear_vx,right_ear_vy,right_ear_speed,right_ear_ax,right_ear_ay,right_ear_accel,left_shoulder_vx,left_shoulder_vy,left_shoulder_speed,left_shoulder_ax,left_shoulder_ay,left_shoulder_accel,right_shoulder_vx,right_shoulder_vy,right_shoulder_speed,right_shoulder_ax,right_shoulder_ay,right_shoulder_accel,left_elbow_vx,left_elbow_vy,left_elbow_speed,left_elbow_ax,left_elbow_ay,left_elbow_accel,right_elbow_vx,right_elbow_vy,right_elbow_speed,right_elbow_ax,right_elbow_ay,right_elbow_accel,left_wrist_vx,left_wrist_vy,left_wrist_speed,left_wrist_ax,left_wrist_ay,left_wrist_accel,right_wrist_vx,right_wrist_vy,right_wrist_speed,right_wrist_ax,right_wrist_ay,right_wrist_accel,left_hip_vx,left_hip_vy,left_hip_speed,left_hip_ax,left_hip_ay,left_hip_accel,right_hip_vx,right_hip_vy,right_hip_speed,right_hip_ax,right_hip_ay,right_hip_accel,left_knee_vx,left_knee_vy,left_knee_speed,left_knee_ax,left_knee_ay,left_knee_accel,right_knee_vx,right_knee_vy,right_knee_speed,right_knee_ax,right_knee_ay,right_knee_accel,left_ankle_vx,left_ankle_vy,left_ankle_speed,left_ankle_ax,left_ankle_ay,left_ankle_accel,right_ankle_vx,right_ankle_vy,right_ankle_speed,right_ankle_ax,right_ankle_ay,right_ankle_accel,hip_velocity,hip_acceleration,hip_height_mean_5,hip_height_std_5,shoulder_height_mean_5,shoulder_height_std_5,head_height_mean_5,head_height_std_5,acc_mag_diff,acc_mag_mean_5,acc_mag_std_5,label_binary,label_3class
0,0.0,490.32648,97.369385,0.9353715,492.47818,95.27617,0.89538234,488.36816,95.20555,0.86614954,496.09735,96.171524,0.72500205,485.41898,96.03514,0.59826964,500.9733,108.076515,0.9901586,481.41913,108.14993,0.9912924,505.54526,123.20157,0.95286167,476.246,123.008835,0.94734734,504.73206,136.16837,0.9260553,475.4234,136.71823,0.9167039,497.5814,137.23697,0.99257636,485.68506,137.30606,0.99307466,496.50772,160.54785,0.98409176,487.20172,160.43983,0.9829655,495.9391,182.31647,0.96465,489.66086,181.87628,0.9622691,0.98568391,-0.43233597,0.84452902,0.26726224,159.59257851826737,164.23821070509706,178.85914930065036,177.20673409171246,0.8587972915948837,137.27151500000002,108.1132225,97.369385,30.12185999999997,87.11092000000001,0.345787412809009,179.78488732127107,0.9190718623529412,0.0,0.0,0.0,0.0,0.0,0.0,0.0,0.0,0.0,0.0,0.0,0.0,0.0,0.0,0.0,0.0,0.0,0.0,0.0,0.0,0.0,0.0,0.0,0.0,0.0,0.0,0.0,0.0,0.0,0.0,0.0,0.0,0.0,0.0,0.0,0.0,0.0,0.0,0.0,0.0,0.0,0.0,0.0,0.0,0.0,0.0,0.0,0.0,0.0,0.0,0.0,0.0,0.0,0.0,0.0,0.0,0.0,0.0,0.0,0.0,0.0,0.0,0.0,0.0,0.0,0.0,0.0,0.0,0.0,0.0,0.0,0.0,0.0,0.0,0.0,0.0,0.0,0.0,0.0,0.0,0.0,0.0,0.0,0.0,0.0,0.0,0.0,0.0,0.0,0.0,0.0,0.0,0.0,0.0,0.0,0.0,0.0,0.0,0.0,0.0,0.0,0.0,0.0,0.0,137.27151500000002,0.0,108.1132225,0.0,97.369385,0.0,0.0,0.26726224,0.0,0,0
1,33.333333333333336,490.31143,97.30438,0.9356369,492.44516,95.20523,0.8957782,488.34082,95.149666,0.8666716,496.0496,96.07985,0.72519785,485.38187,95.984085,0.5986516,500.94,107.977615,0.9901333,481.44162,108.108154,0.9912742,505.5525,123.07721,0.95272064,476.3211,122.97424,0.9471942,504.7068,136.0553,0.9259019,475.51254,136.66245,0.9165217,497.62482,137.22464,0.99253196,485.75778,137.3201,0.9930355,496.50357,160.6283,0.98401225,487.18033,160.54681,0.98288083,495.93732,182.46477,0.9644211,489.59366,182.06534,0.96203053,1.0384753,-0.45395277,0.88923649,0.28568565,159.28523460682104,164.37460907840838,178.7425250333572,177.10572054078668,0.9810815236951944,137.27237,108.0428845,97.30438,30.039960000000008,87.31510399999999,0.344040816305495,179.61641828600025,0.91909378,-0.0150500000000306,-0.0650049999999993,0.0667244522270571,-0.0150500000000306,-0.0650049999999993,0.0667244522270571,-0.0330200000000218,-0.0709399999999931,0.0782483482253808,-0.0330200000000218,-0.0709399999999931,0.0782483482253808,-0.027339999999981,-0.055884000000006,0.0622133189598468,-0.027339999999981,-0.055884000000006,0.0622133189598468,-0.0477500000000077,-0.0916740000000118,0.1033643302885618,-0.0477500000000077,-0.0916740000000118,0.1033643302885618,-0.0371099999999842,-0.0510550000000051,0.0631170747500179,-0.0371099999999842,-0.0510550000000051,0.0631170747500179,-0.033299999999997,-0.0989000000000004,0.1043556419174348,-0.033299999999997,-0.0989000000000004,0.1043556419174348,0.0224900000000047,-0.0417759999999987,0.0474450658762331,0.0224900000000047,-0.0417759999999987,0.0474450658762331,0.0072400000000243,-0.12436000000001,0.1245705711635089,0.0072400000000243,-0.12436000000001,0.1245705711635089,0.0751000000000203,-0.0345950000000101,0.0826850894962553,0.0751000000000203,-0.0345950000000101,0.0826850894962553,-0.0252600000000029,-0.1130700000000217,0.1158572073718552,-0.0252600000000029,-0.1130700000000217,0.1158572073718552,0.0891399999999862,-0.0557799999999986,0.1051539252714676,0.0891399999999862,-0.0557799999999986,0.1051539252714676,0.0434200000000259,-0.0123300000000199,0.0451367400240951,0.0434200000000259,-0.0123300000000199,0.0451367400240951,0.0727200000000038,0.0140399999999942,0.0740629462011902,0.0727200000000038,0.0140399999999942,0.0740629462011902,-0.0041499999999814,0.0804499999999848,0.0805569674205614,-0.0041499999999814,0.0804499999999848,0.0805569674205614,-0.0213899999999966,0.1069799999999929,0.1090974449746572,-0.0213899999999966,0.1069799999999929,0.1090974449746572,-0.0017799999999965,0.1482999999999776,0.1483106820158054,-0.0017799999999965,0.1482999999999776,0.1483106820158054,-0.0672000000000139,0.1890599999999835,0.2006477600173888,-0.0672000000000139,0.1890599999999835,0.2006477600173888,0.0008549999999729,0.0008549999999729,137.27194250000002,0.0006045762978853,108.0780535,0.0497364767751091,97.3368825,0.045965476311036,0.01842341,0.276473945,0.01302731814358,0,0
2,66.66666666666667,490.17422,97.33748,0.93555623,492.316,95.22615,0.8966775,488.19904,95.18209,0.8657252,495.97595,96.07988,0.7282195,485.27808,96.020676,0.5940318,500.9271,107.97806,0.99001443,481.4121,108.15448,0.991055,505.5108,123.11139,0.95235914,476.28793,123.0849,0.94570804,504.5658,136.12039,0.9252843,475.52902,136.84738,0.91457486,497.6598,137.241,0.9923045,485.76562,137.347,0.9927752,496.55814,160.71933,0.9835043,487.09003,160.64282,0.98221254,495.9359,182.55254,0.96331835,489.39044,182.15108,0.9606636,1.03135495,-0.45640923,0.87891938,0.28789646,158.99429932829105,164.21389510043335,178.9459787316105,177.1490185920967,1.0646537616502294,137.294,108.06627,97.33748,29.98178000000001,87.37044999999999,0.3431569787822203,179.48204734456334,0.918469675882353,-0.1372099999999818,0.0331000000000045,0.1411460027772495,-0.1221599999999512,0.0981050000000038,0.1566769179713107,-0.129160000000013,0.0209200000000038,0.1308432344449017,-0.0961399999999912,0.0918599999999969,0.1329705200410894,-0.1417799999999829,0.032424000000006,0.1454403113857899,-0.1144400000000018,0.088308000000012,0.1445503942021693,-0.0736499999999864,3.000000000952241e-05,0.0736500061099658,-0.0258999999999787,0.0917040000000213,0.0952913092364818,-0.1037900000000036,0.0365910000000013,0.1100511943642632,-0.0666800000000193,0.0876460000000065,0.1101273976629055,-0.0129000000000019,0.0004449999999991,0.0129076731055619,0.020399999999995,0.0993449999999995,0.1014178930218909,-0.0295199999999908,0.0463260000000076,0.0549320368819523,-0.0520099999999956,0.0881020000000063,0.1023083696673965,-0.0416999999999916,0.0341800000000063,0.0539181082754183,-0.0489400000000159,0.1585400000000163,0.165921834608971,-0.0331699999999841,0.1106600000000099,0.1155243891998618,-0.1082700000000045,0.1452550000000201,0.1811667958678047,-0.1409999999999627,0.0650899999999978,0.1552987704393992,-0.1157399999999597,0.1781600000000196,0.2124540731546413,0.0164800000000013,0.18492999999998,0.1856628538507169,-0.0726599999999848,0.2407099999999786,0.2514374270071731,0.0349800000000186,0.0163600000000201,0.0386167062293246,-0.0084400000000073,0.02869000000004,0.0299056800625303,0.0078399999999874,0.0269000000000119,0.0280192005596241,-0.0648800000000164,0.0128600000000176,0.0661422255446745,0.0545699999999556,0.0910300000000177,0.1061336223823458,0.058719999999937,0.0105800000000328,0.0596655243837955,-0.0903000000000133,0.0960100000000068,0.1318029214395634,-0.0689100000000166,-0.0109699999999861,0.0697777113411008,-0.0014199999999959,0.0877700000000061,0.0877814860890442,0.0003600000000005,-0.0605299999999715,0.0605310705340369,-0.2032199999999875,0.0857400000000154,0.2205668062061868,-0.1360199999999736,-0.1033199999999681,0.1708111904998798,0.021630000000016,0.020775000000043,137.27929500000002,0.0127420769500034,108.07412566666666,0.0358209740945702,97.33708166666666,0.0325043306089133,0.00221081,0.28028145,0.0113290243173055,0,0
3,100.0,490.04044,97.351036,0.9347232,492.16876,95.24658,0.8962647,488.0838,95.20417,0.86265075,495.8156,96.10933,0.7305202,485.18716,96.048294,0.58704364,500.80765,108.01016,0.9901366,481.3085,108.18475,0.99091876,505.43082,123.18794,0.9537188,476.2981,123.12242,0.94478935,504.64993,136.30144,0.9270429,475.76532,136.76266,0.9137008,497.64706,137.33925,0.99246746,485.76224,137.45811,0.9928215,496.63583,160.91982,0.98395663,487.17245,160.8589,0.9824263,496.17056,182.92374,0.9641293,489.63354,182.53284,0.96108186,0.98566894,-0.46549811,0.8211927,0.28372048,159.65134391982855,163.69429647212593,178.75575646858957,176.97043744119742,1.2641998156496654,137.39868,108.097455,97.351036,29.66550000000001,87.71957,0.3381856484455448,179.4870031339775,0.91814075,-0.1337800000000015,0.0135559999999941,0.1344650643698959,0.0034299999999802,-0.0195440000000104,0.0198427023361303,-0.1472399999999538,0.0204299999999904,0.1486506054477613,-0.0180799999999408,-0.0004900000000134,0.0180866387147494,-0.1152400000000284,0.0220800000000025,0.1173362007225675,0.0265399999999544,-0.0103440000000034,0.0284845560962016,-0.160349999999994,0.029449999999997,0.1630319753913259,-0.0867000000000075,0.0294199999999875,0.0915555918554436,-0.0909199999999827,0.0276180000000039,0.0950221043968038,0.0128700000000208,-0.0089729999999974,0.0156892201527191,-0.119449999999972,0.0320999999999997,0.1236879642487227,-0.1065499999999701,0.0316550000000006,0.1111527846029674,-0.1036000000000285,0.0302699999999873,0.1079316121440106,-0.0740800000000376,-0.0160560000000202,0.0758000101319665,-0.0799800000000345,0.0765499999999974,0.1107099945804584,-0.0382800000000429,0.0423699999999911,0.0571014474422718,0.0101699999999596,0.0375200000000006,0.0388738896947453,0.0433399999999437,-0.0731400000000093,0.0850165583871547,0.0841299999999591,0.1810500000000274,0.1996420782300241,0.2251299999999219,0.1159600000000296,0.2532394884293752,0.2362999999999715,-0.0847199999999759,0.2510282223176957,0.2198199999999701,-0.269649999999956,0.3478964715256007,-0.0127400000000079,0.0982499999999788,0.0990725496794952,-0.0477200000000266,0.0818899999999587,0.0947795890474092,-0.0033799999999928,0.1111099999999964,0.1111613984258887,-0.0112199999999802,0.0842099999999845,0.0849541788259821,0.0776900000000182,0.2004899999999736,0.2150162231088442,0.0231200000000626,0.1094599999999559,0.1118750463686753,0.0824200000000132,0.2160800000000051,0.2312652650096949,0.1727200000000266,0.1200699999999983,0.2103544705966783,0.2346600000000194,0.3712000000000159,0.4391523148066294,0.2360800000000154,0.2834300000000098,0.3688717003241273,0.2430999999999699,0.3817599999999856,0.4525906622986984,0.4463199999999574,0.2960199999999702,0.5355645458765399,0.1046800000000018,0.0830499999999858,137.30914125,0.0605923667325332,108.079958,0.031487975035457,97.34057025,0.0274414867232706,-0.00417598,0.2811412075,0.0094085737401208,0,0
4,133.33333333333334,489.88965,97.44355,0.93582124,492.02005,95.3284,0.8979909,487.93076,95.293564,0.8636971,495.69794,96.14288,0.7336414,485.06488,96.09958,0.5871411,500.75272,108.001724,0.9906122,481.2034,108.20566,0.99135065,505.4726,123.23297,0.9563065,476.32794,123.18045,0.9473379,504.96118,136.53342,0.9309318,475.91623,136.7758,0.91757154,497.7063,137.37996,0.99306893,485.80045,137.52722,0.99339443,496.8073,161.07918,0.9853329,487.35416,161.04608,0.98390204,496.35757,183.25803,0.9669065,489.85812,182.89523,0.9640399,1.01154818,-0.41882547,0.87916503,0.27364902,160.5807480311962,163.70046342642243,178.9892441101203,177.24189784322078,1.5132630734580084,137.45359000000002,108.103692,97.44355,29.556370000000012,87.96446599999999,0.336003513782446,179.40231945351215,0.9199439429411764,-0.1507899999999722,0.0925140000000084,0.1769080673570122,-0.0170099999999706,0.0789580000000143,0.0807694612090563,-0.1487099999999941,0.0818200000000075,0.1697326618538679,-0.0014700000000402,0.0613900000000171,0.0614075972498698,-0.1530399999999758,0.0893939999999986,0.1772358000969114,-0.0377999999999474,0.0673139999999961,0.0772011307947979,-0.1176600000000007,0.0335500000000053,0.1223498185531982,0.0426899999999932,0.0041000000000082,0.0428864325865359,-0.1222799999999892,0.0512860000000046,0.1325995934986146,-0.0313600000000064,0.0236680000000006,0.039288978403624,-0.054930000000013,-0.0084360000000032,0.0555740136754714,0.064519999999959,-0.040536000000003,0.0761970976874773,-0.105099999999993,0.0209100000000006,0.1071598716871132,-0.0014999999999645,-0.0093599999999867,0.0094794303626138,0.041780000000017,0.045029999999997,0.0614269427857284,0.1217600000000516,-0.0315200000000004,0.1257736379374175,0.0298400000000356,0.058029999999988,0.0652526359620876,0.019670000000076,0.0205099999999873,0.0284177585323415,0.3112500000000295,0.2319799999999929,0.3881897511527257,0.2271200000000703,0.0509299999999655,0.2327603043906508,0.1509100000000103,0.0131399999999928,0.1514809813144967,-0.0853899999999612,0.0978599999999687,0.1298769867989986,0.0592399999999884,0.0407100000000184,0.0718796334158719,0.0719799999999963,-0.0575399999999604,0.092151896345083,0.0382099999999923,0.0691099999999949,0.0789695903496954,0.0415899999999851,-0.0420000000000015,0.0591077668331235,0.1714699999999993,0.1593600000000208,0.2340888090020674,0.0937799999999811,-0.0411299999999528,0.102402955523718,0.1817099999999527,0.1871799999999837,0.2608732958736419,0.0992899999999394,-0.0289000000000214,0.1034104158196321,0.1870099999999865,0.3342899999999815,0.3830437888805699,-0.0476500000000328,-0.0369100000000344,0.0602732992294736,0.2245800000000031,0.3623900000000049,0.4263363560617426,-0.0185199999999667,-0.0193699999999807,0.0267990167729718,0.0549100000000066,-0.0497699999999952,137.338031,0.083226585025464,108.0847048,0.0292622620464501,97.3611662,0.0518241466615727,-0.0100714599999999,0.27964277,0.0088100805657213,0,0
5,166.66666666666666,489.89175,97.388626,0.93496066,492.05112,95.27104,0.89877987,487.95407,95.219284,0.8592475,495.78394,96.08835,0.7396844,485.12888,96.0009,0.5739516,500.83084,108.028015,0.99064684,481.2669,108.13475,0.9909485,505.52814,123.44452,0.9574245,476.3903,123.126144,0.944424,505.16235,137.09595,0.9322142,475.87714,136.82042,0.9142291,497.684,137.58002,0.99303997,485.79987,137.68938,0.9931821,496.78708,161.3612,0.98532385,487.5831,161.29715,0.98342556,496.5168,183.56812,0.96675324,490.37677,183.14336,0.96309984,0.95965817,-0.40408675,0.84379208,0.21371153,161.51951855486266,164.12665664440448,178.53738975505604,177.03230169164175,1.3434994093126469,137.6347,108.0813825,97.388626,29.65100000000001,88.34883599999999,0.3356127936353029,179.68741448028973,0.918902101764706,0.0020999999999844,-0.0549239999999997,0.0549641317224233,0.1528899999999566,-0.1474380000000081,0.2123989546678353,0.0310699999999997,-0.0573600000000027,0.0652343046257128,0.1797799999999938,-0.1391800000000103,0.2273585731834202,0.0233099999999808,-0.0742800000000016,0.0778516184802818,0.1763499999999567,-0.1636740000000003,0.240600292551744,0.0859999999999558,-0.0545299999999997,0.10183084454129,0.2036599999999566,-0.088080000000005,0.2218906983178502,0.0639999999999645,-0.0986800000000016,0.1176169307540193,0.1862799999999538,-0.1499660000000062,0.2391443906011275,0.0781200000000126,0.0262910000000005,0.0824254273935052,0.1330500000000256,0.0347270000000037,0.1375073344553194,0.0635000000000332,-0.0709099999999978,0.095186543691868,0.1686000000000262,-0.0918199999999984,0.1919814376443946,0.0555400000000076,0.2115500000000025,0.2187192129192173,0.0137599999999906,0.1665200000000055,0.1670875459153122,0.0623600000000124,-0.0543059999999968,0.0826916636427228,0.0325199999999767,-0.1123359999999848,0.1169483958675581,0.2011699999999905,0.5625299999999811,0.5974189232021153,-0.110080000000039,0.3305499999999881,0.3483976304454448,-0.0390899999999874,0.0446200000000089,0.0593209280102715,-0.1899999999999977,0.0314800000000161,0.1925902136662196,-0.0222999999999728,0.2000599999999792,0.201299015397469,-0.0815399999999613,0.1593499999999608,0.1790005421778973,-0.0005800000000135,0.16216,0.1621610372438461,-0.0387900000000058,0.0930500000000051,0.1008115400140352,-0.0202199999999947,0.2820199999999886,0.2827439279630835,-0.1916899999999941,0.1226599999999678,0.2275753319232773,0.2289400000000228,0.2510699999999985,0.3397788523437115,0.04723000000007,0.0638900000000148,0.0794519036902736,0.1592299999999795,0.3100900000000024,0.3485828466806636,-0.027780000000007,-0.0241999999999791,0.0368424809153696,0.5186500000000365,0.2481300000000033,0.5749489711270379,0.2940700000000333,-0.1142600000000015,0.3154877374796364,0.1811099999999896,0.126199999999983,137.41066800000002,0.1457001254975576,108.0783368,0.024597465643333,97.3650144,0.0532809005066573,-0.05993749,0.268932628,0.0313471898854342,0,0
6,200.0,489.92062,97.407455,0.9358179,492.11234,95.28701,0.9005508,487.9814,95.21726,0.85995007,495.88507,96.108925,0.74325764,485.14627,95.97565,0.5725817,500.8913,108.09076,0.9908715,481.23572,108.12984,0.99104637,505.58105,123.56134,0.95870745,476.33994,123.1163,0.9447353,505.33337,137.23505,0.93402475,475.77908,136.74432,0.914919,497.59845,137.76163,0.9931861,485.66696,137.84326,0.9932742,496.76093,161.54411,0.9855253,487.63187,161.45851,0.9835186,496.42694,183.71439,0.96696645,490.40338,183.25427,0.96311915,0.96669112,-0.48711491,0.79343477,0.26013852,162.09813066706462,164.2654811840323,178.84619112081322,177.50960616172782,1.0983196195034648,137.80244499999998,108.1103,97.407455,29.801969999999983,88.49713000000001,0.336756340722503,179.88608241970508,0.9195324870588236,0.0288699999999835,0.0188289999999966,0.0344674939761933,0.026769999999999,0.0737529999999964,0.0784610598258742,0.0612199999999916,0.0159699999999958,0.0632687071149619,0.0301499999999919,0.0733299999999985,0.0792862623661836,0.0273300000000062,-0.0020240000000057,0.0274048440243758,0.0040200000000254,0.0722559999999958,0.0723677409900268,0.1011300000000119,0.0205749999999937,0.1032017806290286,0.015130000000056,0.0751049999999935,0.0766138233284354,0.0173900000000344,-0.0252499999999997,0.0306590052024064,-0.04660999999993,0.0734300000000018,0.0869738868856265,0.0604599999999777,0.0627450000000067,0.0871340726983316,-0.0176600000000348,0.0364540000000062,0.0405064157387651,-0.0311800000000062,-0.0049099999999953,0.0315642281705151,-0.0946800000000394,0.0660000000000025,0.1154136144482434,0.0529099999999971,0.1168200000000041,0.128243442327476,-0.0026300000000105,-0.0947299999999984,0.0947665014654427,-0.0503600000000119,-0.009844000000001,0.0513130971195583,-0.1127200000000243,0.0444619999999957,0.1211720588419835,0.1710199999999986,0.1391000000000133,0.2204464796725119,-0.0301499999999919,-0.4234299999999678,0.424502046402573,-0.0980599999999753,-0.0761000000000251,0.1241248307148855,-0.0589699999999879,-0.1207200000000341,0.134353188648453,-0.085550000000012,0.1816100000000062,0.2007510762113228,-0.0632500000000391,-0.0184499999999729,0.0658860000303854,-0.1329099999999812,0.1538799999999867,0.2033325416651031,-0.1323299999999676,-0.0082800000000133,0.132588790250125,-0.0261500000000296,0.1829099999999925,0.1847698314119457,-0.0059300000000348,-0.099109999999996,0.0992872449008412,0.0487699999999904,0.1613600000000019,0.1685691623637007,-0.1801700000000323,-0.0897099999999966,0.2012687581320336,-0.0898599999999874,0.1462700000000154,0.1716675056613867,-0.2490899999999669,-0.1638199999999869,0.2981322198286849,0.0266100000000051,0.1109099999999898,0.1140575302204901,-0.4920400000000313,-0.1372200000000134,0.5108157104083962,0.167744999999968,-0.0133650000000216,137.516683,0.2019164964038486,108.0918199,0.0178602345673377,97.3856294,0.0428812324193309,0.0464269899999999,0.263823202,0.0299863580399057,0,0
7,233.3333333333333,489.95145,97.42121,0.9374651,492.18893,95.30597,0.9051313,488.02377,95.20579,0.85989475,496.02957,96.09744,0.7548551,485.21008,95.89558,0.5636113,501.06296,108.027504,0.99135256,481.2392,107.99127,0.99110985,505.7676,123.478424,0.9617765,476.26907,122.98483,0.9442629,505.52753,136.96179,0.93831086,475.72174,136.55382,0.9150538,497.5888,137.7712,0.9934871,485.56403,137.80692,0.9933947,496.7799,161.7037,0.98608136,487.65656,161.56882,0.98366076,496.40836,184.01932,0.96770287,490.4595,183.47475,0.9631304,1.05907378,-0.41710596,0.90987071,0.34611442,162.0450291900495,163.97032752336406,179.0180255140205,177.74104480443177,0.8184191365024753,137.78906,108.009387,97.42121,30.045860000000005,88.81353,0.338302730019821,-179.89527451084294,0.9206047770588236,0.0308300000000372,0.0137550000000032,0.0337592790948264,0.0019600000000536,-0.0050739999999933,0.0054394003346088,0.0765900000000101,0.0189600000000069,0.078901899216697,0.0153700000000185,0.0029900000000111,0.0156581288792957,0.0423700000000053,-0.0114700000000027,0.0438950771727367,0.015039999999999,-0.0094459999999969,0.0177603073171585,0.1444999999999936,-0.0114849999999933,0.1449557009054766,0.0433699999999817,-0.0320599999999871,0.0539332967655194,0.0638099999999894,-0.0800700000000063,0.1023861367568855,0.046419999999955,-0.0548200000000065,0.071833479659533,0.1716599999999744,-0.0632560000000097,0.1829439180076573,0.1111999999999966,-0.1260010000000164,0.1680526465159159,0.0034799999999677,-0.1385700000000014,0.1386136908822507,0.0346599999999739,-0.1336600000000061,0.1380808140184574,0.1865500000000111,-0.0829159999999973,0.204146921495289,0.1336400000000139,-0.1997360000000014,0.2403208673752745,-0.0708700000000135,-0.1314699999999931,0.1493550059422184,-0.0205100000000015,-0.121625999999992,0.1233431959047523,0.1941600000000107,-0.2732599999999934,0.3352150551511679,0.0231400000000121,-0.4123600000000067,0.4130087519653864,-0.0573400000000106,-0.1904999999999859,0.1989425183312904,0.0407199999999647,-0.1143999999999607,0.1214309614554218,-0.0096500000000219,0.0095699999999965,0.013590710062405,0.07589999999999,-0.1720400000000097,0.1880387502617528,-0.1029300000000148,-0.0363399999999956,0.1091566786779569,0.0299799999999663,-0.1902199999999823,0.1925680368077507,0.0189700000000243,0.1595900000000085,0.1607134997441212,0.045120000000054,-0.023319999999984,0.0507901250244979,0.0246900000000209,0.1103099999999983,0.1130393391700459,-0.0240799999999694,-0.0510500000000035,0.0564442105091292,-0.0185799999999858,0.3049299999999846,0.3054955340098936,0.0712800000000015,0.1586599999999691,0.1739362929350583,0.0561199999999644,0.2204800000000091,0.2275101861455878,0.0295099999999592,0.1095700000000192,0.1134743363056238,-0.0133849999999711,-0.1811299999999391,137.61569500000002,0.1861892296831783,108.0804433,0.0411436580465301,97.4023754,0.0350024005291246,0.0859759,0.275466794,0.0477262593072888,0,0
8,266.6666666666667,490.03357,97.41498,0.93968695,492.29764,95.3024,0.9101747,488.10797,95.18259,0.86105907,496.18323,96.03587,0.7666693,485.30157,95.79599,0.5567281,501.27634,107.887245,0.99193794,481.3209,107.80725,0.99136645,506.03693,123.30281,0.965217,476.38098,122.75217,0.9450731,505.67203,136.61664,0.94332147,475.77155,136.15518,0.91699994,497.67343,137.73235,0.99390656,485.57928,137.73819,0.9936719,496.83334,161.8163,0.9868476,487.75293,161.6506,0.9841235,496.40897,184.25838,0.9688107,490.5878,183.66307,0.9636665,1.00025707,-0.25006706,0.87277825,0.41980806,161.268470744508,164.31254705238428,179.08553629779598,177.85550893484552,0.6284224331400144,137.73527,107.8472475,97.41498,30.265379999999997,89.07578999999998,0.3397711057092942,-179.7703207079627,0.922309457647059,0.0821199999999748,-0.0062300000000021,0.0823559791393187,0.0512899999999376,-0.0199850000000054,0.0550460200649767,0.1087099999999736,-0.0035699999999962,0.1087686030065397,0.0321199999999635,-0.0225300000000032,0.0392338540038804,0.0842000000000098,-0.0231999999999885,0.0873377352580264,0.0418300000000044,-0.0117299999999858,0.0434435472768976,0.1536600000000021,-0.0615700000000032,0.165536281521608,0.0091600000000084,-0.0500850000000099,0.0509157424084256,0.0914900000000216,-0.099589999999992,0.1352353067804498,0.0276800000000321,-0.0195199999999857,0.0338705299633947,0.2133800000000292,-0.1402590000000003,0.2553499784237558,0.0417200000000548,-0.0770029999999906,0.087578652701461,0.0817000000000121,-0.1840200000000038,0.2013411294296408,0.0782200000000443,-0.0454500000000024,0.0904658548846312,0.2693299999999681,-0.1756140000000101,0.3215259334734702,0.082779999999957,-0.0926980000000128,0.1242797151750649,0.111910000000023,-0.2326599999999956,0.2581753739224621,0.1827800000000365,-0.1011900000000025,0.2089209048898982,0.1444999999999936,-0.345150000000018,0.3741774612399985,-0.0496600000000171,-0.0718900000000246,0.0873744110137816,0.0498099999999794,-0.3986400000000003,0.4017398233931983,0.10714999999999,-0.2081400000000144,0.2341012219105314,0.0846300000000042,-0.0388499999999965,0.0931212081107222,0.0942800000000261,-0.048419999999993,0.1059868614499186,0.0152499999999804,-0.0687299999999879,0.0704015298129078,0.1181799999999952,-0.0323899999999923,0.1225382572913389,0.0534400000000232,0.1126000000000146,0.1246378497889216,0.0344699999999988,-0.0469899999999938,0.0582772768752911,0.0963699999999789,0.081780000000009,0.1263928213942446,0.071679999999958,-0.0285299999999892,0.0771490978559916,0.0006099999999946,0.2390599999999949,0.2390607782552327,0.0191899999999805,-0.0658699999999896,0.0686084032753852,0.1283000000000242,0.1883200000000044,0.2278712627779288,0.0721800000000598,-0.0321600000000046,0.0790203644639085,-0.0537899999999922,-0.0404050000000211,137.68301300000002,0.1442305634913222,108.03040179999998,0.1099333058941791,97.4151642,0.0200377586870812,0.07369364,0.3026843099999999,0.0808911230632126,0,0
9,300.0,490.5077,97.478424,0.9407132,492.74493,95.35959,0.90951985,488.53052,95.23647,0.86596847,496.5137,96.06603,0.7595972,485.5603,95.80231,0.57050705,501.47302,107.881516,0.9918473,481.42,107.78461,0.9915734,506.1306,123.408264,0.96424526,476.4645,122.92136,0.9467784,505.86435,136.7024,0.9420727,475.93994,136.42282,0.91873014,497.76672,137.7001,0.9937564,485.61014,137.70914,0.99363697,496.86307,161.99918,0.9862975,487.7703,161.84444,0.9838088,496.2832,184.54471,0.96719146,490.50592,183.99619,0.96239793,0.94301211,-0.21322024,0.84305515,0.36478348,162.1549143160574,164.09742408033853,179.34353961636563,178.0743909777426,0.4642464611262917,137.70461999999998,107.833063,97.478424,30.19066000000004,89.30824000000001,0.3380501022296479,-179.7231209269626,0.922861295882353,0.4741300000000024,0.063444000000004,0.4783559323725407,0.3920100000000275,0.0696740000000062,0.3981536215784335,0.4472900000000095,0.0571899999999914,0.4509313031937432,0.3385800000000358,0.0607599999999877,0.3439886538826866,0.4225500000000011,0.0538799999999923,0.425971309949391,0.3383499999999912,0.0770799999999809,0.3470188019401703,0.3304699999999911,0.030159999999995,0.3318434065941251,0.176809999999989,0.0917299999999983,0.1991887772942939,0.2587299999999572,0.0063200000000023,0.258807177837049,0.1672399999999356,0.1059099999999944,0.197954908249271,0.1966800000000148,-0.0057289999999881,0.1967634209933485,-0.0167000000000143,0.1345300000000122,0.1355625718994877,0.0991000000000212,-0.0226399999999955,0.1016532321178427,0.0174000000000091,0.1613800000000083,0.1623153239839141,0.0936700000000314,0.1054540000000088,0.1410482719355602,-0.1756599999999366,0.2810680000000189,0.331444801172063,0.0835199999999645,0.1691900000000004,0.1886818658482955,-0.0283900000000585,0.401849999999996,0.4028516036954552,0.1923199999999951,0.0857600000000218,0.2105748323043423,0.0478200000000015,0.4309100000000399,0.4335552796357513,0.168389999999988,0.2676400000000001,0.3162062012358329,0.1185800000000085,0.6662800000000004,0.6767497726634288,0.0932900000000245,-0.0322500000000047,0.0987070747211408,0.0086600000000203,0.0065999999999917,0.0108883240216409,0.0308600000000183,-0.0290500000000122,0.0423820964559546,0.0156100000000378,0.0396799999999757,0.0426400574577386,0.0297299999999722,0.182879999999983,0.1852807796291675,-0.0237100000000509,0.0702799999999683,0.0741717095663701,0.017370000000028,0.1938399999999944,0.1946167066312623,-0.0789999999999508,0.1120599999999854,0.1371074162836896,-0.1257699999999886,0.2863300000000208,0.312734650782431,-0.1263799999999832,0.0472700000000259,0.1349309352965368,-0.0818800000000123,0.3331200000000081,0.3430353754352565,-0.2101800000000366,0.1448000000000036,0.2552306259053103,-0.0306500000000369,0.0231399999999553,137.73321900000002,0.0678943280402113,107.976276,0.1296769682909028,97.422139,0.0337596525900707,-0.0550245799999999,0.3209112019999999,0.082954288694313,0,0
10,333.3333333333333,491.0844,97.47345,0.9422785,493.27762,95.34506,0.9069443,489.03076,95.22569,0.87505585,496.8645,96.07429,0.7429252,485.81577,95.796234,0.60038257,501.61163,107.92576,0.9916169,481.47168,107.841675,0.9921336,506.12158,123.6127,0.9615537,476.49954,123.237686,0.9512443,505.8526,136.83635,0.93867004,476.04477,136.85477,0.9235402,497.9308,137.74886,0.99353325,485.7268,137.79819,0.99374795,496.96454,162.30014,0.9854617,488.09598,162.19731,0.9837812,496.1757,185.0143,0.9648487,490.84604,184.58095,0.96138877,1.03822009,-0.3930327,0.88113019,0.38345253,162.79492554765497,164.01493981663492,179.7351876146633,178.54181562443966,0.550610881259182,137.773525,107.8837175,97.47345,30.076809999999966,89.78860999999999,0.3349735524920857,-179.76078949410265,0.9240651017647058,0.5767000000000166,-0.0049740000000042,0.5767214498143963,0.1025700000000142,-0.0684180000000083,0.1232948807696575,0.5326900000000023,-0.0145299999999934,0.5328881280343954,0.0853999999999928,-0.0717199999999849,0.1115209325642348,0.5002399999999625,-0.0107799999999969,0.5003561391648577,0.0776899999999614,-0.0646599999999892,0.1010774539647324,0.3508000000000493,0.008260000000007,0.3508972322490371,0.0203300000000581,-0.021899999999988,0.0298817486101774,0.2554700000000025,-0.0060760000000072,0.2555422444058934,-0.0032599999999547,-0.0123960000000096,0.0128175042812531,0.1386099999999714,0.0442439999999919,0.1455000468590693,-0.0580700000000433,0.04997299999998,0.076612176767163,0.0516799999999761,0.0570649999999943,0.0769885486614528,-0.047420000000045,0.0797049999999899,0.0927445061715391,-0.0090200000000209,0.2044360000000011,0.2046348907102619,-0.1026900000000523,0.0989819999999923,0.1426277407239182,0.0350400000000377,0.3163259999999894,0.3182608048063662,-0.0484799999999268,0.147135999999989,0.1549171162137666,-0.0117500000000063,0.1339499999999986,0.1344643633086469,-0.2040700000000015,0.0481899999999768,0.2096827150720783,0.1048300000000495,0.4319500000000005,0.4444886178520332,-0.0635599999999385,0.1643100000000004,0.1761750541364818,0.1640799999999558,0.0487600000000156,0.1711717967422993,0.0707899999999313,0.0810100000000204,0.1075818023644965,0.1166600000000244,0.0890500000000145,0.1467632723129607,0.0858000000000061,0.1181000000000267,0.1459768817313459,0.1014700000000061,0.3009600000000034,0.3176052305929537,0.0717400000000338,0.1180800000000203,0.1381648073859971,0.3256799999999771,0.3528699999999958,0.480192356561391,0.308309999999949,0.1590300000000013,0.3469086291806085,-0.1075000000000159,0.4695899999999824,0.4817374991631717,0.0182699999999726,0.1832599999999615,0.1841684568540034,0.3401200000000131,0.5847599999999886,0.6764805037841043,0.4220000000000254,0.2516399999999805,0.4913315475318185,0.0689050000000293,0.0995550000000662,137.760984,0.0403195463458541,107.936743,0.1193418132461081,97.4391038,0.034020331894376,0.01866905,0.354859402,0.0595459962256358,0,0
11,366.6666666666666,491.71088,97.29706,0.9437878,493.8766,95.15025,0.9059017,489.59213,95.04152,0.88246554,497.3382,95.884995,0.73132473,486.18195,95.6212,0.6229335,501.9745,107.78525,0.9915971,481.68573,107.750046,0.99271375,506.40247,123.49678,0.96018994,476.66635,123.28749,0.9554788,506.33475,136.85483,0.9372486,476.21576,137.17036,0.9286166,498.32397,137.6892,0.99366814,486.0087,137.77002,0.9941367,497.24158,162.25989,0.98565686,488.11224,162.18849,0.98469454,496.15152,185.0273,0.96540135,490.50104,184.68076,0.96322984,0.93440561,-0.42226451,0.77157233,0.31540874,163.97014148978752,163.95588979438645,179.78122170775023,178.86121564433384,0.6430915078336912,137.72960999999998,107.767648,97.29706,30.186710000000005,89.98577999999999,0.3354608879818469,-179.90058349531668,0.9258262052941176,0.6264799999999582,-0.1763899999999978,0.6508383996814776,0.0497799999999415,-0.1714159999999935,0.1784978808165295,0.5989799999999832,-0.1948100000000039,0.6298634586162158,0.0662899999999808,-0.1802800000000104,0.1920813434459506,0.5613700000000108,-0.1841699999999946,0.590808654134323,0.0611300000000483,-0.1733899999999977,0.1838503984222093,0.4736999999999511,-0.1892950000000013,0.5101218354716394,0.1228999999999018,-0.1975550000000083,0.2326636800727161,0.3661799999999857,-0.1750339999999965,0.4058628999502028,0.1107099999999832,-0.1689579999999892,0.2019987867884177,0.3628699999999867,-0.1405099999999919,0.3891242693536193,0.2242600000000152,-0.1847539999999838,0.2905625373581406,0.214049999999986,-0.0916289999999975,0.2328374457448663,0.1623700000000099,-0.1486939999999919,0.2201679416627243,0.2808899999999994,-0.1159200000000026,0.3038694431824303,0.2899100000000203,-0.3203560000000038,0.4320599204230985,0.1668099999999981,0.0498040000000088,0.1740862272438582,0.1317699999999604,-0.2665219999999806,0.2973168501514491,0.4821499999999901,0.0184799999999825,0.4825040237137819,0.4938999999999964,-0.1154700000000161,0.5072184252370967,0.1709899999999606,0.315589999999986,0.3589354095098138,0.0661599999999111,-0.1163600000000144,0.1338536334956642,0.3931699999999978,-0.059660000000008,0.397670673422116,0.2290900000000419,-0.1084200000000237,0.2534504379558741,0.2818999999999505,-0.0281700000000171,0.2833040043839357,0.1652399999999261,-0.1172200000000316,0.2025951282730732,0.2770399999999995,-0.0402499999999861,0.2799486097482868,0.1755699999999933,-0.3412099999999896,0.3837304900577885,0.0162599999999883,-0.0088199999999858,0.0184981080113446,-0.3094199999999887,-0.3616899999999816,0.4759836052848666,-0.0241800000000012,0.0130000000000052,0.0274530945432421,0.0833200000000147,-0.4565899999999772,0.4641299931053601,-0.3450000000000273,0.0998099999999908,0.3591476522267923,-0.6851200000000404,-0.4849499999999977,0.8393842486609175,-0.0439150000000267,-0.1128200000000561,137.74641699999998,0.0343037504514374,107.8682126,0.0893852360721017,97.4170248,0.0730871317346733,-0.0680437899999999,0.365913446,0.0392308949286923,0,0
12,400.0,492.30444,97.10344,0.9462486,494.45163,94.94086,0.90646076,490.1168,94.84685,0.8915336,497.7849,95.77544,0.7219182,486.49533,95.53289,0.64890814,502.28293,107.82136,0.99166965,481.85983,107.856186,0.993324,506.61667,123.57378,0.95883185,476.88232,123.54762,0.9593945,506.74698,136.9138,0.93576527,476.56226,137.44751,0.9333137,498.76907,137.68805,0.9937325,486.33566,137.81558,0.9944441,497.54837,162.25804,0.9856037,488.11993,162.23203,0.9853151,496.30215,185.0744,0.9653598,490.32568,184.8367,0.9643987,0.97467795,-0.44584647,0.82807078,0.25596255,165.1772458158704,163.71941523150346,179.71787669606195,178.60630139302307,0.9213238299025877,137.75181500000002,107.838773,97.10344,30.184720000000027,90.22755,0.3345399455649642,179.90229784492706,0.9280130688235294,0.593560000000025,-0.1936199999999956,0.6243413953919986,-0.0329199999999332,-0.0172299999999978,0.0371564166732413,0.5750300000000266,-0.209389999999999,0.6119670522177074,-0.0239499999999566,-0.0145799999999951,0.0280388819320204,0.5246700000000146,-0.1946700000000021,0.5596204229654383,-0.0366999999999961,-0.0105000000000075,0.0381725031927417,0.4467000000000212,-0.1095550000000002,0.4599382437078037,-0.0269999999999299,0.079740000000001,0.0841870987740781,0.3133800000000519,-0.088310000000007,0.3255851355637014,-0.0527999999999337,0.0867239999999895,0.1015327148065646,0.3084300000000439,0.0361099999999936,0.3105366274693319,-0.0544399999999427,0.1766199999999855,0.1848197446161764,0.1741000000000099,0.1061399999999963,0.2039031868314045,-0.0399499999999761,0.1977689999999938,0.2017636732937712,0.2142000000000052,0.0769999999999981,0.2276195070726627,-0.0666899999999941,0.1929200000000008,0.2041217345115398,0.2159699999999702,0.2601299999999895,0.3380985918337751,0.0491599999999721,0.2103259999999807,0.2159947496491272,0.4122300000000223,0.0589700000000164,0.4164265046800219,-0.0699199999999677,0.0404900000000338,0.080797564938544,0.3464999999999918,0.277150000000006,0.443705276619512,0.1755100000000311,-0.03843999999998,0.1796702359880717,0.4451000000000249,-0.0011499999999955,0.4451014856187543,0.0519300000000271,0.0585100000000124,0.0782313556063314,0.3269600000000423,0.0455600000000231,0.33011900157372,0.0450600000000918,0.0737300000000402,0.0864090070537453,0.3067899999999781,-0.0018500000000187,0.3067955778690212,0.0297499999999786,0.0383999999999673,0.0485759456932772,0.007690000000025,0.0435400000000072,0.0442138858278823,-0.0085699999999633,0.052359999999993,0.0530567102259332,0.1506299999999782,0.0471000000000003,0.1578220735511781,0.1748099999999794,0.0340999999999951,0.1781048738805103,-0.1753600000000119,0.1559400000000153,0.2346666000947066,0.1696400000000153,0.0561300000000244,0.1786849364104538,0.0222050000000422,0.066120000000069,137.738968,0.0256917502816294,107.8340898,0.042052149600981,97.3534708,0.1577095999081698,-0.05944619,0.347883072,0.0636945418293026,0,0
13,433.33333333333337,492.78525,96.6642,0.9468159,494.82028,94.44954,0.90854126,490.59998,94.46988,0.9004875,498.04675,95.05086,0.71893966,486.90527,94.96666,0.693822,502.12228,106.86611,0.9924608,482.5118,106.921,0.9944143,506.80316,122.85687,0.9481801,478.05374,123.349396,0.9507487,507.69965,137.47249,0.9087518,476.3497,137.85506,0.9058664,498.2962,137.70265,0.99306244,486.31198,137.7161,0.99398416,497.99823,162.73888,0.9787668,487.47662,162.59158,0.9789819,496.60248,186.83443,0.9505545,490.16528,186.6615,0.95109594,0.91422675,-0.4146495,0.79024138,0.19848152,167.19397603525803,171.51771937670392,177.366684724153,176.3069240689052,0.0281567957454655,137.70937500000002,106.893555,96.6642,31.349950000000035,92.38489,0.3393406612343141,179.83962875337784,0.9244396564705883,0.4808100000000195,-0.4392400000000123,0.6512373098188015,-0.1127500000000054,-0.2456200000000166,0.2702623667845921,0.3686500000000023,-0.4913200000000017,0.6142460133366788,-0.2063800000000242,-0.2819300000000027,0.3493955198625356,0.4831800000000044,-0.37697,0.6128370854476778,-0.0414900000000102,-0.1822999999999979,0.1869617878070278,0.2618499999999812,-0.7245800000000031,0.7704424695588858,-0.1848500000000399,-0.6150250000000028,0.6422034515050649,0.4099399999999491,-0.5662299999999902,0.6990473635598287,0.0965599999998971,-0.4779199999999832,0.4875770298116638,-0.1606500000000323,-0.9552499999999924,0.9686645368753808,-0.4690800000000763,-0.991359999999986,1.0967363840048543,0.6519700000000057,-0.9351859999999874,1.1400165505359927,0.4778699999999958,-1.0413259999999838,1.1457397501945903,0.186489999999992,-0.7169099999999986,0.7407688358725649,-0.0277100000000132,-0.7939099999999968,0.7943934366546564,1.171420000000012,-0.1982239999999961,1.1880730493433584,0.9554500000000417,-0.4583539999999857,1.05970424733322,0.952670000000012,0.5586899999999844,1.1044069200254067,0.5404399999999896,0.4997199999999679,0.7360675729849514,-0.2125599999999963,0.4075500000000147,0.4596506892195534,-0.5590599999999881,0.1304000000000087,0.5740664104439389,-0.4728700000000003,0.0146000000000015,0.473095335952491,-0.9179700000000252,0.015749999999997,0.9181051047674478,-0.023680000000013,-0.0994799999999997,0.1022595364746025,-0.3506400000000553,-0.1450400000000229,0.3794535692282331,0.449860000000001,0.4808400000000006,0.6584687731396239,0.1430700000000229,0.4826900000000194,0.503446780702812,-0.6433099999999854,0.3595499999999845,0.7369694421073171,-0.6510000000000105,0.3160099999999772,0.7236458526793332,0.3003300000000308,1.7600300000000004,1.7854701649145583,0.1497000000000525,1.71293,1.7194590064610484,-0.1603999999999814,1.824799999999982,1.831836018861931,0.0149600000000305,1.6688599999999667,1.6689270508922462,-0.0424399999999991,-0.0646450000000413,137.733789,0.0290182027791692,107.6433513,0.4211888653486463,97.20331480000002,0.3384028678885313,-0.05748103,0.303617764,0.0767764791699145,0,0
14,466.6666666666667,493.1153,96.37738,0.9473015,495.1281,94.180664,0.9087581,490.94986,94.196945,0.90113306,498.31985,94.827545,0.7192116,487.26993,94.728096,0.6960552,502.41388,106.735535,0.99266475,482.76303,106.73746,0.99456894,507.1031,122.80203,0.9494459,478.20676,123.16046,0.95198864,508.07977,137.56264,0.91050696,476.59225,137.68874,0.9076855,498.4028,137.72972,0.9932555,486.40808,137.71527,0.9941478,498.1232,162.83336,0.97901356,487.6523,162.66666,0.97923607,496.5332,186.9845,0.9504623,490.24063,186.79941,0.9510476,0.93642996,-0.4416705,0.81456028,0.13535064,167.51500264274782,170.83545946882862,176.87146738066696,176.73294133492504,0.3387194866163605,137.72249499999998,106.7364975,96.37738,31.487520000000018,92.803836,0.3392911437487225,179.99438729748536,0.9250872341176472,0.3300499999999715,-0.2868199999999916,0.4372627527013665,-0.1507600000000479,0.1524200000000206,0.2143838473393477,0.3078199999999924,-0.2688760000000059,0.4087143938938271,-0.0608300000000099,0.2224439999999958,0.2306114091626851,0.3498799999999846,-0.2729350000000039,0.4437448913790348,-0.1333000000000197,0.1040349999999961,0.1690921974101834,0.2730999999999994,-0.2233149999999995,0.3527792499921154,0.0112500000000181,0.5012650000000036,0.501391227211849,0.3646600000000148,-0.2385640000000108,0.4357633505654371,-0.0452799999999342,0.3276659999999793,0.3307798149161773,0.2916000000000167,-0.1305750000000074,0.319500220070365,0.4522500000000491,0.824674999999985,0.9405418215714916,0.2512300000000209,-0.1835400000000078,0.3111325191940138,-0.4007399999999848,0.7516459999999796,0.8518005969215783,0.2999399999999923,-0.0548399999999986,0.3049121663692599,0.1134500000000002,0.6620699999999999,0.6717198727148096,0.1530199999999695,-0.1889359999999982,0.2431294562491143,-1.0184000000000424,0.0092879999999979,1.0184423532748854,0.3801199999999767,0.0901499999999941,0.3906638413009082,-0.5725500000000352,-0.4685399999999902,0.7398264891851543,0.2425499999999942,-0.1663200000000131,0.2940966591105747,0.4551099999999906,-0.5738700000000279,0.7324287603583186,0.1066000000000144,0.0270699999999806,0.1099833846542378,0.5794700000000148,0.0124699999999791,0.5796041595779111,0.0960999999999785,-0.0008300000000076,0.0961035842203395,0.1197799999999915,0.0986499999999921,0.1551743242292242,0.1249700000000189,0.0944800000000043,0.156665156623946,-0.3248899999999821,-0.3863599999999962,0.5048044786845551,0.1756799999999998,0.075080000000014,0.1910509586471684,0.8189899999999852,-0.2844699999999704,0.8669877744235838,-0.069279999999992,0.1500699999999994,0.1652898160807215,-0.3696100000000228,-1.609960000000001,1.6518422302689866,0.0753500000000144,0.137910000000005,0.1571521256617408,0.2357499999999959,-1.686889999999977,1.7032838678857734,0.013119999999958,0.0555599999999572,137.737364,0.0254019936231985,107.4240382,0.5602460056694266,96.983106,0.4533457973555728,-0.06313088,0.257731196,0.0969835109777157,0,0
15,500.0,493.40128,95.969505,0.9492361,495.46396,93.76149,0.91283494,491.2326,93.74134,0.9029481,498.7184,94.38487,0.72793084,487.50958,94.19276,0.6938471,502.7921,106.366745,0.99310327,482.8666,106.21059,0.9947702,507.49374,122.68576,0.9533472,478.26544,122.68056,0.953501,508.3524,137.73816,0.9165066,476.6191,137.28734,0.91062844,498.49084,137.71362,0.9935371,486.30014,137.62573,0.9943104,498.3344,162.959,0.9791682,487.58493,162.728,0.9790507,496.7038,187.07251,0.9494534,490.1067,186.81041,0.9494806,0.98447258,-0.45051374,0.8644263,0.13780709,167.1927642301352,170.8221151360247,176.48648630825252,176.9520717533701,0.7922278044545296,137.66967499999998,106.2886675,95.969505,31.733299999999986,93.33117,0.3400075201027959,-179.55098545641553,0.9266855405882354,0.285979999999995,-0.4078750000000042,0.4981431280515677,-0.0440699999999765,-0.1210550000000125,0.1288273182403521,0.3358599999999683,-0.4191739999999981,0.5371301349542559,0.0280399999999758,-0.1502979999999922,0.1528912371720378,0.2827399999999898,-0.4556050000000056,0.5362068850966009,-0.0671399999999948,-0.1826700000000016,0.1946178524699107,0.3985500000000002,-0.4426749999999941,0.5956536393954082,0.1254500000000007,-0.2193599999999946,0.2526984608184186,0.2396500000000401,-0.5353359999999867,0.5865294156272173,-0.1250099999999747,-0.2967719999999758,0.3220265828840522,0.3782199999999989,-0.3687900000000041,0.5282579223258296,0.0866199999999821,-0.2382149999999967,0.2534746745238966,0.1035699999999906,-0.5268700000000024,0.5369532026163925,-0.1476600000000303,-0.3433299999999946,0.3737364907257589,0.3906400000000189,-0.1162700000000001,0.4075761554605652,0.0907000000000266,-0.0614300000000014,0.1095451272307673,0.058680000000038,-0.4799000000000006,0.4834742520548588,-0.0943399999999314,-0.2909640000000024,0.3058759305600695,0.2726299999999924,0.1755200000000059,0.324244332718396,-0.1074899999999843,0.0853700000000117,0.1372666638335711,0.0268500000000244,-0.4013999999999953,0.4022970078188471,-0.2156999999999698,-0.2350799999999822,0.3190440352051399,0.0880399999999781,-0.0160999999999944,0.0895000089385245,-0.0185600000000363,-0.043169999999975,0.0469906639663582,-0.107939999999985,-0.0895399999999995,0.1402442697581497,-0.2040399999999635,-0.0887099999999918,0.222489967638956,0.2112000000000193,0.1256400000000042,0.2457454976189985,0.0862300000000004,0.0311599999999998,0.091687286468736,-0.0673700000000394,0.0613400000000012,0.0911115387862891,-0.2430500000000393,-0.0137400000000127,0.2434380621431649,0.170599999999979,0.088009999999997,0.1919638510240725,0.239879999999971,-0.0620600000000024,0.2477778400099298,-0.1339300000000207,0.0109999999999956,0.1343809692627846,-0.2092800000000352,-0.1269100000000094,0.2447534810784458,-0.0528199999999969,-0.065939999999955,137.716594,0.0304066745145318,107.1050282,0.675356760265298,96.682317,0.5377428019461821,0.0024564499999999,0.208602108,0.0776704682373869,0,0
16,533.3333333333334,493.80908,96.37906,0.950023,495.98822,94.2417,0.91047347,491.6204,94.08905,0.900543,499.2234,95.21057,0.7231283,487.88995,94.80182,0.67139673,503.7367,107.61679,0.99229866,482.91254,107.26469,0.9942372,507.93024,123.80209,0.96072346,477.74243,122.784134,0.96506584,507.61172,136.87177,0.93854076,477.47827,135.89636,0.94087034,499.7105,137.97923,0.99423426,487.0013,137.90605,0.99507564,498.08813,162.81216,0.9860021,488.31265,162.58678,0.9862336,496.6182,185.68932,0.96497536,490.35013,185.23747,0.9649788,0.97442645,-0.46967408,0.83249239,0.18939263,164.07825684588107,162.72927465909436,179.93838683888106,177.9013585967834,0.0605613791947276,137.94263999999998,107.44074,96.37906,30.451970000000017,91.60027,0.3324441037952826,-179.03132122474184,0.931694148235294,0.4078000000000088,0.4095549999999974,0.5779585954244517,0.1218200000000138,0.8174300000000017,0.8264574503868944,0.5242600000000266,0.4802099999999996,0.7109502033898207,0.1884000000000583,0.8993839999999977,0.918904858761786,0.387800000000027,0.3477100000000064,0.5208561069048009,0.1050600000000372,0.803315000000012,0.8101559064927115,0.5050000000000523,0.8256999999999977,0.9678871266837104,0.1064500000000521,1.2683749999999918,1.2728341381048005,0.3803699999999708,0.6090599999999995,0.7180775866854341,0.1407199999999306,1.1443959999999862,1.1530153178583311,0.94459999999998,1.250045,1.5668061979788572,0.566379999999981,1.6188350000000042,1.7150548275856934,0.0459399999999732,1.0541000000000054,1.0551006082834038,-0.0576300000000173,1.5809700000000078,1.5820200244624043,0.4365000000000236,1.116330000000005,1.198634606083118,0.0458600000000046,1.232600000000005,1.2334528363905986,-0.5230099999999993,0.1035739999999947,0.5331669847017895,-0.5816900000000373,0.5834739999999954,0.8238963313281823,-0.7406799999999976,-0.8663899999999956,1.1398414339284164,-1.01330999999999,-1.0419100000000014,1.4534007032473812,0.859170000000006,-1.3909800000000132,1.6349307169724494,0.8323199999999815,-0.989580000000018,1.293068118391295,1.219660000000033,0.2656100000000094,1.2482464450981168,1.131620000000055,0.2817100000000039,1.1661579432050044,0.7011600000000158,0.280319999999989,0.7551189628131557,0.8091000000000008,0.3698599999999885,0.889628703223987,-0.2462700000000381,-0.1468399999999974,0.2867244295486836,-0.4574700000000575,-0.2724800000000016,0.5324698595226339,0.7277200000000335,-0.1412200000000041,0.7412958159871468,0.7950900000000729,-0.2025600000000054,0.8204868443187362,-0.0855999999999994,-1.3831899999999848,1.385836186603582,-0.2561999999999784,-1.471199999999982,1.493341180038887,0.2434299999999893,-1.5729399999999885,1.591665294118069,0.3773600000000101,-1.583939999999984,1.6282710134372462,0.2729649999999992,0.3257849999999962,137.75920000000002,0.1067113924331978,107.0396466,0.6075958072103816,96.498717,0.4189810067830167,0.05158554,0.183398886,0.0497899135237306,0,0
17,566.6666666666666,493.47522,95.63278,0.95116365,495.88092,93.491646,0.9189552,491.35825,93.285385,0.89670336,499.4606,94.69238,0.7553758,487.8895,94.19231,0.64385223,504.12222,107.55917,0.9927785,482.9651,107.068695,0.9939249,508.2941,124.07097,0.96466964,477.88657,122.644745,0.9615848,507.48154,137.36058,0.9433727,477.43542,135.84796,0.9366901,499.6543,138.1219,0.9942484,486.69376,137.93808,0.9947633,497.99026,162.86624,0.9858596,487.89633,162.50552,0.98506874,496.87152,185.58517,0.9644141,490.39175,184.88959,0.96249765,0.95322779,-0.40187594,0.83568579,0.22083525,162.32152441668842,163.89859640707505,178.97180307464595,176.44119564990692,0.6896059871663418,138.02999,107.3139325,95.63278,30.858679999999996,92.299785,0.3343310026742639,-178.671978285251,0.932113098235294,-0.3338600000000156,-0.7462799999999987,0.8175550978374537,-0.7416600000000244,-1.1558349999999962,1.3733222865828063,-0.1073000000000092,-0.7500539999999916,0.7576901034829406,-0.6315600000000359,-1.2302639999999911,1.38290185598835,-0.2621500000000196,-0.8036649999999952,0.8453402005849494,-0.6499500000000467,-1.1513750000000016,1.3221570985042077,0.237199999999973,-0.5181900000000041,0.5698988647997042,-0.2678000000000793,-1.3438900000000018,1.3703128008232457,-0.0004500000000007,-0.6095100000000002,0.6095101661170225,-0.3808199999999715,-1.2185699999999997,1.2766897498217715,0.3855200000000423,-0.05762,0.3898021739293312,-0.5590799999999376,-1.307665,1.4221667267324638,0.0525600000000281,-0.1959949999999963,0.2029201656440323,0.0066200000000549,-1.2500950000000015,1.2501125283049543,0.3638599999999883,0.2688799999999958,0.4524274019110571,-0.0726400000000353,-0.8474500000000091,0.8505575066390401,0.144139999999993,-0.1393889999999942,0.2005134232937944,0.6671499999999924,-0.2429629999999889,0.7100141842730922,-0.1301799999999957,0.4888100000000008,0.5058478511370783,0.6105000000000018,1.3551999999999964,1.4863637811787505,-0.0428499999999871,-0.0483999999999866,0.0646427296762568,-0.9020199999999932,1.3425800000000263,1.6174551421291594,-0.0562000000000466,0.1426700000000096,0.1533400433676995,-1.2758600000000797,-0.1229399999999998,1.281769473501457,-0.3075400000000172,0.0320300000000202,0.309203448396055,-1.008700000000033,-0.2482899999999688,1.0388087476047028,-0.0978700000000003,0.054079999999999,0.1118176341191315,0.1484000000000378,0.2009199999999964,0.2497827183774125,-0.4163200000000415,-0.0812600000000145,0.4241762958959835,-1.144040000000075,0.0599599999999895,1.145610196882068,0.2533199999999738,-0.1041500000000041,0.273894587204617,0.3389199999999732,1.2790399999999806,1.3231818045907116,0.041620000000023,-0.3478800000000035,0.3503608408484093,-0.2018099999999663,1.225059999999985,1.2415712946504318,0.0873500000000149,-0.1856149999999843,137.814835,0.1607371338942343,106.93467850000002,0.4632032225255795,96.204585,0.4042799618765157,0.03144262,0.176373426,0.0380964320185627,0,0
18,600.0,493.4021,94.9863,0.95227635,495.90228,92.84918,0.92382324,491.32672,92.62486,0.8958909,499.62372,94.229065,0.77188295,487.99496,93.698425,0.63133913,504.3881,107.39868,0.9931954,483.0463,106.84407,0.9938905,508.69717,124.03082,0.96744746,477.94162,122.37767,0.9604173,508.08774,137.54466,0.947007,477.37128,135.52911,0.9355726,499.5905,137.93489,0.99450123,486.47632,137.69235,0.9948131,498.0682,162.54991,0.9864894,487.51343,162.12943,0.9851644,496.91574,185.29657,0.9660622,489.8658,184.50952,0.96319234,0.95489624,-0.35520331,0.86295243,0.20241184,162.89301663997298,164.2915438538316,179.36148941753973,176.4298501395564,1.276360591427906,137.81362,107.121375,94.9863,31.325890000000012,92.67171,0.3380307718716882,-178.51138788950485,0.9331156176470587,-0.0731199999999603,-0.6464799999999968,0.6506019711006032,0.2607400000000552,0.0998000000000018,0.2791870118756049,0.0213600000000155,-0.6424659999999989,0.6428209787771392,0.1286600000000248,0.1075879999999926,0.1677157516275821,-0.0315299999999751,-0.6605250000000069,0.6612771102382174,0.2306200000000444,0.1431399999999882,0.2714307351793771,0.1631199999999921,-0.4633149999999943,0.4911913309750003,-0.0740799999999808,0.0548750000000097,0.0921906287265589,0.1054599999999936,-0.4938850000000059,0.5050190143202575,0.1059099999999944,0.1156249999999943,0.1567994538415153,0.2658799999999814,-0.1604899999999958,0.3105627384281456,-0.1196400000000608,-0.1028699999999958,0.1577845572291968,0.081199999999967,-0.2246250000000031,0.2388510636882241,0.0286399999999389,-0.0286300000000068,0.04049600597586,0.4030700000000138,-0.040149999999997,0.4050647447014006,0.0392100000000255,-0.3090299999999928,0.311507568126358,0.0550499999999942,-0.2670750000000055,0.2726894903090368,-0.0890899999999987,-0.1276860000000113,0.1556943887749416,0.6062000000000012,0.1840799999999944,0.633532861341856,0.7363799999999969,-0.3047300000000064,0.7969415770933271,-0.0641400000000089,-0.3188499999999976,0.3252372397189467,-0.0212900000000217,-0.2704500000000109,0.271286687104264,-0.0637999999999578,-0.187010000000015,0.1975934718051187,-0.0075999999999112,-0.3296800000000246,0.3297675884619573,-0.2174400000000105,-0.2457300000000088,0.3281209936898414,0.0901000000000067,-0.2777600000000291,0.2920079238651194,0.0779400000000123,-0.3163299999999935,0.3257902891431816,0.1758100000000126,-0.3704099999999926,0.4100155170234402,-0.3828999999999496,-0.3760899999999765,0.5367085783737239,0.0334200000000919,-0.2948299999999619,0.2967180906179866,0.0442200000000525,-0.2886000000000024,0.2919680948323053,-0.2090999999999212,-0.1844499999999982,0.2788272090380822,-0.525950000000023,-0.3800699999999892,0.6489041588709508,-0.5675700000000461,-0.0321899999999857,0.5684821026206994,-0.2163699999999835,-0.3037199999999984,137.835684,0.150043298309304,106.9802425,0.4693114509076906,95.869005,0.5838818076673058,-0.01842341,0.17715949,0.0387023714726952,0,0
19,633.3333333333333,493.64783,94.51342,0.95157146,496.10965,92.370865,0.92108047,491.57138,92.159546,0.8967254,499.788,93.74899,0.76237154,488.21527,93.24156,0.6390053,504.57092,107.0323,0.9928953,483.2175,106.49058,0.9938778,508.83942,123.765335,0.96516997,477.9515,122.21243,0.96073633,508.27762,137.35826,0.9436974,477.09937,135.78362,0.9353564,499.66803,137.84506,0.99435496,486.56683,137.59372,0.99479127,498.0961,162.46906,0.98625654,487.50034,162.03658,0.9852787,496.92175,185.31218,0.9658581,489.84027,184.52664,0.9636283,1.17558621,-0.48858878,1.04644957,0.21960702,163.32267412016157,165.07469971010812,179.29028763809902,176.24730331539848,1.4374066030462709,137.71938999999998,106.76144,94.51342,31.74005,93.152634,0.340731638992284,-178.54676143106744,0.932509131764706,0.2457299999999804,-0.4728800000000035,0.5329153096881284,0.3188499999999408,0.1735999999999933,0.3630458407693991,0.2073699999999689,-0.4783150000000091,0.5213324813638566,0.1860099999999533,0.1641509999999897,0.2480831935077007,0.2446599999999534,-0.4653139999999922,0.5257144036413403,0.2761899999999286,0.1952110000000146,0.3382133211760978,0.1642800000000193,-0.4800749999999993,0.5074050886865501,0.0011600000000271,-0.0167600000000049,0.0168000952378321,0.2203099999999835,-0.4568649999999934,0.5072101382316669,0.1148499999999899,0.0370200000000124,0.1206689806868302,0.1828199999999924,-0.3663799999999924,0.4094599575049942,-0.083059999999989,-0.2058899999999965,0.2220127376976302,0.1711999999999989,-0.3534900000000078,0.3927653499228327,0.0900000000000318,-0.1288650000000046,0.1571820225884847,0.14224999999999,-0.2654850000000124,0.3011932066382038,-0.2608200000000238,-0.2253350000000153,0.3446780158713627,0.0098800000000096,-0.1652399999999971,0.1655351080586811,-0.0451699999999846,0.1018350000000083,0.1114033039231795,0.1898800000000164,-0.1863999999999919,0.2660815183360228,-0.4163199999999847,-0.3704799999999864,0.5572950500407995,-0.2719099999999912,0.2545100000000104,0.3724384354494049,-0.2077699999999822,0.5733600000000081,0.6098442936520779,0.0775299999999674,-0.0898300000000063,0.1186605654798429,0.1413299999999253,0.0971800000000087,0.1715171166384876,0.0905099999999947,-0.0986300000000142,0.1338653689346197,0.3079500000000053,0.1470999999999946,0.3412793760249829,0.0278999999999882,-0.080849999999998,0.0855285478656047,-0.050040000000024,0.2354799999999954,0.2407380983558694,-0.0130900000000337,-0.0928500000000269,0.0937681747716457,0.3698099999999158,0.2832399999999495,0.4658157722747365,0.0060099999999465,0.0156100000000094,0.0167269901655872,-0.0382100000001059,0.3042100000000118,0.3066002742986629,-0.0255300000000033,0.0171199999999771,0.0307388239853022,0.5004200000000196,0.3971899999999664,0.638889718574335,-0.0942300000000386,0.1221399999999448,137.835063,0.1506341445192134,106.985231,0.4661950866140505,95.49621299999998,0.7496612629346675,0.0171951799999999,0.194010766,0.0340054392012495,0,0
20,666.6666666666666,493.82443,94.05122,0.9513832,496.18036,91.79424,0.9187991,491.64508,91.68773,0.90540683,499.8401,92.82542,0.74129236,488.01517,92.43705,0.6869022,503.88315,105.6364,0.99340844,483.15887,105.21971,0.9950118,508.60452,122.41835,0.95546126,478.35745,122.028595,0.9548617,509.1973,137.65472,0.92008317,476.46033,137.29791,0.912991,498.93243,137.30728,0.99392337,486.04718,137.04308,0.99465007,498.82394,162.22255,0.98103344,486.15903,161.78107,0.9807772,497.56348,186.1644,0.95494145,488.2689,185.61867,0.9546613,1.20121238,-0.3638009,1.07494444,0.39376964,166.5147872061295,171.1404881805382,177.23582983244927,175.2009752283878,1.8604737056307783,137.17518,105.428055,94.05122,32.736969999999985,94.47667,0.3465085047291726,-178.84814517472185,0.9291522288235292,0.1766000000000076,-0.4621999999999957,0.4947892480642629,-0.0691299999999728,0.0106800000000077,0.0699501200856468,0.0707100000000195,-0.5766249999999928,0.5809443129293844,-0.1366599999999493,-0.0983099999999836,0.168347294899511,0.0737000000000307,-0.471816000000004,0.4775374622540187,-0.1709599999999227,-0.0065020000000117,0.1710835982903496,0.0520999999999958,-0.9235700000000122,0.925038353204894,-0.1121800000000234,-0.4434950000000128,0.4574627497676906,-0.2000999999999635,-0.8045100000000076,0.8290213206546606,-0.4204099999999471,-0.3476450000000142,0.5455287472947373,-0.6877700000000004,-1.3959000000000117,1.556137649085078,-0.8705899999999929,-1.0295200000000193,1.3482723680696076,-0.0586299999999937,-1.270869999999988,1.2722216920804206,-0.2298299999999926,-0.91737999999998,0.9457314065314528,-0.2349000000000387,-1.3469849999999894,1.3673136436915232,-0.3771500000000287,-1.081499999999977,1.1453752103568384,0.4059499999999616,-0.1838350000000019,0.4456351755920638,0.3960699999999519,-0.0185950000000048,0.3965062659340481,0.9196799999999712,0.2964599999999961,0.96628144657752,0.7297999999999547,0.4828599999999881,0.8750781791359686,-0.6390400000000227,1.5142899999999884,1.6436077164883334,-0.3671300000000315,1.259779999999978,1.3121852328463264,-0.7355999999999767,-0.5377799999999979,0.9112160492440656,-0.8131299999999442,-0.4479499999999916,0.9283531652339544,-0.519649999999956,-0.5506399999999871,0.7571264967625556,-0.6101599999999507,-0.4520099999999729,0.7593472629172475,0.7278400000000147,-0.2465100000000006,0.7684518499554944,0.6999400000000264,-0.1656600000000025,0.7192768863240622,-1.341310000000021,-0.2555099999999868,1.3654295573921236,-1.3282199999999875,-0.1626599999999598,1.3381429833915186,0.6417300000000523,0.8522199999999884,1.066815973493108,0.6357200000001058,0.836609999999979,1.0507407912992144,-1.5713700000000017,1.0920300000000225,1.913565571857953,-1.5458399999999983,1.074910000000045,1.882831063505192,-0.5442099999999641,-0.4499799999999254,137.736164,0.3353915264732105,106.8131085,0.8156005525906711,95.112556,0.9186952733522472,0.17416262,0.2452032759999999,0.084063768542717,0,0
21,700.0,493.76984,93.99516,0.9516746,496.16992,91.71856,0.92080986,491.58777,91.6026,0.90435946,499.93173,92.67598,0.7477259,487.99323,92.27432,0.67798305,504.03156,105.40457,0.99363977,483.22488,104.9407,0.99506205,508.9905,122.213135,0.9577938,478.3874,121.66295,0.95499337,509.7156,137.33719,0.9241403,476.09192,136.68306,0.91416365,498.88535,137.0062,0.9944636,485.94855,136.70097,0.9950564,498.81946,162.18823,0.9834188,486.00992,161.70953,0.9828812,497.7363,186.69829,0.9609701,488.11102,186.1011,0.9601652,1.19160438,-0.55540434,0.97545804,0.39991078,166.30750168739235,172.55480250595463,177.61951921111623,175.2172711360793,2.1895924683518238,136.853585,105.172635,93.99516,33.62367999999998,95.09569,0.3535773245498577,-178.7228432796244,0.9305471241176472,-0.0545900000000187,-0.0560600000000022,0.0782482696294448,-0.2311900000000264,0.4061399999999935,0.4673312697648285,-0.0104400000000168,-0.0756800000000055,0.0763967014994835,-0.0811500000000364,0.5009449999999873,0.5074753348932273,-0.0573100000000295,-0.0851300000000065,0.1026233550416497,-0.1310100000000602,0.3866859999999974,0.4082764782546428,0.0916300000000092,-0.1494399999999984,0.1752950954818794,0.0395300000000133,0.7741300000000138,0.7751386184419031,-0.0219400000000291,-0.1627299999999962,0.1642023644774948,0.1781599999999343,0.6417800000000113,0.6660499635913144,0.1484100000000126,-0.231829999999988,0.2752647398414809,0.836180000000013,1.1640700000000237,1.4332675804957276,0.0660100000000056,-0.2790099999999995,0.2867122254107775,0.1246399999999994,0.9918599999999884,0.9996606370163712,0.3859800000000177,-0.2052150000000097,0.4371427188287798,0.6208800000000565,1.1417699999999795,1.2996656136483815,0.0299500000000421,-0.3656450000000006,0.3668695524638192,-0.3759999999999195,-0.1818099999999987,0.4176492261455047,0.5183000000000106,-0.317530000000005,0.6078323707240461,-0.4013799999999605,-0.6139900000000011,0.7335459252834615,-0.368409999999983,-0.6148499999999899,0.7167750348609911,0.2706300000000396,-2.1291399999999783,2.146270657792239,-0.047079999999994,-0.3010799999999847,0.3047387287497115,0.6885199999999827,0.2367000000000132,0.7280705188372775,-0.0986300000000142,-0.342109999999991,0.3560437178212763,0.4210199999999418,0.2085299999999961,0.4698325247361546,-0.0044800000000009,-0.0343200000000081,0.0346111658283936,-0.7323200000000156,0.2121899999999925,0.7624415902218475,-0.1491099999999505,-0.0715399999999988,0.16538368631756,1.1922000000000708,0.1839699999999879,1.206310822673893,0.1728200000000015,0.5338899999999853,0.5611642223983857,-0.4689100000000508,-0.3183300000000031,0.5667544238910267,-0.1578799999999773,0.4824299999999937,0.5076069338572777,1.4134900000000243,-0.6096000000000288,1.539339514239826,-0.3215950000000021,0.222614999999962,137.518353,0.4870972947420626,106.3594875,0.991109099916576,94.635776,0.6862852209393034,0.00614114,0.287306906,0.1002782055302924,0,0
22,733.3333333333333,493.71515,94.02338,0.952266,496.15482,91.72412,0.9217271,491.51108,91.60539,0.9059233,499.99194,92.62393,0.7463735,487.90244,92.218666,0.67886615,503.99127,105.289665,0.99363434,483.22235,104.80556,0.9951338,509.04056,122.1308,0.95781523,478.39847,121.46451,0.95593417,510.1734,137.28857,0.9246576,475.7513,136.22772,0.9159846,498.7281,136.92993,0.9946367,485.79144,136.61359,0.9952566,498.71027,162.37488,0.98423684,485.72766,161.89745,0.9838604,497.7823,187.29584,0.9632576,487.55795,186.70953,0.9627185,1.02644483,-0.50995993,0.8590221,0.23581962,167.58442157216837,174.01632900042017,177.90763571593124,175.63662297411545,2.4314198405373517,136.77176,105.0476125,94.02338,34.4221,95.69045,0.3597234587179446,-178.66472827466325,0.9313107311764705,-0.0546899999999936,0.0282200000000045,0.0615415672533578,-9.999999997489796e-05,0.0842800000000068,0.0842800593260418,-0.015100000000018,0.0055600000000026,0.0160911031318731,-0.0046600000000012,0.0812400000000082,0.0813735411543662,-0.076689999999985,0.0027900000000045,0.076740733642556,-0.0193799999999555,0.0879200000000111,0.0900306103500372,0.0602099999999836,-0.0520499999999941,0.0795892367094786,-0.0314200000000255,0.0973900000000043,0.1023329296951985,-0.0907899999999699,-0.055654000000004,0.1064903367258973,-0.0688499999999407,0.1070759999999921,0.1273011872528696,-0.0402900000000272,-0.1149050000000073,0.1217638826787479,-0.1887000000000398,0.1169249999999806,0.2219890664537569,-0.0025299999999788,-0.1351400000000069,0.1351636804026945,-0.0685399999999845,0.1438699999999926,0.1593621928187352,0.0500600000000304,-0.0823350000000004,0.0963589945205071,-0.3359199999999873,0.1228800000000092,0.357689447426107,0.011069999999961,-0.1984399999999908,0.1987485308121685,-0.018880000000081,0.1672050000000098,0.168267544181896,0.4578000000000202,-0.0486199999999996,0.4603745696712824,-0.0604999999999904,0.2689100000000053,0.2756317073560327,-0.3406200000000012,-0.4553400000000067,0.5686444407536285,0.0277899999999817,0.1595099999999831,0.1619127054927858,-0.1572500000000332,-0.0762699999999938,0.1747703504602811,-0.1101700000000391,0.2248099999999908,0.2503536798211772,-0.1571099999999887,-0.0873800000000244,0.179774348837649,-0.0584799999999745,0.2547299999999666,0.2613566209224093,-0.1091900000000123,0.186649999999986,0.216242175812207,-0.1047100000000114,0.2209699999999941,0.244523874090036,-0.2822600000000079,0.1879199999999912,0.3390938424684252,-0.1331500000000574,0.25945999999999,0.2916306124192214,0.0459999999999922,0.5975500000000125,0.5993179477539565,-0.1268200000000092,0.0636600000000271,0.1419010500313715,-0.5530699999999911,0.6084299999999985,0.8222368818047439,-0.3951900000000137,0.1260000000000047,0.4147904725280126,-0.0818250000000091,0.2397699999999929,137.266707,0.4816781185294294,105.9062235,0.963327369183216,94.313896,0.4321249329530388,-0.16409116,0.29030378,0.0979928917280564,0,0
23,766.6666666666667,493.674,93.83818,0.95423716,496.12823,91.53294,0.9253322,491.4626,91.42052,0.908689,500.03113,92.38463,0.7535111,487.88223,92.00983,0.6799538,504.11142,105.00787,0.9939645,483.21768,104.566505,0.9953695,509.28268,121.79338,0.9604142,478.21173,121.20131,0.9580503,510.51993,137.02899,0.92893285,475.2385,136.10803,0.9197796,498.735,136.84648,0.9948639,485.73312,136.53311,0.99544746,498.8046,162.4513,0.98444194,485.7898,161.97855,0.9840041,497.7096,187.49554,0.96292776,487.44846,186.91801,0.9622883,0.99953975,-0.30509164,0.91650314,0.25694513,167.51971739638543,174.53170190358728,177.34072729839875,176.32263245786763,2.567421897615189,136.689795,104.7871875,93.83818,35.28143,96.07502,0.3672279186907489,-178.7898484800893,0.9330710394117648,-0.041150000000016,-0.1852000000000089,0.1897165319628329,0.0135399999999776,-0.2134200000000135,0.213849077622526,-0.0265899999999987,-0.1911800000000028,0.1930202592993828,-0.0114899999999806,-0.1967400000000054,0.1970752336038237,-0.0484799999999836,-0.1848700000000036,0.1911209755625995,0.0282100000000014,-0.1876600000000081,0.1897684897447496,0.0391900000000191,-0.2393,0.2424878267047678,-0.0210199999999645,-0.1872500000000059,0.1884261205353459,-0.02021000000002,-0.2088360000000051,0.2098116274089759,0.0705799999999499,-0.153182000000001,0.1686601954344689,0.1201500000000237,-0.2817950000000024,0.3063404062885063,0.160440000000051,-0.1668899999999951,0.2315021937261388,-0.0046700000000328,-0.2390549999999933,0.2391006104655467,-0.0021400000000539,-0.1039149999999864,0.1039370329814999,0.2421199999999999,-0.3374199999999945,0.4153003139897636,0.1920599999999694,-0.255084999999994,0.3193045581024255,-0.1867399999999861,-0.2631999999999976,0.3227166986692718,-0.1978099999999472,-0.0647600000000068,0.2081409467163537,0.3465299999999729,-0.2595799999999997,0.4329720745036348,-0.1112700000000472,-0.21096,0.2385060470931723,-0.512800000000027,-0.1196899999999914,0.5265828862582088,-0.1721800000000257,0.3356500000000153,0.3772358345915976,0.0069000000000301,-0.0834499999999991,0.0837347747354721,0.1641500000000633,-0.0071800000000052,0.1643069532917608,-0.0583200000000374,-0.0804799999999943,0.0993893998372233,0.0987899999999513,0.0069000000000301,0.0990306725211476,0.0943300000000135,0.076420000000013,0.1214008455489687,0.2035200000000259,-0.1102299999999729,0.2314541926602423,0.0621399999999994,0.0811000000000206,0.1021694161674777,0.3444000000000073,-0.1068199999999706,0.3605854578321188,-0.0726999999999975,0.1997000000000071,0.2125214812671944,-0.1186999999999898,-0.3978500000000053,0.415179855604775,-0.1094899999999938,0.2084800000000086,0.2354824207876296,0.4435799999999972,-0.3999499999999898,0.5972631069302619,-0.0819649999999967,-0.0001399999999875,137.041942,0.4210618539865081,105.439386,0.7742674966028166,94.084272,0.2537077537633366,0.02112551,0.301210438,0.0883225024924572,0,0
24,800.0,494.1669,93.48862,0.95648885,496.562,91.1716,0.92439884,491.85034,91.08186,0.91700643,500.263,92.091736,0.73674375,487.99942,91.75289,0.70971024,504.12915,104.84256,0.9939911,483.16043,104.477905,0.99585634,509.3901,121.58858,0.9588139,478.00345,121.18741,0.9633509,511.09494,137.01941,0.92710036,475.08514,136.20505,0.92754966,498.80875,137.14883,0.99485886,485.8009,136.90237,0.9957027,498.56735,163.00226,0.9835067,486.03198,162.61938,0.98408014,496.85623,188.10527,0.9597886,487.3192,187.709,0.96099585,1.03961135,-0.22009831,0.83765095,0.57505597,168.86392669368632,173.84540855434662,176.63549412366572,177.57783671228452,2.3708027327913896,137.0256,104.6602325,93.48862,36.009799999999984,97.02340999999998,0.3711454753945931,-179.00370234144563,0.9347025423529411,0.4929000000000201,-0.3495599999999967,0.6042703067336815,0.5340500000000361,-0.1643599999999878,0.558769730837341,0.4337700000000382,-0.3613399999999984,0.5645555849515901,0.4603600000000369,-0.1701599999999956,0.4908011361030377,0.3877400000000079,-0.3386599999999902,0.5148134644703842,0.4362199999999916,-0.1537899999999865,0.4625356770023135,0.231869999999958,-0.292894000000004,0.3735647094359729,0.1926799999999389,-0.0535940000000039,0.1999947480209839,0.1171899999999936,-0.2569400000000001,0.2824033634714689,0.1374000000000137,-0.048103999999995,0.1455773155955394,0.0177299999999718,-0.1653099999999909,0.1662580795029102,-0.1024200000000519,0.1164850000000115,0.1551083867010849,-0.0572499999999536,-0.0885999999999995,0.1054870726676715,-0.0525799999999208,0.1504549999999938,0.1593780518923161,0.1074199999999905,-0.2048000000000058,0.2312619648796584,-0.1347000000000093,0.1326199999999886,0.1890295066914144,-0.208280000000002,-0.0139000000000066,0.2087433074376302,-0.0215400000000158,0.2492999999999909,0.250228818484195,0.5750100000000202,-0.0095799999999997,0.5750897986401978,0.2284800000000473,0.25,0.3386784764345405,-0.1533599999999637,0.0970199999999863,0.1814722292803673,0.3594400000000632,0.2167099999999777,0.419714590763814,0.0737499999999613,0.3023499999999899,0.3112146927765272,0.0668499999999312,0.385799999999989,0.3915489273385669,0.0677800000000274,0.369259999999997,0.3754291890623337,0.1261000000000649,0.4497399999999913,0.4670838014746482,-0.2372500000000172,0.5509600000000034,0.5998703894175907,-0.3315800000000308,0.4745399999999904,0.5789071669965845,0.2421799999999621,0.640829999999994,0.6850651365381061,0.1800399999999626,0.5597299999999734,0.5879728518392298,-0.8533700000000408,0.6097299999999848,1.0488141064078282,-0.7806700000000433,0.4100299999999777,0.8817994385346644,-0.1292599999999879,0.7909899999999936,0.8014819571892974,-0.019769999999994,0.582509999999985,0.5828453937366086,0.3358049999999934,0.4177699999999902,136.903184,0.1963636263226191,105.0191445,0.3058592123908654,93.879312,0.2334848969839583,0.3181108399999999,0.372300228,0.1362597924389109,0,0
25,833.3333333333334,494.15173,93.41348,0.9581421,496.55466,91.07816,0.9262556,491.7828,90.99341,0.92089355,500.2441,91.98476,0.73557633,487.84503,91.66417,0.7183747,504.0265,104.70493,0.99408865,483.0568,104.4002,0.99605894,509.35815,121.45033,0.95937544,477.8973,121.269,0.9656033,511.24338,136.99883,0.9283215,474.63663,136.68271,0.93121076,498.72748,136.96985,0.99483454,485.69537,136.74469,0.9957628,498.4914,162.86328,0.9829406,485.80035,162.49994,0.98383236,496.78867,187.8591,0.9578431,486.8716,187.51015,0.959661,0.89823284,-0.25719078,0.62443071,0.59225115,169.25206184256504,174.9376473758666,176.62536905875632,177.78091483028624,2.3580043634714265,136.85727,104.552565,93.41348,36.60674999999998,96.86569,0.3779124437361415,-179.16744092588556,0.93581031,-0.0151700000000118,-0.0751399999999904,0.0766560402055762,-0.508070000000032,0.2744200000000063,0.5774439031629272,-0.0073399999999992,-0.093440000000001,0.0937278464491753,-0.4411100000000374,0.2678999999999973,0.5160895679046725,-0.0675400000000081,-0.0884500000000088,0.1112881579504425,-0.4552800000000161,0.2502099999999814,0.5195044970931487,-0.0188999999999737,-0.106976000000003,0.1086327509363528,-0.2507699999999317,0.1859180000000009,0.3121715804232764,-0.154389999999978,-0.088719999999995,0.1780660284837968,-0.2715799999999717,0.1682200000000051,0.3194583929089771,-0.1026499999999828,-0.1376300000000014,0.1716946108647469,-0.1203799999999546,0.0276799999999894,0.1235213617152454,-0.1036300000000096,-0.0777050000000088,0.129527000756612,-0.046380000000056,0.0108949999999907,0.0476424750092288,-0.0319499999999948,-0.1382499999999993,0.1418938511705122,-0.1393699999999853,0.0665500000000065,0.1544438389836149,-0.1061500000000137,0.0815900000000056,0.1338833469853657,0.1021299999999882,0.0954900000000122,0.1398172986436226,0.1484399999999937,-0.0205799999999953,0.1498598345121131,-0.4265700000000265,-0.0109999999999956,0.4267118054378417,-0.4485099999999988,0.477659999999986,0.6552253777899522,-0.2951500000000351,0.3806399999999996,0.4816641278941379,-0.0812699999999608,-0.1789799999999957,0.1965671724881652,-0.1550199999999222,-0.4813299999999856,0.5056775348974503,-0.1055299999999874,-0.1576799999999991,0.1897355088010599,-0.1733100000000149,-0.5269399999999962,0.5547090405789338,-0.0759499999999775,-0.1389800000000036,0.1583787956135467,0.1613000000000397,-0.6899400000000071,0.7085442072305881,-0.2316299999999955,-0.1194399999999973,0.2606115317862916,-0.4738099999999576,-0.7602699999999913,0.8958272093433793,-0.0675599999999576,-0.246169999999978,0.2552724475927307,0.7858100000000832,-0.8558999999999628,1.161921755584285,-0.4476000000000226,-0.1988499999999931,0.4897826890571139,-0.3183400000000347,-0.9898399999999868,1.0397709272719622,-0.1683299999999974,-0.5041349999999909,136.839602,0.1246471146179074,104.84404650000002,0.2604762541996182,93.751764,0.2846776329106164,0.0171951799999999,0.41199653,0.1690454189091121,0,0
26,866.6666666666667,493.93033,93.43158,0.9600244,496.36807,91.07709,0.92924297,491.52744,90.99437,0.92481804,500.15936,91.95795,0.7374363,487.5897,91.65601,0.72419506,503.93176,104.675964,0.9941565,482.9204,104.40963,0.9962096,509.38855,121.49344,0.9597605,477.86227,121.48042,0.96732974,511.30087,137.01045,0.9290961,474.53168,137.06851,0.9339317,498.5134,137.39606,0.9947173,485.33755,137.14949,0.9957396,498.29266,163.68597,0.9816316,484.7467,163.29819,0.9828818,496.6882,188.89012,0.9538153,485.17712,188.53436,0.95638055,0.89585359,-0.3367799,0.61116585,0.56179112,169.04895384093868,175.55588331570706,176.83861198531773,177.72845219721012,2.6250984373005277,137.272775,104.542797,93.43158,36.76918999999998,97.89575,0.3755953616413851,-179.2737739520037,0.9365510035294118,-0.22139999999996,0.0180999999999897,0.2221386278880419,-0.2062299999999481,0.0932399999999802,0.226328324564061,-0.1865900000000238,-0.0010699999999985,0.1865930679312843,-0.1792500000000245,0.0923700000000025,0.2016501410860138,-0.255359999999996,0.0009600000000062,0.2553618045048985,-0.1878199999999878,0.089410000000015,0.2080156256149959,-0.0847400000000107,-0.0268099999999975,0.0888799398064697,-0.0658400000000369,0.0801660000000055,0.1037376168803089,-0.2553300000000149,-0.0081600000000037,0.2554603579814443,-0.1009400000000368,0.0805599999999913,0.129146417681661,-0.0947400000000016,-0.0289660000000111,0.0990691513842777,0.0079099999999812,0.1086639999999903,0.1089515167218777,-0.1364000000000373,0.0094300000000089,0.1367255824635988,-0.0327700000000277,0.0871350000000177,0.0930934000077605,0.0303999999999859,0.0431100000000128,0.0527506597115169,0.0623499999999808,0.1813600000000121,0.1917784453477554,-0.0350299999999492,0.2114199999999897,0.2143023968601193,0.0711200000000644,0.1298299999999841,0.1480333857614728,0.0574899999999729,0.0116199999999935,0.0586525745385208,-0.0909500000000207,0.0321999999999889,0.0964818247132746,-0.1049500000000307,0.3858000000000174,0.3998201376869604,0.3435599999999681,-0.0918599999999685,0.3556286450779413,-0.214080000000024,0.4262099999999975,0.4769540968479128,-0.1328100000000631,0.6051899999999932,0.6195913429027302,-0.3578200000000038,0.4047999999999945,0.5402760335236038,-0.2522900000000163,0.5624799999999937,0.6164689728607605,-0.1987399999999866,0.8226899999999944,0.8463547859497135,-0.122790000000009,0.961669999999998,0.9694774742096892,-1.0536500000000046,0.7982499999999959,1.3218855415655333,-0.8220200000000091,0.9176899999999932,1.2320194058942426,-0.1004700000000298,1.0310199999999838,1.0359036930622327,-0.0329100000000721,1.277189999999962,1.2776139339408863,-1.6944799999999989,1.0242099999999823,1.9799668165148523,-1.246879999999976,1.2230599999999754,1.746592539203085,0.415504999999996,0.5838349999999934,136.92344,0.2315420507976228,104.7180789,0.2090652970226308,93.639048,0.2756433912133165,-0.0304600299999999,0.444372598,0.1812158378571885,0,0
27,900.0,493.8341,93.94728,0.9605545,496.0867,91.69704,0.92849684,491.5008,91.628784,0.92029506,499.667,92.4303,0.74537164,487.911,92.31123,0.69261545,504.6696,105.14609,0.99372417,483.15753,105.13306,0.99576664,509.62982,121.51216,0.9678707,477.44022,121.339005,0.9748557,510.8835,135.39066,0.9497337,475.12537,136.17044,0.95561814,499.3528,137.05078,0.9957035,485.99976,136.94019,0.9965403,498.53238,163.36694,0.98934096,485.36606,163.06972,0.99000555,496.0578,188.2171,0.9719396,484.0614,187.77107,0.9729689,0.94162885,-0.30238954,0.740621,0.49669508,168.300682805129,169.43861904772717,176.0988775374084,178.36587411379463,2.224298951363391,136.995485,105.139575,93.94728,35.75813000000005,96.588316,0.3702117513860403,-179.9652955798417,0.9412589029411764,-0.0962300000000482,0.5157000000000096,0.524601470546947,0.1251699999999118,0.4976000000000198,0.5131016360332499,-0.2813699999999812,0.6199500000000029,0.6808135423153633,-0.0947799999999574,0.6210200000000015,0.6282110225075598,-0.0266399999999862,0.6344139999999925,0.6349730805286077,0.2287200000000098,0.6334539999999862,0.6734811122191825,-0.4923600000000192,0.4723500000000058,0.6822997084126773,-0.4076200000000085,0.4991600000000034,0.6444491989288297,0.3213000000000079,0.6552199999999999,0.7297581369193529,0.5766300000000228,0.6633800000000036,0.8789625596690858,0.7378400000000056,0.4701260000000076,0.8748864620486566,0.8325800000000072,0.4990920000000187,0.9707122544111776,0.237130000000036,0.7234299999999934,0.761302569153689,0.3735300000000734,0.7139999999999844,0.8058043564662781,0.2412699999999858,0.0187199999999876,0.2419951472653795,0.2108699999999999,-0.0243900000000252,0.2122758323502729,-0.4220500000000129,-0.1414149999999949,0.445111676689131,-0.3870200000000636,-0.3528349999999847,0.5237146337701845,-0.4173699999999485,-1.6197899999999947,1.672697629878138,-0.4748599999999214,-1.6314099999999885,1.699114654077201,0.593689999999981,-0.8980699999999899,1.0765674809318546,0.6986400000000117,-1.2838700000000074,1.4616497619128994,0.8394000000000119,-0.3452800000000025,0.9076401480763296,1.053480000000036,-0.77149,1.3057629687275083,0.6622099999999591,-0.2092999999999847,0.6944987934474325,1.020029999999963,-0.6140999999999792,1.1906216909244929,0.239719999999977,-0.3190299999999979,0.3990561605839304,0.4384599999999636,-1.1417199999999923,1.2230174692129097,0.6193600000000288,-0.2284700000000157,0.6601555502304308,1.6730100000000334,-1.0267200000000116,1.9629356633624384,-0.6304000000000087,-0.6730200000000082,0.9221497060673076,-0.5299299999999789,-1.704039999999992,1.7845386312713856,-1.1157200000000105,-0.7632899999999836,1.3518294058423193,0.5787599999999884,-1.787499999999966,1.8788611943408335,-0.2772899999999936,-0.6927949999999896,136.968185,0.2159976676090934,104.7364714,0.2460733336739523,93.623828,0.2500273755403109,-0.0650960399999999,0.49654769,0.1387342927371068,0,0
28,933.3333333333334,493.46408,94.186676,0.9618556,495.76215,91.9133,0.93163985,491.11517,91.8475,0.92170423,499.4901,92.53285,0.75314826,487.608,92.43756,0.6898728,504.5751,105.12143,0.9939985,483.05328,105.116425,0.9959579,509.53375,121.441315,0.9696407,477.52768,121.2486,0.9760423,510.85992,135.38832,0.95246404,475.0618,136.0722,0.9577354,499.24512,136.99307,0.99594206,485.81583,136.85396,0.9967399,498.49948,163.16666,0.9898803,484.57285,162.82162,0.9905007,496.1456,187.85599,0.97328365,482.78485,187.33943,0.97425437,0.97013293,-0.24269769,0.83765095,0.42496661,168.5307838064657,170.53718818700452,176.1856977601874,178.56944950455014,2.311395082489992,136.923515,105.1189275,94.186676,35.79811999999998,96.00849,0.3728641042801098,-179.986675598472,0.942627091764706,-0.370019999999954,0.2393959999999992,0.4407099331941199,-0.2737899999999058,-0.2763040000000103,0.3889792597503807,-0.3245499999999879,0.2162600000000054,0.3900013975615914,-0.0431800000000066,-0.4036899999999974,0.4059927690242752,-0.3856300000000487,0.2187160000000005,0.4433364248017952,-0.3589900000000625,-0.4156979999999919,0.5492528081894877,-0.1768999999999891,0.1025499999999937,0.20447521243416,0.31546000000003,-0.3698000000000121,0.4860730928574713,-0.3029999999999972,0.12633000000001,0.3282807775365485,-0.6243000000000052,-0.5288899999999899,0.818214594162189,-0.0944999999999822,-0.0246599999999972,0.097664556518711,-0.8323399999999879,-0.4947860000000048,0.9682990557653068,-0.1042500000000359,-0.0166349999999937,0.1055688672147583,-0.3413800000000719,-0.7400649999999871,0.8150070604755704,-0.0960699999999974,-0.0708449999999913,0.1193669088357333,-0.3373399999999833,-0.089564999999979,0.3490274556893554,0.0874599999999645,-0.090405000000004,0.1257867863688175,0.5095099999999775,0.0510099999999908,0.5120570868565106,-0.0235800000000381,-0.0023400000000037,0.0236958224166585,0.3937899999999104,1.617449999999991,1.6646966890697836,-0.0635699999999701,-0.0982400000000041,0.1170138560171273,-0.6572599999999511,0.7998299999999858,1.0352384925706315,-0.1076800000000162,-0.0577100000000143,0.1221696627645552,-0.947080000000028,0.2875699999999881,0.9897762531501988,-0.1839299999999752,-0.0862300000000004,0.2031399955695357,-0.8461399999999344,0.1230699999999842,0.8550433465619653,-0.0328999999999837,-0.2002799999999922,0.2029642539956132,-0.2726199999999608,0.1187500000000056,0.2973604326402219,-0.7932099999999878,-0.2480999999999937,0.8311051161555784,-1.4125700000000163,-0.019629999999978,1.4127063890986145,0.0878000000000156,-0.3611099999999965,0.3716305586197133,0.7182000000000244,0.3119100000000117,0.7830064419275503,-1.276549999999986,-0.4316400000000158,1.3475507382284269,-0.1608299999999758,0.3316499999999678,0.3685892176935875,-0.0719699999999932,0.2053200000000004,137.014929,0.1582635292560112,104.8028194,0.3016200433864001,93.6935272,0.3523549179716204,-0.0717284699999999,0.530151986,0.0690236130469056,0,0
29,966.6666666666666,492.91522,94.158844,0.96114993,495.23514,91.850006,0.93179476,490.55722,91.806694,0.91906613,499.1103,92.36669,0.7567306,487.16116,92.34691,0.67850435,504.5128,104.92985,0.99385947,482.7795,104.989685,0.9957384,509.77872,121.39078,0.9692085,477.46658,121.17442,0.97462434,510.78455,135.48523,0.9516247,475.0687,135.85486,0.9556703,499.21063,136.98834,0.99583757,485.6192,136.85956,0.99660647,498.59567,163.29082,0.9897629,484.28555,162.94693,0.99025893,496.30713,188.11696,0.9730926,482.4628,187.5769,0.9738119,0.88358204,-0.2210809,0.740621,0.42816,166.34221892769355,171.10336183703873,176.07255406567552,178.69406868600942,2.2059440054288,136.92395,104.9597675,94.158844,35.715850000000046,96.310266,0.3708415635479449,179.84225661518272,0.941608344117647,-0.5488600000000474,-0.0278320000000036,0.5495652098013959,-0.1788400000000933,-0.2672280000000029,0.3215502287109044,-0.5270100000000184,-0.0632940000000132,0.5307972028336444,-0.2024600000000305,-0.2795540000000187,0.3451673369773316,-0.5579500000000053,-0.0408060000000034,0.5594401953167167,-0.1723199999999565,-0.259522000000004,0.3115218305094959,-0.3797999999999888,-0.1661599999999907,0.4145566132628792,-0.2028999999999996,-0.2687099999999844,0.3367097772563064,-0.4468400000000088,-0.0906500000000107,0.4559423297962252,-0.1438400000000115,-0.2169800000000208,0.2603272286949875,-0.0622999999999933,-0.1915800000000018,0.2014551721847813,0.0321999999999889,-0.1669200000000046,0.1699974305688201,-0.2737799999999879,-0.1267400000000123,0.3016927509901365,-0.169529999999952,-0.1101050000000185,0.2021473025419528,0.2449700000000234,-0.0505349999999964,0.2501281414095805,0.3410400000000209,0.0203099999999949,0.3416442267915763,-0.0610999999999535,-0.0741799999999983,0.0961034983754185,-0.1485599999999181,0.0162250000000057,0.1494433813354604,-0.0753699999999639,0.0969100000000082,0.1227688274766692,-0.0517899999999258,0.099250000000012,0.1119498396604243,0.0068999999999732,-0.2173400000000072,0.2174495012640929,0.0704699999999434,-0.119100000000003,0.1383865271621221,-0.0344900000000052,-0.004729999999995,0.0348128280954063,0.0731900000000109,0.0529800000000193,0.0903529551260148,-0.1966300000000274,0.0055999999999869,0.1967097275175038,-0.0127000000000521,0.0918299999999874,0.092704039286317,0.0961899999999786,0.1241599999999891,0.1570612036754882,0.1290899999999624,0.3244399999999814,0.3491783809172301,-0.2873000000000161,0.1253100000000131,0.3134388075845308,0.5059099999999717,0.3734100000000069,0.6287924587651926,0.1615299999999706,0.2609700000000146,0.3069157568454219,0.073729999999955,0.6220800000000111,0.6264340662033053,-0.3220499999999902,0.2374700000000018,0.4001352313905819,0.954499999999996,0.6691100000000176,1.165666522681344,0.0004349999999817,0.0724049999999749,136.994599,0.1630077777824372,104.8627264,0.295912166481313,93.827572,0.3812180067200424,0.0031933899999999,0.500772792,0.0760383930342092,0,0
30,1000.0,492.3521,93.747635,0.96349484,494.91675,91.39589,0.9333371,489.9275,91.29518,0.92583597,498.89938,91.95889,0.7644139,486.42715,91.70984,0.7208124,503.97562,104.57881,0.994921,481.64536,104.62935,0.9967154,510.0125,121.20134,0.9669161,477.37143,121.36273,0.9752025,511.26837,136.7162,0.94406396,474.7184,137.11029,0.95179963,498.77307,137.13934,0.995598,484.70175,137.0847,0.9965906,498.31683,163.09523,0.9857076,483.94348,162.88644,0.9871523,496.21622,187.64532,0.96013695,482.9536,187.30058,0.96280056,0.90594804,-0.20953556,0.75929005,0.44756599,164.66805500654365,175.2351662938297,176.11645376005296,179.36152845780003,1.8906880249856532,137.11202,104.60408,93.747635,36.54997000000003,96.35014,0.3793452673826397,179.8703228823964,0.9426764005882354,-0.5631199999999694,-0.4112089999999995,0.6972782630205571,-0.014259999999922,-0.3833769999999958,0.3836421141232993,-0.3183900000000221,-0.4541159999999991,0.5546111552754897,0.2086199999999962,-0.3908219999999858,0.443017087801348,-0.6297199999999634,-0.5115139999999911,0.8112914708019213,-0.0717699999999581,-0.4707079999999877,0.4761480380763764,-0.2109199999999873,-0.4078000000000088,0.4591166370324668,0.1688800000000014,-0.241640000000018,0.2948056037459418,-0.734010000000012,-0.6370699999999943,0.9719201947691026,-0.2871700000000032,-0.5464199999999835,0.6172855297996089,-0.5371800000000349,-0.3510399999999976,0.6417097739633049,-0.4748800000000415,-0.1594599999999957,0.5009376268559171,-1.134140000000002,-0.3603349999999921,1.190006240246243,-0.8603600000000142,-0.2335949999999798,0.8915076856791617,0.2337799999999674,-0.1894400000000047,0.3008996543700018,-0.0111900000000559,-0.1389050000000082,0.1393549967708497,-0.0951500000000464,0.1883100000000013,0.2109838349258287,-0.0340500000000929,0.2624899999999996,0.2646892566765907,0.4838199999999801,1.230969999999985,1.3226371132324783,0.5591899999999441,1.1340599999999768,1.2644309153527862,-0.3503000000000043,1.2554299999999898,1.3033858119912067,-0.3571999999999775,1.472769999999997,1.5154680177753588,-0.4375599999999622,0.1510000000000104,0.4628820082914976,-0.4030699999999569,0.1557300000000054,0.4321079237875267,-0.917449999999974,0.2251400000000103,0.9446705892002548,-0.7208199999999465,0.2195400000000233,0.7535113031666699,-0.2788400000000024,-0.1955900000000099,0.3405982878700438,-0.3750299999999811,-0.3197499999999991,0.492836243999957,-0.3420699999999783,-0.0604900000000157,0.3473772085212083,-0.0547699999999622,-0.1858000000000288,0.1937043956651644,-0.0909099999999512,-0.4716400000000078,0.4803216814802331,-0.2524399999999218,-0.7326100000000224,0.7748828077199761,0.4907999999999788,-0.2763199999999983,0.563238299834074,0.812849999999969,-0.5137900000000002,0.9616159766767344,0.1880700000000104,0.1876350000000286,137.045549,0.148521940273378,104.8730294,0.2830296575558179,93.894403,0.3138050753614583,0.01940599,0.47183576,0.0578862322852882,0,0
31,1033.3333333333337,492.13232,93.49843,0.96226263,494.66064,91.11627,0.9302254,489.65695,91.06063,0.9255135,498.54608,91.76022,0.75510365,486.01315,91.623566,0.72654,503.76367,104.55315,0.99457645,481.05762,104.90446,0.99652547,509.86722,121.1113,0.96365064,476.7886,122.06186,0.9736452,510.99792,136.31808,0.93846226,474.2151,137.9497,0.948311,498.8304,137.37665,0.99516135,484.4935,137.46758,0.99627113,498.3151,163.2878,0.9841458,483.47107,163.22253,0.98587835,496.19626,187.687,0.9563036,482.54645,187.53796,0.95948976,0.97421696,-0.16310857,0.82979029,0.48367587,164.01785705616592,175.22848203333822,176.17615464244813,179.90427247992562,1.3119524543845216,137.42211500000002,104.728805,93.49843,36.782820000000015,96.62637,0.3806706142363559,179.11358539385037,0.940709775882353,-0.2197800000000143,-0.2492050000000034,0.3322745557893471,0.3433399999999551,0.162003999999996,0.379641477733885,-0.2561099999999783,-0.2796199999999942,0.3791829063921337,0.0622800000000438,0.1744960000000048,0.1852772312401261,-0.2705500000000143,-0.2345499999999987,0.3580656434231119,0.3591699999999491,0.2769639999999924,0.4535550090076828,-0.3532999999999902,-0.1986699999999928,0.4053278412593813,-0.1423800000000028,0.209130000000016,0.2529968800203028,-0.4139999999999872,-0.086274000000003,0.4228938437433087,0.3200100000000248,0.5507959999999912,0.6370107014140391,-0.2119500000000016,-0.025660000000002,0.2134976301976225,0.3252300000000332,0.3253799999999955,0.460050755134712,-0.5877399999999966,0.2751099999999979,0.6489405363359534,0.5464000000000055,0.63544499999999,0.8380592509035345,-0.1452800000000138,-0.0900400000000019,0.1709195132218798,-0.3790599999999813,0.0994000000000028,0.3918760564259909,-0.5828300000000013,0.6991299999999967,0.9102052327909332,-0.4876799999999548,0.5108199999999954,0.7062356935187794,-0.2704499999999825,-0.3981199999999774,0.4812927766962356,-0.7542699999999627,-1.6290899999999624,1.7952318683111164,-0.5032999999999674,0.8394100000000151,0.9787338954486008,-0.1529999999999631,-0.4160199999999747,0.4432624960449143,0.057329999999979,0.2373100000000079,0.2441367751896492,0.4948899999999412,0.0863099999999974,0.50235995879443,-0.2082500000000209,0.3828800000000001,0.4358499247447552,0.709199999999953,0.1577399999999897,0.7265304863527271,-0.0017300000000091,0.1925700000000176,0.1925777707836676,0.2771099999999933,0.3881600000000276,0.4769257150752282,-0.4724100000000248,0.3360900000000129,0.5797652078212628,-0.1303400000000465,0.3965800000000286,0.4174496520540349,-0.0199600000000259,0.0416800000000137,0.0462128120763298,0.0709499999999252,0.5133200000000215,0.518200081918183,-0.4071500000000014,0.2373800000000017,0.4712964957433929,-0.8979499999999803,0.5137,1.0345056270992268,0.3100950000000182,0.1220250000000078,137.075417,0.2085334967878566,104.910231,0.2373028616333251,93.907773,0.2896507397670698,0.0361098799999999,0.4562127099999999,0.0325234012224864,0,0
32,1066.6666666666667,491.99017,93.440414,0.9608684,494.52924,91.038765,0.9277657,489.48047,90.99382,0.9238497,498.37946,91.76065,0.7493992,485.74387,91.651505,0.724779,503.5801,104.705086,0.994132,480.72913,105.15611,0.99617684,509.6718,121.30191,0.9601452,476.43256,122.5385,0.97084755,510.72144,136.14651,0.93249846,473.75626,138.25311,0.94304067,498.6343,137.65883,0.99448484,484.19046,137.7983,0.9957104,498.0987,163.50006,0.9817676,483.14728,163.491,0.9836817,496.0125,187.62943,0.950328,482.24072,187.54662,0.95377016,0.98918872,-0.21665928,0.84084434,0.47385005,163.88940681233905,175.78106415545673,176.24592872507085,179.83313810037666,1.2964890868504206,137.728565,104.930598,93.440414,36.965179999999975,96.63561,0.3825213046979128,178.86926390074314,0.9378379658823528,-0.1421500000000151,-0.0580159999999949,0.1535333148082321,0.0776299999999992,0.1911890000000085,0.2063483719853469,-0.131399999999985,-0.0775050000000021,0.1525548590671448,0.1247099999999932,0.202114999999992,0.2374932784838238,-0.1764799999999695,-0.0668100000000038,0.1887028523896493,0.0940700000000447,0.1677399999999949,0.1923171144230453,-0.166620000000023,0.0004299999999943,0.1666205548544587,0.1866799999999671,0.1990999999999871,0.2729289878338001,-0.2692799999999806,0.0279390000000034,0.270725518045473,0.1447200000000066,0.1142130000000065,0.1843596695836793,-0.1835699999999747,0.151935999999992,0.2382907740471466,0.0283800000000269,0.1775959999999941,0.1798492802765677,-0.3284899999999879,0.2516499999999979,0.4138035797331761,0.2592500000000086,-0.02346,0.2603093046742749,-0.1954199999999559,0.1906100000000066,0.2729856195845951,-0.0501399999999421,0.2806500000000085,0.2850937426531824,-0.3560399999999504,0.4766400000000033,0.5949371153323415,0.2267900000000509,-0.2224899999999934,0.3177034847149463,-0.2764800000000491,-0.1715700000000026,0.3253881609709058,-0.0060300000000665,0.2265499999999747,0.2266302349643342,-0.4588400000000092,0.3034099999999853,0.5500834243094401,0.0444599999999582,-0.5360000000000298,0.5378407678858383,-0.1961000000000012,0.2821799999999825,0.343628814856948,-0.2534299999999803,0.0448699999999746,0.2573714859886147,-0.3030400000000099,0.3307200000000136,0.448563217395291,-0.094789999999989,-0.0521599999999864,0.108193390278688,-0.2163999999999646,0.2122599999999863,0.3031225290208217,-0.2146699999999555,0.0196899999999686,0.2155711135564773,-0.323789999999974,0.2684700000000077,0.4206139619651104,0.1486200000000508,-0.0676200000000051,0.163280031847179,-0.1837600000000065,-0.0575699999999983,0.1925669818530742,-0.1637999999999806,-0.099250000000012,0.19152285111703,-0.3057299999999827,0.0086599999999918,0.3058526254587155,0.1014200000000187,-0.2287200000000098,0.2501976314836099,0.3064499999999839,-0.0036450000000343,137.22203299999998,0.3488111255143222,104.8684356,0.2026897010239183,93.8063998,0.353931917051566,-0.0098258199999999,0.451643704,0.0264526034192943,0,0
33,1100.0,491.54672,93.38788,0.961027,494.12305,90.99053,0.9301922,489.08386,90.91721,0.9216727,498.06137,91.622055,0.7607832,485.44028,91.449715,0.7105082,503.37436,104.50097,0.99433786,480.3236,104.88057,0.99607444,509.5738,121.08461,0.9625974,475.8063,122.32616,0.9695423,510.37683,135.85783,0.935938,473.35657,138.37727,0.94137555,498.2467,137.77182,0.99471694,483.62766,137.85191,0.99574345,497.82822,163.8219,0.9826444,482.2193,163.7369,0.9838365,496.02524,188.26483,0.95246434,481.3608,188.0619,0.95444536,0.99250759,-0.22304606,0.84772241,0.46549811,162.61418791290407,174.1604264649086,176.70168454876102,178.90699190306253,1.5769762661012667,137.811865,104.69077,93.38788,37.02026000000001,97.34762,0.3802893139011585,179.0565381746448,0.9381117552941176,-0.4434499999999843,-0.0525340000000085,0.44655091944367,-0.3012999999999692,0.0054819999999864,0.3013498669718992,-0.4061900000000378,-0.0482349999999911,0.4090439234666979,-0.2747900000000527,0.029270000000011,0.2763444897225736,-0.3966100000000097,-0.0766100000000022,0.403941312816612,-0.2201300000000401,-0.0097999999999984,0.2203480358433395,-0.3180899999999838,-0.1385949999999951,0.3469723650739181,-0.1514699999999607,-0.1390249999999895,0.2055993957310798,-0.3035900000000424,-0.2017900000000025,0.3645354471104652,-0.0343100000000617,-0.229729000000006,0.2322769673062893,-0.2057399999999916,-0.204115999999999,0.2898142319762716,-0.0221700000000169,-0.3560519999999911,0.3567415529539479,-0.4055299999999988,-0.2755399999999923,0.4902824415579196,-0.0770400000000108,-0.5271899999999903,0.5327893183050796,-0.0980000000000131,-0.2173000000000087,0.2383763620831696,0.0974199999999427,-0.4079100000000153,0.419381955381966,-0.626260000000002,-0.2123399999999975,0.6612789601975867,-0.2702200000000516,-0.6889800000000008,0.7400758669217832,-0.3446099999999887,-0.2886799999999994,0.4495466544197519,-0.0681299999999396,-0.1171099999999967,0.1354859734437148,-0.399690000000021,0.1241600000000175,0.4185305266047163,0.0591499999999882,-0.1792499999999677,0.1887572117827211,-0.3876000000000204,0.1129899999999963,0.4037332041088706,-0.1915000000000191,-0.1691899999999861,0.2555337670445975,-0.5627999999999815,0.0536099999999919,0.5653475675192902,-0.2597599999999715,-0.2771100000000217,0.3798226029345769,-0.2704800000000205,0.3218400000000088,0.4204050618154076,-0.0540800000000558,0.1095800000000224,0.1221982929504784,-0.9279800000000478,0.2458999999999775,0.9600071303902268,-0.6041900000000737,-0.0225700000000301,0.6046114132234773,0.0127400000000079,0.6353999999999758,0.6355277079718629,0.1965000000000145,0.6929699999999741,0.7202913791653832,-0.8799200000000269,0.5152800000000184,1.019692446181723,-0.5741900000000442,0.5066200000000265,0.7657401520751524,0.0833000000000083,-0.2231499999999755,137.399703,0.3832859417361468,104.7828041,0.1553122372039343,93.6466406,0.3178069509991528,-0.00835194,0.459750004,0.0220832381769061,0,0
34,1133.3333333333333,491.15762,93.430534,0.9611429,493.78387,91.046326,0.9314901,488.75067,90.91727,0.91996896,497.78424,91.56306,0.76774937,485.1787,91.25888,0.70096505,503.11984,104.35088,0.9944089,479.92267,104.58981,0.99595684,509.38876,120.95076,0.9638546,475.3234,122.156784,0.9684216,509.80157,135.45035,0.93777066,472.90515,138.58707,0.93991184,497.72516,138.01114,0.9946075,483.07324,138.02142,0.9955474,497.4349,164.1015,0.9818788,482.28143,163.92917,0.9826943,495.91086,188.50238,0.94951373,482.1505,188.14293,0.9506997,1.0866965,-0.29649405,0.92608331,0.48514974,160.94182691004983,173.7013216092254,177.06343760243172,178.5592392483638,1.915784092742198,138.01628,104.470345,93.430534,36.89642000000004,97.58511,0.3780947689858142,179.40987644093724,0.9374460147058824,-0.3890999999999849,0.0426539999999988,0.3914309309648232,0.0543499999999994,0.0951880000000073,0.1096114859127516,-0.3391799999999989,0.0557959999999866,0.3437386594725676,0.0670100000000388,0.1040309999999777,0.1237448546849548,-0.3331900000000019,6.000000000483397e-05,0.3331900054023248,0.0634200000000078,0.0766700000000071,0.099500679897185,-0.2771299999999996,-0.0589950000000101,0.2833398082250374,0.0409599999999841,0.079599999999985,0.0895202859691383,-0.2615799999999808,-0.1908349999999927,0.3237932884186872,0.0420100000000616,0.0109550000000098,0.0434148836806617,-0.2545200000000136,-0.1500899999999916,0.2954783215398456,-0.048780000000022,0.0540260000000074,0.0727894022231461,-0.4009300000000166,-0.2907600000000059,0.4952638110139047,0.0045999999999821,-0.0152200000000135,0.0158999496854628,-0.1850400000000149,-0.1338499999999953,0.2283760585087769,-0.0870400000000017,0.0834500000000133,0.1205813588412509,-0.4829000000000292,-0.1693759999999997,0.5117427472627513,0.1433599999999728,0.0429639999999977,0.1496595967387057,-0.5752599999999575,-0.4074800000000209,0.7049567490278876,-0.2306499999999687,-0.1188000000000215,0.259447224883965,-0.4514199999999846,0.2098000000000013,0.4977911775031641,-0.0517299999999636,0.0856399999999837,0.1000509994952246,-0.521539999999959,0.2393200000000206,0.5738275298379881,-0.1339399999999386,0.1263300000000242,0.1841173335131423,-0.5544199999999933,0.1695100000000025,0.5797544105049942,0.0083799999999882,0.1159000000000105,0.1162025576310704,-0.3933199999999601,0.2795999999999878,0.482573085034756,-0.1228399999999396,-0.0422400000000209,0.1298995119312884,0.0621300000000246,0.1922700000000077,0.2020591245155883,0.9901100000000724,-0.0536299999999698,0.9915613894258593,-0.1143799999999828,0.2375499999999988,0.2636527771520632,-0.1271199999999908,-0.3978499999999769,0.4176650774244589,0.7897000000000389,0.0810299999999983,0.7938463018116676,1.6696200000000658,-0.43425000000002,1.7251678199236842,0.2044149999999831,0.1211149999999747,137.61816900000002,0.3545496321638894,104.6849196,0.1694810694688138,93.5009786,0.1434117156872535,0.0196516299999999,0.471147952,0.0153974817470914,0,0
35,1166.6666666666667,490.46606,93.20547,0.9589499,493.09943,90.80786,0.9292576,488.10098,90.68307,0.9141718,497.1738,91.24352,0.7693887,484.62253,90.958664,0.6843555,502.68332,104.02467,0.9941757,479.358,104.339645,0.99560165,508.86835,120.70198,0.96270126,474.70242,122.23773,0.9652231,508.72122,134.86772,0.9355718,472.70493,138.96703,0.93471485,497.45645,138.0764,0.99452186,482.69302,138.09991,0.9953662,496.9997,164.27968,0.9823116,481.43372,164.09047,0.9826476,496.02832,189.06738,0.9515685,481.7787,188.64572,0.95172197,1.16408453,-0.34169281,0.98945983,0.509223,159.05687545957775,172.2284726522718,178.7544611174295,176.42115780318807,1.5981098510550344,138.088155,104.1821575,93.20547,36.16342000000003,98.38431,0.3675730371278407,179.22634967693887,0.935426446470588,-0.6915599999999813,-0.225063999999989,0.7272613269629901,-0.3024599999999964,-0.2677179999999879,0.4039244720538623,-0.684439999999995,-0.2384659999999883,0.7247924853059583,-0.3452599999999961,-0.2942619999999749,0.4536458886003295,-0.649690000000021,-0.2342000000000013,0.690613304317277,-0.3165000000000191,-0.2342600000000061,0.393763885596451,-0.6104399999999828,-0.3195399999999893,0.6890158236208891,-0.3333099999999831,-0.2605449999999791,0.4230593966867748,-0.5561700000000087,-0.300216000000006,0.6320242998145034,-0.2945900000000279,-0.1093810000000132,0.3142411037102233,-0.43652000000003,-0.3262100000000032,0.544942817642391,-0.1820000000000163,-0.1761200000000116,0.2532632116988372,-0.5646699999999782,-0.2501649999999955,0.6176040285854467,-0.1637399999999615,0.0405950000000103,0.1686971891437088,-0.5204099999999698,-0.2487799999999964,0.5768171777088187,-0.3353699999999548,-0.114930000000001,0.3545164901664942,-0.6209799999999746,0.0809459999999973,0.6262335150053596,-0.1380799999999453,0.250321999999997,0.2858796776337616,-1.08035000000001,-0.5826299999999947,1.2274419902382414,-0.5050900000000524,-0.1751499999999737,0.5345965119602295,-0.2002200000000016,0.3799599999999827,0.4294853315306444,0.251199999999983,0.1701599999999814,0.3034070955003939,-0.2687099999999986,0.0652599999999949,0.2765211234245923,0.2528299999999603,-0.1740600000000256,0.306952589987426,-0.3802200000000084,0.0784899999999879,0.3882369489113633,0.1741999999999848,-0.0910200000000145,0.196545873525743,-0.4352000000000089,0.1781800000000259,0.4702628545824314,-0.0418800000000487,-0.1014199999999618,0.1097267096016113,-0.8477100000000064,0.1613000000000113,0.8629194250334237,-0.9098400000000312,-0.0309699999999963,0.9103669405794876,0.1174599999999941,0.5650000000000261,0.5770804550494049,0.2318399999999769,0.3274500000000273,0.4012147655558145,-0.3718000000000074,0.5027900000000045,0.62532633408486,-1.1615000000000464,0.4217600000000061,1.2357037458873843,0.0718750000000056,-0.1325399999999774,137.813396,0.2631320433832331,104.6005351,0.2852745610373375,93.3925456,0.1117643238620778,0.0240732599999999,0.483479354,0.0164439407428157,0,0
36,1200.0,490.19815,92.78275,0.9587639,492.80695,90.40205,0.92600733,487.8393,90.239586,0.91626614,496.75974,90.89997,0.7548014,484.23492,90.49588,0.6972559,502.04712,103.813065,0.9939803,478.79636,104.04286,0.99569714,508.41077,120.47069,0.96051306,474.08707,122.10889,0.9665748,508.57623,134.4943,0.9326165,472.10635,139.16895,0.93639934,497.0078,138.26901,0.99447,482.30328,138.30392,0.9954594,496.662,164.59657,0.98205054,481.38943,164.42462,0.9829609,496.3085,189.39731,0.95101255,482.21674,188.9988,0.95226586,0.69345716,-0.19184909,0.47876296,0.46353294,159.7678128919694,172.0123248147471,179.93581500211326,176.0681037860006,1.2775679004597904,138.28646500000002,103.9279625,92.78275,36.46987999999999,99.157724,0.3677966593122219,179.43374517723464,0.9351232388235295,-0.2679100000000289,-0.4227200000000124,0.5004677477121038,0.4236499999999523,-0.1976560000000233,0.4674903387621704,-0.2924800000000118,-0.4058100000000024,0.5002262553085443,0.3919599999999832,-0.1673440000000141,0.4261885215910813,-0.2616800000000125,-0.443483999999998,0.514931530065896,0.3880100000000084,-0.2092839999999967,0.4408532099871851,-0.4140600000000063,-0.3435500000000075,0.5380262875548094,0.1963799999999764,-0.0240100000000182,0.1978423223175254,-0.3876099999999951,-0.4627839999999992,0.6036642632755359,0.1685600000000136,-0.1625679999999931,0.2341811867422367,-0.6361999999999739,-0.2116050000000058,0.6704678336989548,-0.1996799999999439,0.1146049999999974,0.2302312064533759,-0.5616400000000112,-0.2967849999999998,0.6352328910132193,0.003029999999967,-0.0466200000000043,0.046718361486681,-0.4575800000000072,-0.2312900000000013,0.5127129026073044,0.0628299999999626,0.0174899999999951,0.065218931300621,-0.6153500000000349,-0.1288399999999967,0.6286933816257668,0.0056299999999396,-0.209785999999994,0.2098615321968197,-0.144990000000007,-0.3734199999999816,0.4005803246541052,0.9353600000000027,0.209210000000013,0.9584712586718556,-0.5985799999999699,0.2019200000000012,0.6317196393970703,-0.3983599999999683,-0.1780399999999815,0.4363358009606456,-0.4486500000000433,0.1926100000000019,0.4882473088507909,-0.1799400000000446,0.1273500000000069,0.2204459709316952,-0.3897400000000175,0.2040100000000109,0.4399060669052179,-0.009520000000009,0.1255200000000229,0.1258805020644815,-0.3377000000000407,0.3168900000000008,0.4630988686015417,0.0974999999999681,0.1387099999999748,0.1695485597107413,-0.0442899999999895,0.3341499999999939,0.3370724352420337,0.8034200000000169,0.1728499999999826,0.8218033943103552,0.280179999999973,0.3299299999999903,0.43284481895938,0.1627199999999788,-0.2350700000000358,0.2858945667549665,0.4380400000000009,0.3530799999999772,0.5626229003515452,0.8098400000000083,-0.1497100000000273,0.8235617218521157,0.1983100000000206,0.1264350000000149,137.98626600000003,0.2226135453651106,104.44036660000002,0.3978559078874243,93.2494096,0.2775628989478451,-0.0456900599999999,0.4794507679999999,0.018696831521257,0,0
37,1233.3333333333337,489.26596,91.43658,0.9597585,491.86893,89.07338,0.92859954,486.9432,88.9224,0.9158103,495.8512,89.737175,0.7627751,483.4004,89.35436,0.68894833,501.2567,102.911415,0.99441385,477.85974,103.092255,0.9958311,507.93542,119.76324,0.96461403,472.89258,120.99121,0.96757364,508.69366,134.17834,0.9390782,471.5018,137.59451,0.9390062,496.55844,137.64221,0.99506253,481.77762,137.70557,0.99585366,496.60107,164.36684,0.9840285,481.39862,164.2284,0.98443836,496.9063,189.72816,0.9556573,482.93884,189.34856,0.9559251,0.34651605,-0.06706121,0.26013852,0.21887009,161.39157817334623,169.27828869941433,179.4018515000368,175.67267545406543,0.644910919402633,137.67389,103.001835,91.43658,37.19186000000002,100.80576,0.3689457788032573,179.55715774857862,0.9369043670588236,-0.9321899999999914,-1.3461699999999863,1.637422323348484,-0.6642799999999625,-0.923449999999974,1.1375534365030515,-0.9380199999999944,-1.3286700000000025,1.6264210676513005,-0.6455399999999827,-0.92286,1.126229315548116,-0.8960999999999899,-1.3171860000000066,1.5931020584369349,-0.6344199999999773,-0.8737020000000086,1.0797425254216797,-0.9085400000000164,-1.162795000000003,1.4756480419209168,-0.49448000000001,-0.8192449999999951,0.9569079581783204,-0.8345199999999977,-1.14152,1.4140337834719494,-0.4469100000000026,-0.6787360000000007,0.8126568192023021,-0.7904199999999832,-0.9016499999999894,1.199056503631065,-0.1542200000000093,-0.6900449999999836,0.7070685330468187,-0.9366200000000048,-0.95060500000001,1.3345062346894556,-0.3749799999999936,-0.6538200000000103,0.753717846942746,-0.4753499999999917,-0.7074500000000086,0.852316329187705,-0.0177699999999845,-0.4761600000000072,0.4764914673947544,-1.1944899999999734,-1.1176800000000071,1.6358529709298304,-0.5791399999999385,-0.9888400000000104,1.1459527412594068,0.117430000000013,-0.3159600000000182,0.3370764401437967,0.2624200000000201,0.0574599999999634,0.2686371307172676,-0.6045500000000175,-1.5744399999999814,1.6865177188811158,-0.0059700000000475,-1.7763599999999826,1.7763700319753029,-0.449359999999956,-0.6268000000000029,0.7712344971537283,-0.0007099999999127,-0.8194100000000049,0.8194103075993173,-0.5256599999999594,-0.5983500000000106,0.7964553710660566,-0.1359199999999418,-0.8023600000000215,0.8137910149418085,-0.0609299999999848,-0.2297300000000177,0.2376727535920058,0.2767700000000559,-0.5466200000000185,0.6126949137213816,0.0091899999999895,-0.1962200000000109,0.1964350897879605,0.0534799999999791,-0.5303700000000049,0.5330595157203396,0.5978000000000065,0.3308499999999981,0.6832470728074922,0.3176200000000335,0.0009200000000078,0.3176213324070367,0.7221000000000117,0.3497600000000034,0.8023468499346272,0.2840600000000108,-0.0033199999999737,0.2840794008723722,-0.612575000000021,-0.8108850000000416,137.975331,0.2391643008321358,104.054614,0.6553965002924899,92.8486428,0.8299040591229061,-0.24466285,0.428454776,0.1186025418575006,0,0
38,1266.6666666666663,488.5835,91.12286,0.96159416,491.23102,88.75369,0.932819,486.30215,88.61942,0.9175614,495.3822,89.315956,0.7732403,482.96677,88.9905,0.6847952,500.7189,102.35321,0.9946807,477.57922,102.628586,0.99596775,507.33392,119.21277,0.96693724,472.58966,120.52182,0.96857053,508.79904,134.30072,0.9428488,471.28824,137.50664,0.9411321,496.2366,137.12277,0.9952449,481.6227,137.25838,0.995977,496.66037,164.18884,0.98444474,481.62988,164.11557,0.9846978,497.12717,189.76642,0.95612484,483.1525,189.43007,0.9560992,0.67904909,-0.17661907,0.57603856,0.31319794,164.1232688408329,168.80036317628532,179.85141506580223,176.57322861121372,0.3625439316230213,137.190575,102.490898,91.12286,37.51080000000002,101.147,0.370854297499142,179.31817822030663,0.9383962152941177,-0.6824599999999919,-0.3137200000000035,0.751113766349673,0.2497299999999995,1.032449999999983,1.062223175891001,-0.6379099999999767,-0.3196899999999942,0.7135340666008643,0.3001100000000178,1.0089800000000082,1.0526664488336404,-0.641050000000007,-0.3029799999999909,0.7090430049721974,0.2550499999999829,1.0142060000000157,1.0457840661130875,-0.4689999999999941,-0.4212189999999935,0.6303859500028447,0.4395400000000222,0.7415760000000091,0.8620501002702993,-0.4336299999999937,-0.3638600000000025,0.5660645515310038,0.4008900000000039,0.7776599999999974,0.8749102055068275,-0.5378000000000043,-0.558205000000001,0.7751268683415674,0.252619999999979,0.3434449999999884,0.4263464933888649,-0.2805199999999672,-0.4636689999999959,0.5419228837768136,0.6561000000000377,0.4869360000000142,0.8170519433280012,-0.6015000000000441,-0.55046999999999,0.815364624508595,-0.1261500000000524,0.1569800000000185,0.2013865509412657,-0.3029200000000287,-0.46938999999999,0.5586479199818146,0.8915699999999447,0.6482900000000171,1.102350665169629,0.1053799999999682,0.122380000000021,0.1614986340499462,-0.0120500000000447,0.4383400000000392,0.4385055964295501,-0.2135600000000295,-0.0878700000000094,0.2309307482775177,0.3909899999999879,1.486569999999972,1.537128343698049,-0.3218400000000088,-0.519440000000003,0.6110637439743981,0.1275199999999472,0.1073599999999999,0.166695890771148,-0.1549200000000041,-0.4471900000000062,0.4732643051192503,0.3707399999999552,0.1511600000000044,0.4003716938046047,0.0593000000000074,-0.1779999999999972,0.1876179362427801,0.1202299999999922,0.0517300000000204,0.1308863850826367,0.2312600000000202,-0.1128300000000024,0.2573165297838635,0.2220700000000306,0.0833900000000085,0.2372108281677188,0.2208699999999908,0.0382600000000081,0.2241592837693691,-0.3769300000000157,-0.2925899999999899,0.4771636333586267,0.2136599999999475,0.0815100000000086,0.2286798541629301,-0.5084400000000642,-0.2682499999999947,0.5748645893600183,-0.4833150000000046,0.1292600000000163,137.851073,0.4303251226485992,103.6146396,0.8352850111527572,92.3956388,1.0507675033310726,0.09432785,0.397994742,0.1260348295459733,0,0
39,1300.0,488.12375,91.17142,0.9639758,490.74234,88.72144,0.9367222,485.77463,88.64989,0.921644,494.9831,88.905304,0.7770898,482.40826,88.74063,0.687305,500.34445,101.63151,0.99496317,477.14355,102.07457,0.9962664,506.85773,118.74308,0.9693012,471.87054,120.07843,0.97128683,508.61148,134.38889,0.94708204,470.1599,137.08328,0.9461063,496.15363,136.7048,0.9955531,481.51242,136.95607,0.99628264,496.75253,164.12418,0.98518825,481.56934,164.18661,0.98551756,497.2268,189.87094,0.9570896,482.85052,189.71039,0.9572469,0.67524209,-0.22255477,0.51241639,0.37927656,165.55699988807726,169.4200993249348,179.80401007225893,177.2461825127203,0.1464719542261641,136.83043500000002,101.85304,91.17142,38.45157999999998,101.22105,0.3798773043761419,178.90597421376262,0.9405071052941176,-0.4597500000000423,0.0485599999999948,0.4623074043318346,0.2227099999999495,0.3622799999999984,0.4252605583639004,-0.488679999999988,-0.0322500000000047,0.4897429988269241,0.1492299999999886,0.2874399999999895,0.3238693355351669,-0.5275199999999813,0.030469999999994,0.52839925368984,0.1135300000000256,0.3334499999999849,0.3522470204274207,-0.3991000000000326,-0.4106519999999989,0.5726393936012656,0.0698999999999614,0.0105669999999946,0.070694211142034,-0.5585100000000125,-0.2498700000000013,0.6118565493643218,-0.1248800000000187,0.1139900000000011,0.1690820348233511,-0.3744500000000244,-0.7216999999999985,0.8130582343842389,0.1633499999999799,-0.1634949999999975,0.231114338639974,-0.435670000000016,-0.5540160000000043,0.7047993169378207,-0.1551500000000487,-0.0903470000000083,0.1795385833435717,-0.4761899999999741,-0.4696899999999999,0.6688539543128793,0.1253100000000699,0.08077999999999,0.1490905915878528,-0.7191199999999753,-0.4433900000000079,0.844824399801504,-0.4161999999999466,0.025999999999982,0.4170113187911746,-0.187560000000019,0.0881699999999909,0.2072503377560711,-0.2929399999999873,-0.03421000000003,0.2949307845919015,-1.12833999999998,-0.4233600000000024,1.2051493041113026,-0.9147799999999506,-0.3354899999999929,0.9743592707517618,-0.0829699999999888,-0.4179699999999968,0.4261255000583696,0.2388700000000199,0.1014700000000061,0.259528491306852,-0.1102799999999888,-0.3023099999999772,0.3217965420882949,0.0446400000000153,0.1448800000000289,0.1516012664855072,0.0921599999999784,-0.0646600000000034,0.1125805542711372,0.032859999999971,0.1133399999999937,0.1180073523133058,-0.0605400000000031,0.0710400000000106,0.0933368801707122,-0.2918000000000234,0.183870000000013,0.344899140184516,0.0996300000000474,0.1045199999999795,0.144397255167836,-0.1212399999999433,0.0662599999999713,0.138164847917198,-0.3019799999999577,0.280319999999989,0.4120330360541109,-0.5156399999999053,0.1988099999999804,0.5526391460074961,-0.3601399999999728,0.1231750000000317,137.613904,0.6070176575109085,103.0911786,0.973620630167617,91.943816,0.9776801325737146,0.0660786199999999,0.376820106,0.1162450683331048,0,0
