frame_id,timestamp_ms,nose_x,nose_y,nose_conf,left_eye_x,left_eye_y,left_eye_conf,right_eye_x,right_eye_y,right_eye_conf,left_ear_x,left_ear_y,left_ear_conf,right_ear_x,right_ear_y,right_ear_conf,left_shoulder_x,left_shoulder_y,left_shoulder_conf,right_shoulder_x,right_shoulder_y,right_shoulder_conf,left_elbow_x,left_elbow_y,left_elbow_conf,right_elbow_x,right_elbow_y,right_elbow_conf,left_wrist_x,left_wrist_y,left_wrist_conf,right_wrist_x,right_wrist_y,right_wrist_conf,left_hip_x,left_hip_y,left_hip_conf,right_hip_x,right_hip_y,right_hip_conf,left_knee_x,left_knee_y,left_knee_conf,right_knee_x,right_knee_y,right_knee_conf,left_ankle_x,left_ankle_y,left_ankle_conf,right_ankle_x,right_ankle_y,right_ankle_conf,acc_x,acc_y,acc_z,acc_mag,left_elbow_angle,right_elbow_angle,left_knee_angle,right_knee_angle,spine_angle,hip_height,shoulder_height,head_height,bbox_width,bbox_height,bbox_aspect_ratio,shoulder_tilt,avg_confidence,nose_vx,nose_vy,nose_speed,nose_ax,nose_ay,nose_accel,left_eye_vx,left_eye_vy,left_eye_speed,left_eye_ax,left_eye_ay,left_eye_accel,right_eye_vx,right_eye_vy,right_eye_speed,right_eye_ax,right_eye_ay,right_eye_accel,left_ear_vx,left_ear_vy,left_ear_speed,left_ear_ax,left_ear_ay,left_ear_accel,right_ear_vx,right_ear_vy,right_ear_speed,right_ear_ax,right_ear_ay,right_ear_accel,left_shoulder_vx,left_shoulder_vy,left_shoulder_speed,left_shoulder_ax,left_shoulder_ay,left_shoulder_accel,right_shoulder_vx,right_shoulder_vy,right_shoulder_speed,right_shoulder_ax,right_shoulder_ay,right_shoulder_accel,left_elbow_vx,left_elbow_vy,left_elbow_speed,left_elbow_ax,left_elbow_ay,left_elbow_accel,right_elbow_vx,right_elbow_vy,right_elbow_speed,right_elbow_ax,right_elbow_ay,right_elbow_accel,left_wrist_vx,left_wrist_vy,left_wrist_speed,left_wrist_ax,left_wrist_ay,left_wrist_accel,right_wrist_vx,right_wrist_vy,right_wrist_speed,right_wrist_ax,right_wrist_ay,right_wrist_accel,left_hip_vx,left_hip_vy,left_hip_speed,left_hip_ax,left_hip_ay,left_hip_accel,right_hip_vx,right_hip_vy,right_hip_speed,right_hip_ax,right_hip_ay,right_hip_accel,left_knee_vx,left_knee_vy,left_knee_speed,left_knee_ax,left_knee_ay,left_knee_accel,right_knee_vx,right_knee_vy,right_knee_speed,right_knee_ax,right_knee_ay,right_knee_accel,left_ankle_vx,left_ankle_vy,left_ankle_speed,left_ankle_ax,left_ankle_ay,left_ankle_accel,right_ankle_vx,right_ankle_vy,right_ankle_speed,right_ankle_ax,right_ankle_ay,right_ankle_accel,hip_velocity,hip_acceleration,hip_height_mean_5,hip_height_std_5,shoulder_height_mean_5,shoulder_height_std_5,head_height_mean_5,head_height_std_5,acc_mag_diff,acc_mag_mean_5,acc_mag_std_5,label_binary,label_3class
0,0.0,493.82346,95.72339,0.94229716,495.78995,93.51131,0.91403574,491.9688,93.67699,0.8697663,499.27545,93.8302,0.77549475,489.28485,94.32715,0.5905424,504.50827,105.789,0.9935016,485.70972,106.705025,0.99370956,509.80328,121.7668,0.9712931,482.5252,122.97255,0.9560029,508.7808,137.87009,0.95246845,481.38364,137.91785,0.92857695,501.43243,137.99965,0.99540734,489.43997,138.3297,0.9953772,502.55682,162.89941,0.98886454,488.56696,163.03673,0.9867792,504.79837,186.40315,0.9707752,490.27322,186.46942,0.96690214,0.86615606,-0.25227787,0.76862458,0.30951325,158.03178544555928,173.2917975256693,177.13771012252496,173.81166124640782,0.5875241239156848,138.164675,106.2470125,95.72339,28.41963999999996,92.95811000000002,0.3057252314432245,177.21026968942033,0.92892909,0.0,0.0,0.0,0.0,0.0,0.0,0.0,0.0,0.0,0.0,0.0,0.0,0.0,0.0,0.0,0.0,0.0,0.0,0.0,0.0,0.0,0.0,0.0,0.0,0.0,0.0,0.0,0.0,0.0,0.0,0.0,0.0,0.0,0.0,0.0,0.0,0.0,0.0,0.0,0.0,0.0,0.0,0.0,0.0,0.0,0.0,0.0,0.0,0.0,0.0,0.0,0.0,0.0,0.0,0.0,0.0,0.0,0.0,0.0,0.0,0.0,0.0,0.0,0.0,0.0,0.0,0.0,0.0,0.0,0.0,0.0,0.0,0.0,0.0,0.0,0.0,0.0,0.0,0.0,0.0,0.0,0.0,0.0,0.0,0.0,0.0,0.0,0.0,0.0,0.0,0.0,0.0,0.0,0.0,0.0,0.0,0.0,0.0,0.0,0.0,0.0,0.0,0.0,0.0,138.164675,0.0,106.2470125,0.0,95.72339,0.0,0.0,0.30951325,0.0,0,0
1,33.333333333333336,492.7846,95.52177,0.9345139,494.548,93.26844,0.9002845,490.96017,93.49919,0.8610299,498.23572,93.512314,0.74297625,488.41745,94.08314,0.5981011,503.7315,105.33238,0.99260557,485.3227,106.09203,0.99319226,509.09433,121.45044,0.95640355,481.43283,122.82782,0.9404751,508.16068,137.55038,0.9195351,479.08716,138.58356,0.8921421,500.74033,137.56589,0.99428314,488.9595,137.74188,0.99440235,502.46014,162.21182,0.9840538,487.3557,162.1836,0.98199433,503.36652,186.08508,0.9639038,488.2456,185.96606,0.96073306,0.83819829,-0.27856193,0.74258616,0.27119257,158.27767401152803,175.38300362771656,178.1825944793044,174.1028730531066,0.5792110962430949,137.653885,105.712205,95.52177,30.00717000000003,92.81664,0.3232951513511465,177.63699650351032,0.918272341764706,-1.0388599999999997,-0.2016199999999912,1.058244170312313,-1.0388599999999997,-0.2016199999999912,1.058244170312313,-1.2419499999999744,-0.2428699999999963,1.2654744720459337,-1.2419499999999744,-0.2428699999999963,1.2654744720459337,-1.0086299999999824,-0.1778000000000048,1.024181291031996,-1.0086299999999824,-0.1778000000000048,1.024181291031996,-1.0397299999999632,-0.3178860000000014,1.087239615676289,-1.0397299999999632,-0.3178860000000014,1.087239615676289,-0.8674000000000319,-0.2440100000000029,0.9010680551989716,-0.8674000000000319,-0.2440100000000029,0.9010680551989716,-0.7767699999999991,-0.4566200000000009,0.901040208481286,-0.7767699999999991,-0.4566200000000009,0.901040208481286,-0.3870200000000068,-0.6129950000000122,0.7249464465910708,-0.3870200000000068,-0.6129950000000122,0.7249464465910708,-0.7089499999999589,-0.3163600000000031,0.7763335314798296,-0.7089499999999589,-0.3163600000000031,0.7763335314798296,-1.09236999999996,-0.1447299999999955,1.1019160538806534,-1.09236999999996,-0.1447299999999955,1.1019160538806534,-0.6201199999999858,-0.3197100000000148,0.6976842398248594,-0.6201199999999858,-0.3197100000000148,0.6976842398248594,-2.296480000000031,0.6657100000000185,2.391022834374479,-2.296480000000031,0.6657100000000185,2.391022834374479,-0.692100000000039,-0.4337600000000066,0.8167925976648294,-0.692100000000039,-0.4337600000000066,0.8167925976648294,-0.4804700000000252,-0.5878199999999936,0.7591994292015878,-0.4804700000000252,-0.5878199999999936,0.7591994292015878,-0.0966799999999921,-0.6875900000000001,0.6943536782504999,-0.0966799999999921,-0.6875900000000001,0.6943536782504999,-1.2112599999999816,-0.8531299999999931,1.4815470240596291,-1.2112599999999816,-0.8531299999999931,1.4815470240596291,-1.4318499999999972,-0.3180700000000058,1.4667525174343474,-1.4318499999999972,-0.3180700000000058,1.4667525174343474,-2.027619999999956,-0.5033600000000149,2.089165899108981,-2.027619999999956,-0.5033600000000149,2.089165899108981,-0.5107899999999859,-0.5107899999999859,137.90928,0.3611830727622666,105.97960875,0.3781660098794392,95.62258,0.1425668692228255,-0.0383206799999999,0.29035291,0.0270968126876797,0,0
2,66.66666666666667,491.81168,95.009415,0.9296426,493.57312,92.8205,0.8955538,490.12817,93.024055,0.8487294,497.31873,93.27612,0.7452179,487.83463,93.77183,0.5781135,502.94522,105.28594,0.992467,484.60846,105.939644,0.9926997,508.12482,121.500656,0.9568559,480.78568,122.62897,0.9366422,507.01147,137.36725,0.9197726,479.23462,137.9707,0.88688475,500.03076,137.48393,0.99429697,488.24252,137.6203,0.99427164,501.90094,162.12698,0.9843897,486.60574,162.07175,0.9819172,502.929,186.23486,0.9649123,487.49545,186.04312,0.9610679,0.94843746,-0.39426093,0.82291222,0.25866465,158.2706967998665,172.87167622912338,178.10194559097457,174.0447458168941,0.6455751951251677,137.552115,105.612792,95.009415,28.890199999999997,93.41436,0.3092693638401058,177.9582747898395,0.91549618,-0.9729199999999878,-0.5123549999999994,1.099582180841876,0.0659400000000118,-0.3107350000000082,0.3176544094216333,-0.9748799999999846,-0.4479400000000026,1.0728659086763697,0.2670699999999897,-0.2050700000000063,0.3367196011520522,-0.8319999999999936,-0.4751349999999945,0.9581113026287624,0.1766299999999887,-0.2973349999999897,0.3458413785610245,-0.9169899999999984,-0.2361939999999975,0.9469204115109126,0.1227399999999647,0.0816920000000038,0.1474404641338055,-0.5828199999999697,-0.3113100000000059,0.660751896327183,0.2845800000000622,-0.067300000000003,0.2924295922098784,-0.7862799999999766,-0.046440000000004,0.7876502472544292,-0.0095099999999774,0.4101799999999969,0.4102902295936341,-0.714240000000018,-0.1523859999999928,0.7303151857903706,-0.3272200000000111,0.4606090000000193,0.5650075922330824,-0.969510000000014,0.050216000000006,0.9708096037617404,-0.2605600000000549,0.3665760000000091,0.4497437908143206,-0.6471500000000106,-0.1988500000000073,0.6770114068463076,0.4452199999999493,-0.0541200000000117,0.4484972940832041,-1.1492100000000391,-0.1831299999999771,1.1637096807194145,-0.5290900000000534,0.1365800000000376,0.5464341904566979,0.1474600000000236,-0.612860000000012,0.6303505621477795,2.443940000000054,-1.2785700000000304,2.758184904697353,-0.7095699999999852,-0.0819600000000093,0.7142877756898689,-0.0174699999999461,0.3517999999999972,0.3522335033752414,-0.7169799999999782,-0.1215800000000228,0.7272152479149309,-0.2365099999999529,0.4662399999999707,0.5227970138590602,-0.5592000000000326,-0.0848399999999856,0.5655992093346965,-0.4625200000000404,0.6027500000000146,0.75975806208296,-0.7499599999999873,-0.111850000000004,0.7582548543200907,0.4612999999999942,0.7412799999999891,0.8730943410651443,-0.4375200000000063,0.1497799999999927,0.462447617357905,0.9943299999999908,0.4678499999999985,1.0988975254317304,-0.7501500000000192,0.0770599999999888,0.7540976502416826,1.277469999999937,0.5804200000000037,1.4031453870856874,-0.1017700000000161,0.4090199999999697,137.790225,0.328251253005984,105.85733650000002,0.341110355859006,95.41819166666666,0.3680848115697412,-0.01252792,0.2797901566666667,0.0264921479472339,0,0
3,100.0,490.61182,94.57695,0.93317544,492.61496,92.42021,0.90702415,489.06778,92.514694,0.84719944,496.76248,93.006355,0.7768198,487.06555,93.27933,0.5536411,502.13107,105.07158,0.9929777,484.0161,105.58919,0.992393,506.8056,121.0791,0.9603704,480.31598,122.2997,0.92946976,504.9429,135.23682,0.9258536,479.00247,136.97325,0.87929046,499.07755,137.13495,0.99445087,487.37686,137.1922,0.99407464,501.29333,161.87326,0.98548675,486.16837,161.7196,0.98196745,502.95984,186.29474,0.96793145,487.48672,185.85889,0.962448,1.0512949,-0.42644048,0.90716861,0.31688262,156.22586345502518,172.62996707421442,178.78552540252957,174.05319641855053,0.2768674468397106,137.163575,105.330385,94.57695,27.80313000000001,93.87453,0.2961733039177582,178.3632983516109,0.9167396476470588,-1.199860000000001,-0.4324650000000076,1.2754175770409506,-0.2269400000000132,0.0798899999999918,0.2405913042900858,-0.9581600000000208,-0.4002899999999982,1.0384135350138877,0.0167199999999638,0.0476500000000044,0.0504983257148117,-1.060389999999984,-0.5093609999999984,1.1763824124921982,-0.2283899999999903,-0.0342260000000038,0.2309402762100968,-0.5562500000000341,-0.2697650000000067,0.618212922644813,0.3607399999999643,-0.0335710000000091,0.3622987160355041,-0.7690800000000309,-0.4924999999999926,0.9132580667040616,-0.1862600000000611,-0.1811899999999866,0.2598511183351304,-0.8141499999999837,-0.2143599999999992,0.8418969248666806,-0.0278700000000071,-0.1679199999999951,0.1702171063671298,-0.5923599999999851,-0.3504539999999991,0.6882647569910737,0.1218800000000328,-0.1980680000000063,0.2325632538128294,-1.319219999999973,-0.4215560000000096,1.3849371355898927,-0.3497099999999591,-0.4717720000000156,0.5872528451050588,-0.4696999999999889,-0.3292699999999939,0.5736173139820534,0.1774500000000216,-0.1304199999999866,0.2202223396933295,-2.0685699999999656,-2.1304300000000183,2.969463559264524,-0.9193599999999263,-1.947300000000041,2.1534159142163003,-0.2321499999999901,-0.9974499999999864,1.0241094301879894,-0.3796100000000137,-0.3845899999999744,0.5403824758446473,-0.9532100000000128,-0.3489799999999832,1.0150844026483772,-0.2436400000000276,-0.2670199999999738,0.3614694039611091,-0.8656599999999912,-0.4280999999999721,0.9657312491578396,-0.148680000000013,-0.3065199999999493,0.3406761699913465,-0.6076099999999656,-0.2537200000000155,0.6584555797470062,-0.048409999999933,-0.1688800000000299,0.1756814802419526,-0.437370000000044,-0.3521499999999946,0.5615177106735234,0.3125899999999433,-0.2402999999999906,0.394279847443361,0.0308400000000119,0.0598799999999926,0.0673551779746728,0.4683600000000183,-0.0899,0.4769099491518468,-0.0087300000000141,-0.1842299999999852,0.184436725735399,0.7414200000000051,-0.261289999999974,0.7861145466787864,-0.3885399999999777,-0.2867699999999615,137.63356249999998,0.4123168025822591,105.725598625,0.3833931673285703,95.20788125,0.5169585777470491,0.05821797,0.2890632725,0.0284930162953267,0,0
4,133.33333333333334,490.58337,94.43566,0.9332039,492.65427,92.346436,0.89184374,488.82382,92.343544,0.8598217,496.22086,93.17668,0.7409029,486.30685,93.06409,0.6131795,501.2331,105.22879,0.9919957,482.2572,105.405106,0.9925211,506.04883,121.332855,0.9456223,478.83997,121.575714,0.9338977,504.84494,135.71262,0.9001633,479.5514,135.6983,0.8808111,498.74475,136.28976,0.99318004,486.47955,136.42543,0.9935694,500.31143,161.13414,0.98148257,485.45407,161.18076,0.9799749,502.07733,185.21822,0.959027,487.4004,185.01999,0.95594627,0.94767225,-0.34832523,0.82979029,0.29698534,158.56562131942857,165.18375318508404,179.41471587311355,172.96039588839275,1.5999853130653752,136.357595,105.316948,94.43566,27.208860000000016,92.874676,0.2929631722972238,179.46764728114198,0.9145378305882352,-0.0284500000000207,-0.1412899999999979,0.1441258706825412,1.1714099999999803,0.2911750000000097,1.207056033796675,0.0393100000000004,-0.0737740000000002,0.0835935354916877,0.9974700000000212,0.326515999999998,1.0495518563444308,-0.2439600000000155,-0.1711500000000114,0.2980080604614772,0.8164299999999685,0.3382109999999869,0.8837107136506492,-0.5416199999999662,0.1703250000000054,0.5677700503064294,0.0146300000000678,0.4400900000000121,0.4403331068634433,-0.7586999999999762,-0.2152400000000085,0.7886405693343246,0.0103800000000546,0.2772599999999841,0.2774542340639124,-0.8979700000000435,0.1572100000000063,0.9116277228123768,-0.0838200000000597,0.3715700000000055,0.3809068879660935,-1.7588999999999828,-0.1840839999999985,1.7685067512045125,-1.1665399999999977,0.1663700000000005,1.1783439856425604,-0.7567700000000173,0.2537549999999982,0.7981807019247116,0.5624499999999557,0.6753110000000078,0.8788600282302983,-1.476010000000031,-0.7239859999999965,1.6440076789042335,-1.0063100000000418,-0.3947160000000025,1.0809535312658385,-0.0979600000000004,0.4757999999999924,0.4857795812917551,1.970609999999965,2.6062300000000107,3.2673748767167683,0.5489299999999844,-1.2749500000000182,1.3881000134716623,0.7810799999999745,-0.2775000000000318,0.8289102583512752,-0.3327999999999633,-0.8451900000000023,0.908351240490142,0.6204100000000494,-0.4962100000000191,0.7944387529571303,-0.8973100000000045,-0.7667700000000082,1.180297195201285,-0.0316500000000132,-0.338670000000036,0.3401456914323996,-0.9819000000000528,-0.7391199999999856,1.228993891115852,-0.3742900000000873,-0.4853999999999701,0.6129487450839886,-0.7142999999999802,-0.5388400000000217,0.8947474702953874,-0.2769299999999361,-0.1866900000000271,0.3339811087471487,-0.8825099999999679,-1.076519999999988,1.3920198312164656,-0.91334999999998,-1.1363999999999803,1.4579482784035651,-0.0863200000000006,-0.8388999999999953,0.8433293261828336,-0.0775899999999865,-0.6546700000000101,0.6592518615825147,-0.8059800000000052,-0.4174400000000275,137.378369,0.6731437227516752,105.6438685,0.3790010649434293,95.053437,0.5654199856036239,-0.01989728,0.290647686,0.0249287146459505,0,0
5,166.66666666666666,489.29745,94.38762,0.9323875,491.45667,92.2741,0.896961,487.57394,92.25746,0.84943223,495.28198,93.038826,0.76103836,485.31665,92.907715,0.57753825,500.45038,105.06767,0.99219245,481.60202,105.1622,0.99173623,505.4951,121.36984,0.94968325,478.2951,121.30328,0.9253689,505.25354,136.45612,0.905856,478.70868,135.47447,0.87056893,497.92938,135.76407,0.9932407,485.8765,135.85585,0.9931942,499.45724,160.61642,0.9823543,485.54364,160.62833,0.9795473,501.10526,184.80563,0.9611017,487.63513,184.48395,0.95598567,0.89612716,-0.32842795,0.78852186,0.27094692,161.88793826393157,166.75001288912196,179.62039856420031,174.2197077404733,1.63615610835846,135.80996,105.114935,94.38762,27.19999999999999,92.54817,0.2939009999452067,179.7126474331543,0.9128345276470587,-1.285919999999976,-0.0480400000000003,1.2868170374998686,-1.2574699999999552,0.0932499999999976,1.260922822142532,-1.1976000000000226,-0.0723359999999928,1.1997825873449128,-1.236910000000023,0.0014380000000073,1.2369108358907916,-1.2498800000000188,-0.0860839999999996,1.2528409593623793,-1.0059200000000033,0.0850660000000118,1.0095104114153597,-0.93888000000004,-0.1378540000000043,0.9489464577709728,-0.3972600000000739,-0.3081790000000097,0.5027820637622873,-0.9902000000000156,-0.156374999999997,1.0024715360672494,-0.2315000000000395,0.0588650000000114,0.2388667792411068,-0.7827199999999834,-0.1611199999999968,0.7991309359547865,0.11525000000006,-0.3183300000000031,0.3385506629738241,-0.6551800000000298,-0.2429060000000049,0.6987590122753634,1.103719999999953,-0.0588220000000063,1.105286327647229,-0.55373000000003,0.0369850000000013,0.5549637854176013,0.2030399999999872,-0.2167699999999968,0.2970092161869618,-0.5448700000000031,-0.272434000000004,0.6091827322372209,0.9311400000000276,0.4515519999999924,1.0348530853720466,0.4085999999999785,0.7435000000000116,0.8483785770515423,0.506559999999979,0.2677000000000191,0.5729453059411422,-0.8427199999999857,-0.2238299999999924,0.8719385685356352,-1.39164999999997,1.0511200000000258,1.744002000256872,-0.8153700000000299,-0.5256899999999973,0.9701433981634086,-0.4825700000000665,0.319500000000005,0.5787521532573917,-0.6030499999999961,-0.569580000000002,0.8295123138929268,0.2942600000000084,0.1971900000000062,0.3542214613769293,-0.85418999999996,-0.5177199999999971,0.998836600500767,0.1277100000000928,0.2213999999999885,0.255593043919467,0.0895699999999806,-0.5524299999999869,0.559644252896411,0.8038699999999608,-0.0135899999999651,0.8039848661510589,-0.9720700000000306,-0.4125899999999944,1.056006909541815,-0.0895600000000627,0.6639299999999935,0.6699433099151021,0.2347300000000132,-0.5360400000000141,0.5851812150949663,0.3210500000000138,0.3028599999999812,0.4413584508084076,-0.5476350000000139,0.2583449999999914,136.907426,0.7976814848860349,105.417453,0.2419893067875003,94.786283,0.4786486177719619,-0.02603842,0.28293442,0.0235610991340164,0,0
6,200.0,487.9131,94.44639,0.9331302,490.0921,92.292755,0.90351635,486.18372,92.31811,0.84233755,494.12674,92.9198,0.7823277,484.192,92.93739,0.5496368,499.71805,104.84795,0.99255896,481.03336,105.18127,0.99124676,505.2432,121.03108,0.9541186,478.21323,121.49211,0.91927695,505.6284,136.7124,0.9125276,478.018,136.23306,0.8639638,497.23672,135.3345,0.9932641,485.49063,135.46935,0.9928402,498.1391,160.14551,0.9824539,485.54306,160.19037,0.9784524,499.14096,184.12009,0.9606919,487.69125,183.79926,0.95367247,0.90031329,-0.3286736,0.79638252,0.26136675,162.5565125154736,170.94937313121454,179.69001156536612,174.92244767407652,1.862235593777544,135.401925,105.01461,94.44639,27.610400000000027,91.827335,0.3006773494986289,178.97799729435695,0.9121186023529412,-1.3843500000000404,0.0587699999999955,1.3855969238563253,-0.0984300000000644,0.1068099999999958,0.1452475163299249,-1.364569999999958,0.0186549999999954,1.3646975100456822,-0.1669699999999352,0.0909909999999882,0.1901534721770187,-1.3902199999999991,0.0606500000000096,1.391542335288438,-0.1403399999999806,0.1467340000000092,0.2030423166632937,-1.155239999999992,-0.1190260000000051,1.1613555210511477,-0.2163599999999519,0.0188279999999991,0.2171776765323249,-1.1246499999999742,0.0296749999999974,1.125041433959186,-0.1344499999999584,0.1860499999999945,0.2295460846975761,-0.7323299999999904,-0.2197200000000094,0.7645810011372177,0.050389999999993,-0.0586000000000126,0.0772859113939971,-0.5686599999999657,0.0190699999999992,0.5689796661568505,0.0865200000000641,0.2619760000000042,0.275893339854396,-0.2518999999999778,-0.3387599999999935,0.4221515694628938,0.3018300000000522,-0.3757449999999949,0.4819602202724076,-0.0818699999999807,0.1888299999999958,0.2058141535463372,0.4630000000000223,0.4612639999999999,0.6535544948173951,0.3748600000000124,0.2562800000000038,0.4540919047946255,-0.0337399999999661,-0.4872200000000077,0.4883868507648473,-0.690680000000043,0.7585899999999981,1.025913081357313,0.1520399999999426,0.9824199999999904,0.994115294118325,-0.6926599999999894,-0.4295700000000124,0.8150510784607281,0.1227100000000405,0.0961199999999848,0.1558743035269349,-0.3858700000000112,-0.3865000000000123,0.5461482462665409,0.2171799999999848,0.1830799999999897,0.2840518241448022,-1.318140000000028,-0.4709100000000035,1.3997318627866115,-0.463950000000068,0.0468099999999935,0.4663054563267113,-0.0005799999999567,-0.4379600000000039,0.4379603840531736,-0.0901499999999373,0.1144699999999829,0.1457065660839785,-1.96429999999998,-0.6855400000000031,2.0804902262687817,-0.9922299999999497,-0.2729500000000087,1.0290879823415997,0.0561200000000212,-0.6846899999999891,0.6869860628134952,-0.1786099999999919,-0.148649999999975,0.2323754604083437,-0.4080349999999839,0.1396000000000299,136.45703400000002,0.9000347853444212,105.277934,0.2303862423941409,94.571207,0.2548115443715522,-0.0095801699999999,0.280969256,0.0251420244296462,0,0
7,233.3333333333333,487.3156,94.16397,0.9313452,489.5091,91.997314,0.9000078,485.57538,92.00628,0.83920705,493.563,92.64984,0.7771923,483.59464,92.62405,0.54915744,499.23788,104.72119,0.9922323,480.34937,105.01319,0.9910217,504.7739,121.06882,0.95181215,477.2709,121.68088,0.918301,504.90652,136.97104,0.9084021,477.07303,137.41664,0.86150956,496.64746,135.34442,0.9928134,484.87418,135.44133,0.9924361,497.168,160.06935,0.98097837,485.2496,160.06033,0.97690713,497.84283,183.81595,0.95714116,487.77753,183.41454,0.94991237,0.92622062,-0.34414926,0.80645398,0.29845921,161.76947819716574,170.25600571617525,179.57827939433972,174.69583085707703,1.814847582011471,135.392875,104.86719,94.16397,27.833489999999983,91.81863599999998,0.3031355170301644,179.11432743816363,0.9100221841176472,-0.5974999999999682,-0.2824199999999877,0.6608837313778839,0.7868500000000722,-0.3411899999999832,0.8576383495390713,-0.5830000000000268,-0.2954409999999967,0.6535857896871913,0.781569999999931,-0.3140959999999921,0.8423229559473535,-0.6083399999999983,-0.3118300000000005,0.6836047867737602,0.781880000000001,-0.3724800000000101,0.8660702539632735,-0.5637399999999957,-0.2699599999999975,0.6250449497436115,0.5914999999999964,-0.1509339999999923,0.6104533744324733,-0.5973599999999806,-0.3133399999999966,0.6745523887734552,0.5272899999999936,-0.3430149999999941,0.6290421562383471,-0.4801699999999869,-0.1267599999999902,0.4966199014336668,0.2521600000000035,0.0929600000000192,0.2687493761853324,-0.6839899999999943,-0.1680800000000033,0.7043388435263196,-0.1153300000000285,-0.1871500000000026,0.2198320527129917,-0.4692999999999756,0.0377399999999994,0.4708150354438323,-0.2173999999999978,0.3764999999999929,0.4347585651830148,-0.9423300000000268,0.1887700000000052,0.9610514771853028,-0.860460000000046,-5.999999999062311e-05,0.8604600020919503,-0.7218799999999987,0.2586399999999855,0.7668150911399637,-1.0967400000000112,0.0023599999999817,1.0967425391585868,-0.9449699999999552,1.1835800000000063,1.5145395066817935,-0.2542899999999122,0.4249900000000082,0.4952574120595898,-0.5892599999999675,0.0099200000000223,0.5893434940677313,0.1034000000000219,0.4394900000000348,0.4514897785111365,-0.6164499999999862,-0.0280199999999979,0.6170864792717329,-0.2305799999999749,0.3584800000000143,0.4262335589791103,-0.9710999999999784,-0.0761600000000157,0.9740819039485134,0.3470400000000495,0.3947499999999877,0.5256085274232379,-0.2934600000000387,-0.1300400000000081,0.320981577664552,-0.2928800000000819,0.3079199999999957,0.4249628463760631,-1.2981300000000149,-0.304140000000018,1.333282654391052,0.6661699999999655,0.3813999999999851,0.767625187770661,0.0862799999999879,-0.3847200000000157,0.3942761935496613,0.0301599999999666,0.2999699999999734,0.3014823817405953,-0.009050000000002,0.3989849999999819,136.025186,0.7485016640796284,105.1288136,0.1985620605938831,94.402118,0.1504792061050982,0.0370924599999999,0.288928168,0.0224731351321521,0,0
8,266.6666666666667,486.5835,94.36878,0.93408895,488.7044,92.19248,0.91093665,484.8869,92.25525,0.8333764,493.11777,93.04952,0.79149884,483.15335,93.34081,0.4867031,499.54483,105.676254,0.9919173,480.48413,106.3268,0.98985493,504.76688,121.87529,0.9680186,476.90906,122.57762,0.93494344,504.44824,136.73897,0.94657904,476.66742,137.49962,0.9059102,497.39206,136.77682,0.9940999,485.66956,137.01555,0.9933751,497.29425,161.41953,0.98815536,486.48126,161.42702,0.98445964,497.1366,185.103,0.97236335,488.2134,184.62552,0.96582985,0.93581802,-0.32105859,0.83028159,0.28863339,160.9042518416549,168.52069200071853,179.84599030036247,177.63429922034774,2.809897247597579,136.896185,106.001527,94.36878,28.099460000000025,92.91052,0.3024357166181429,178.04524087182924,0.9171829794117649,-0.7321000000000026,0.2048099999999948,0.7602088832025062,-0.1346000000000344,0.4872299999999825,0.5054802003046136,-0.8046999999999684,0.1951660000000004,0.8280288989859891,-0.2216999999999416,0.4906069999999971,0.5383735863217765,-0.68847999999997,0.2489699999999999,0.7321139059599665,-0.0801399999999716,0.5608000000000004,0.5664971841059723,-0.4452299999999809,0.3996800000000036,0.5983091636436684,0.1185100000000147,0.6696400000000011,0.6800458438223154,-0.4412900000000377,0.7167600000000078,0.8417135865008029,0.1560699999999428,1.0301000000000045,1.041855966484807,0.3069499999999721,0.955063999999993,1.0031777243320197,0.787119999999959,1.0818239999999832,1.3378718404151797,0.1347599999999715,1.3136100000000113,1.320504255843207,0.8187499999999659,1.4816900000000146,1.6928546359921124,-0.0070200000000113,0.8064700000000045,0.8065005525726608,0.4622799999999643,0.768730000000005,0.8970220796056108,-0.3618399999999724,0.8967399999999941,0.9669905962314056,0.5804900000000544,0.7079699999999889,0.9155272584691552,-0.458280000000002,-0.2320699999999931,0.5136896371351077,0.2635999999999967,-0.4907099999999786,0.5570289616348304,-0.4056100000000242,0.082979999999992,0.4140110535964207,0.539359999999931,-1.1006000000000142,1.2256547513879903,0.7445999999999913,1.4323999999999728,1.6143726087864316,1.3338599999999587,1.4224799999999505,1.9500338073991816,0.795379999999966,1.5742199999999968,1.763745433105338,1.4118299999999522,1.6022399999999948,2.1355179621112645,0.1262499999999704,1.350180000000023,1.3560697234655947,1.097349999999949,1.4263400000000388,1.7996174088122172,1.2316600000000335,1.3666900000000055,1.839790181433768,1.5251200000000722,1.4967300000000137,2.136864924907576,-0.706230000000005,1.287050000000022,1.4680798736445044,0.5919000000000096,1.59119000000004,1.6977135288676175,0.4358699999999658,1.2109800000000064,1.287033495018675,0.3495899999999778,1.595700000000022,1.6335457318667437,1.503309999999999,1.512360000000001,135.97170799999998,0.6498902262651518,105.263042,0.4440210862216996,94.360484,0.1145144206203858,-0.0098258199999999,0.2832783219999999,0.0164255815650639,0,0
9,300.0,486.3472,94.27484,0.92960656,488.411,92.082535,0.9027679,484.61212,92.149025,0.8267256,492.72906,92.95575,0.77525467,482.77814,93.23688,0.48628753,499.12564,105.674965,0.99106336,480.09946,106.304565,0.9891945,504.31396,122.171234,0.96468216,476.56137,122.917175,0.9330066,503.67313,137.00156,0.9419557,476.10773,138.11197,0.90309894,496.96667,136.8853,0.99359506,485.33316,137.11575,0.99295735,496.4378,161.73141,0.98740935,486.2628,161.74654,0.9838532,496.07092,185.86826,0.9708528,488.21204,185.43501,0.96454996,0.94395486,-0.34562313,0.82954465,0.28887904,160.06661208497633,169.68705365863732,179.65140889467608,177.45741866056238,2.8381640687673264,137.00052499999998,105.989765,94.27484,28.206230000000005,93.785725,0.3007518436227705,178.10470287472006,0.913933014117647,-0.2363000000000283,-0.0939400000000034,0.2542880524130342,0.4957999999999742,-0.2987499999999983,0.5788516239071749,-0.2934000000000196,-0.1099450000000104,0.3133232564381613,0.5112999999999488,-0.3051110000000108,0.5954161673325257,-0.2747800000000211,-0.1062250000000091,0.2945976901216531,0.4136999999999489,-0.355195000000009,0.545262485437027,-0.3887100000000032,-0.0937700000000063,0.399860321862527,0.0565199999999777,-0.4934500000000099,0.4966763663594306,-0.3752099999999814,-0.1039300000000054,0.389337885390039,0.0660800000000563,-0.8206900000000132,0.8233460041197924,-0.4191900000000146,-0.0012889999999998,0.419191981818608,-0.7261399999999867,-0.9563529999999928,1.20078739175966,-0.3846699999999714,-0.0222350000000091,0.3853120866583067,-0.519429999999943,-1.3358450000000204,1.433279243178033,-0.452920000000006,0.2959439999999915,0.5410354679094527,-0.4458999999999946,-0.5105260000000129,0.6778374485641881,-0.34769,0.3395550000000042,0.4859896440511906,0.0141499999999723,-0.5571849999999898,0.5573646443083629,-0.7751099999999838,0.2625900000000172,0.8183819525136071,-0.3168299999999817,0.4946600000000103,0.5874263907078049,-0.5596899999999891,0.6123500000000206,0.8295935261319323,-0.1540799999999649,0.5293700000000285,0.5513376853617205,-0.425389999999993,0.1084800000000143,0.4390040574983302,-1.1699899999999843,-1.3239199999999585,1.766816562776072,-0.3363999999999691,0.1002000000000009,0.3510056979594198,-1.1317799999999352,-1.474019999999996,1.858402789709443,-0.8564499999999953,0.3118800000000021,0.9114689994179688,-0.9826999999999656,-1.0383000000000209,1.4296035044724729,-0.2184599999999932,0.3195200000000113,0.3870630465441053,-1.4501200000000267,-1.0471699999999942,1.7886903095002402,-1.0656799999999862,0.7652599999999836,1.3119819853945958,-0.3594499999999812,-0.5217900000000384,0.6336158983169745,-0.0013599999999769,0.8094900000000109,0.8094911424469187,-0.4372299999999427,-0.4014899999999954,0.5936028074394075,0.1043399999999792,-1.3989700000000198,136.100294,0.7931445439703735,105.3976054,0.5530151035083067,94.32832,0.1106402496834838,0.0002456499999999,0.2816570619999999,0.0150793086606074,0,0
10,333.3333333333333,486.19507,94.5094,0.9272995,488.24396,92.27324,0.89698315,484.38126,92.34331,0.8250696,492.5265,93.048,0.7598904,482.35434,93.314926,0.490097,498.8518,105.86218,0.99025714,479.60565,106.31836,0.9888094,504.08157,122.82024,0.96169436,475.85406,122.92253,0.93342465,503.20706,138.38045,0.9381718,475.39627,138.33496,0.90346205,496.62778,137.71725,0.9929311,484.92572,137.89978,0.9924522,495.87735,162.55972,0.98580176,486.31583,162.54153,0.9823611,495.6163,186.94733,0.9667595,488.89655,186.49911,0.96048886,0.96780522,-0.44388131,0.78532847,0.35053604,159.64379686905346,168.9695551884291,178.8830389358638,177.0805744555529,2.794169372101857,137.808515,106.09027,94.5094,28.685299999999984,94.67409,0.3029899700859022,178.64220658732563,0.9115266805882352,-0.1521299999999996,0.2345600000000018,0.2795745526688736,0.0841700000000287,0.3285000000000053,0.3391118383365705,-0.1670399999999858,0.1907050000000083,0.2535167817423502,0.1263600000000337,0.3006500000000187,0.3261246266383755,-0.2308600000000069,0.1942850000000078,0.3017333273355899,0.0439200000000141,0.3005100000000169,0.3037025296239914,-0.2025600000000054,0.092250000000007,0.2225772137933339,0.1861499999999978,0.1860200000000134,0.2631639468088366,-0.4238000000000284,0.0780460000000005,0.4309264648591731,-0.0485900000000469,0.1819760000000059,0.1883514074171114,-0.2738399999999501,0.1872149999999948,0.3317194625356955,0.1453500000000644,0.1885039999999946,0.2380344103612264,-0.4938099999999963,0.0137950000000017,0.494002649916978,-0.1091400000000248,0.0360300000000108,0.114933461185184,-0.2323900000000094,0.649006,0.6893575996070576,0.2205299999999965,0.3530620000000084,0.4162766588988679,-0.7073100000000068,0.0053549999999944,0.707330270895435,-0.3596200000000067,-0.3342000000000098,0.4909339918970893,-0.466070000000002,1.3788899999999842,1.4555270100551063,0.3090399999999818,1.116299999999967,1.158288138418034,-0.7114599999999882,0.2229899999999816,0.7455869310147375,-0.151769999999999,-0.389360000000039,0.4178939369026908,-0.338890000000049,0.8319500000000062,0.8983246821723444,0.086499999999944,0.7234699999999918,0.7286227356458063,-0.4074400000000082,0.7840300000000013,0.883578176790265,-0.071040000000039,0.6838300000000004,0.687510109380223,-0.560450000000003,0.8283099999999877,1.00010082421723,0.2959999999999922,0.5164299999999855,0.5952444413012024,0.0530299999999783,0.7949899999999843,0.7967567263600431,0.2714899999999716,0.4754699999999729,0.5475203566991449,-0.4546199999999771,1.0790700000000015,1.1709275849940433,0.611060000000009,0.3138100000000179,0.68692870059419,0.6845099999999888,1.0640999999999965,1.2652520500279685,0.6858699999999658,0.2546099999999853,0.7316036556769968,0.807990000000018,0.7036500000000387,136.500005,1.0666763574533704,105.5926724,0.5985250286005688,94.352676,0.1371791366426525,0.061657,0.297574886,0.0326812754605634,0,0
11,366.6666666666666,486.15894,94.23142,0.93078583,488.27594,92.05148,0.89407426,484.35156,92.08008,0.83857906,492.27383,92.58565,0.76327366,482.303,92.69313,0.5533812,498.2862,104.98286,0.99195015,479.1187,105.324135,0.991963,503.52304,121.8853,0.95561683,475.39362,122.15889,0.93850213,501.62903,136.6849,0.9226117,474.8584,137.83875,0.8975321,496.03467,137.19669,0.9932747,484.27893,137.32755,0.99342465,495.14688,162.90771,0.98295504,485.28058,162.82205,0.98071015,495.8701,187.80212,0.95703775,489.02722,187.26778,0.9522414,0.97166267,-0.48367587,0.75634231,0.37166155,155.49267721286964,169.47800651588088,176.35832630991263,173.536376277677,2.59346115107189,137.26211999999998,105.1534975,94.23142,28.664639999999963,95.75064,0.2993676042335838,178.9799634124674,0.913994918235294,-0.0361300000000142,-0.2779799999999994,0.2803181358742254,0.1159999999999854,-0.5125400000000013,0.5255028559389548,0.0319799999999759,-0.2217600000000033,0.2240540515143609,0.1990199999999617,-0.4124650000000116,0.4579697988131907,-0.0296999999999911,-0.2632300000000072,0.2649002130992032,0.2011600000000157,-0.457515000000015,0.4997852747180734,-0.2526700000000232,-0.4623500000000007,0.5268867538665328,-0.0501100000000178,-0.5546000000000078,0.5568592031205108,-0.0513399999999819,-0.6217960000000033,0.6239119018066592,0.3724600000000464,-0.6998420000000038,0.7927832468992013,-0.5656000000000176,-0.8793199999999928,1.045517585887491,-0.2917600000000675,-1.0665349999999876,1.105721847403321,-0.4869500000000357,-0.994225,1.107069850156274,0.0068599999999605,-1.008020000000002,1.008043342322146,-0.5585300000000188,-0.9349399999999974,1.0890677501882131,-0.3261400000000094,-1.5839459999999974,1.6171741497179573,-0.4604400000000055,-0.7636399999999952,0.8917124218042484,0.2468700000000012,-0.7689949999999897,0.8076497427257591,-1.5780300000000125,-1.6955499999999972,2.3162617476010845,-1.1119600000000105,-3.0744399999999814,3.2693480015440244,-0.5378699999999981,-0.4962099999999907,0.7317981285846451,0.1735899999999901,-0.7191999999999723,0.7398527746112444,-0.5931099999999674,-0.5205600000000175,0.7891528278476733,-0.2542199999999184,-1.3525100000000236,1.3761944297591175,-0.64679000000001,-0.5722299999999905,0.8635881408402978,-0.2393500000000017,-1.3562599999999918,1.3772180691887463,-0.7304699999999684,0.34799000000001,0.8091251207322393,-0.1700199999999654,-0.4803199999999776,0.5095234075093771,-1.035250000000019,0.2805199999999956,1.0725828792685612,-1.0882799999999977,-0.5144699999999887,1.2037577577320044,0.2537999999999556,0.8547900000000084,0.8916728010318536,0.7084199999999328,-0.2242799999999931,0.7430749725296242,0.1306700000000091,0.768669999999986,0.7796975168614947,-0.5538399999999797,-0.2954300000000103,0.6277082367628958,-0.5463950000000182,-1.354385000000036,136.872044,0.8991896776292542,105.6204499,0.5674040329452764,94.309682,0.134118180795985,0.02112551,0.319633846,0.0387849170153917,0,0
12,400.0,485.96262,94.269516,0.9297771,488.0629,92.11932,0.8908428,484.20145,92.13524,0.8394202,492.07886,92.70262,0.75403565,482.19403,92.76619,0.5585574,498.16824,105.13073,0.99164903,478.90234,105.37905,0.9921416,503.50742,121.88649,0.9538423,474.76773,122.01932,0.94185203,501.46832,135.98816,0.92060053,474.61194,137.3287,0.90192056,496.09167,137.79515,0.9932105,484.23828,137.86888,0.9935819,495.00552,163.70633,0.9823944,484.71292,163.54153,0.9807227,495.95044,188.94116,0.95547205,488.53134,188.31534,0.95167816,1.02147021,-0.55221095,0.77255491,0.37632881,154.09771940434626,166.62931261349092,175.45522561555453,172.29704954065053,2.8638942862689367,137.832015,105.25489,94.269516,28.89548000000002,96.82184,0.298439687797302,179.2615501912078,0.9136293476470588,-0.1963199999999574,0.0380959999999959,0.1999821182405641,-0.1601899999999432,0.3160759999999953,0.3543513424215843,-0.2130399999999781,0.0678400000000039,0.2235806503255396,-0.245019999999954,0.2896000000000072,0.3793454367723192,-0.1501099999999837,0.0551600000000007,0.1599238496910176,-0.1204099999999925,0.3183900000000079,0.3403979438833367,-0.1949699999999552,0.1169699999999949,0.2273659644713371,0.057700000000068,0.5793199999999956,0.5821863553880344,-0.1089699999999993,0.0730599999999981,0.1311953676773672,-0.0576300000000173,0.6948560000000015,0.6972417641220325,-0.1179599999999823,0.1478699999999975,0.1891562806252943,0.4476400000000353,1.0271899999999905,1.1204913501227984,-0.2163600000000087,0.0549150000000082,0.2232203100638575,0.270590000000027,1.0491400000000084,1.083472975066767,-0.0156199999999557,0.001189999999994,0.0156652641215717,0.5429100000000631,0.9361299999999916,1.082169416034316,-0.6258900000000267,-0.1395700000000062,0.6412628766738607,-0.1654500000000212,0.624069999999989,0.6456292027162288,-0.1607099999999945,-0.6967400000000055,0.7150344968601207,1.417320000000018,0.9988099999999918,1.733902361293748,-0.2464600000000132,-0.5100500000000068,0.5664746544197837,0.2914099999999848,-0.013840000000016,0.2917384679811553,0.0570000000000163,0.5984600000000171,0.6011683388203527,0.6501099999999838,1.1190200000000343,1.2941594849554117,-0.0406500000000278,0.5413299999999879,0.5428541161306498,0.6061399999999821,1.1135599999999783,1.2678413044225725,-0.1413600000000201,0.7986199999999997,0.8110342495850623,0.5891099999999483,0.4506299999999896,0.7416993926112719,-0.5676599999999894,0.7194800000000043,0.9164547702969276,0.4675900000000297,0.4389600000000087,0.6413472458037341,0.0803400000000351,1.1390399999999945,1.1418697987073625,-0.1734599999999204,0.2842499999999859,0.3329961472749563,-0.4958799999999996,1.0475600000000045,1.1589991061256295,-0.6265500000000088,0.2788900000000183,0.685816691689566,0.5698950000000309,1.116290000000049,137.359872,0.4409906200193214,105.6979899,0.4538613918230586,94.3307912,0.1119196974049906,0.00466726,0.335207766,0.0435037296216085,0,0
13,433.33333333333337,486.53824,94.28349,0.93804634,488.74637,91.98482,0.9018412,484.60715,92.1433,0.8709304,492.67996,92.58501,0.7468519,482.0901,93.09175,0.6218498,498.90143,105.25147,0.9921359,478.39014,106.32555,0.99389774,504.0788,121.74698,0.96008915,474.45856,123.37659,0.9595912,501.80533,136.00626,0.9360635,473.84503,138.22653,0.93059987,496.81918,138.63425,0.9946002,484.1718,139.06651,0.9952519,495.71826,164.08453,0.9872093,485.29688,164.20587,0.9868995,495.8911,189.09793,0.9668533,489.00958,188.93526,0.9661214,1.02146008,-0.61509618,0.72588227,0.37166155,153.5158571539316,169.38167995513876,177.1271584731167,174.02426503060957,3.202206811381287,138.85038,105.78851,94.28349,30.233769999999996,97.11311,0.3113253163107914,177.00242681643007,0.9264019176470588,0.575619999999958,0.0139740000000045,0.5757895944491805,0.7719399999999155,-0.0241219999999913,0.7723167967122488,0.6834699999999998,-0.1345000000000027,0.696578416906525,0.8965099999999779,-0.2023400000000066,0.9190602024350544,0.4056999999999675,0.0080600000000004,0.405780055695168,0.5558099999999513,-0.0471000000000003,0.5578020850623865,0.601099999999974,-0.1176099999999991,0.612497609872862,0.7960699999999292,-0.234579999999994,0.8299127793327951,-0.1039299999999912,0.32556000000001,0.3417466290982322,0.0050400000000081,0.2525000000000119,0.252550295188911,0.7331899999999791,0.1207399999999978,0.7430650871222312,0.8511499999999614,-0.0271299999999996,0.8515822681338159,-0.5122000000000071,0.9465000000000005,1.076202160376947,-0.2958399999999983,0.8915849999999921,0.9393855001142954,0.5713799999999765,-0.1395100000000013,0.588165065691574,0.5869999999999322,-0.1406999999999953,0.6036269460518799,-0.3091699999999946,1.3572699999999998,1.3920373349159842,0.3167200000000321,1.496840000000006,1.5299808966127773,0.3370100000000207,0.018100000000004,0.3374957038245288,0.4977200000000152,0.7148400000000095,0.8710461663999381,-0.7669099999999958,0.897829999999999,1.1807834928554817,-0.5204499999999825,1.4078800000000058,1.5009977671202572,0.7275099999999952,0.839100000000002,1.1105672469958747,0.6705099999999788,0.2406399999999848,0.712384214943007,-0.0664799999999559,1.1976300000000035,1.1994737209709945,-0.025829999999928,0.6563000000000159,0.6568080989908827,0.7127399999999966,0.3781999999999925,0.8068664992425881,0.8541000000000167,-0.4204200000000071,0.9519662737723614,0.5839599999999905,0.6643400000000099,0.8845094217700578,1.15161999999998,-0.0551399999999944,1.1529393062949815,-0.0593400000000201,0.1567699999999945,0.1676247848619072,-0.1396800000000553,-0.9822699999999998,0.9921516291878046,0.478240000000028,0.6199200000000076,0.7829522999519423,0.9741200000000276,-0.4276399999999967,1.0638541930170933,1.0183649999999886,0.4484699999999577,137.750711,0.7107608163563444,105.6553865,0.4274764674575789,94.3137332,0.1111794185594838,-0.00466726,0.351813398,0.0365761833762498,0,0
14,466.6666666666667,487.03342,94.329254,0.94035184,489.2397,91.99565,0.8982389,484.95227,92.15669,0.8841454,493.0186,92.62143,0.72126716,482.06564,93.09329,0.66195047,498.98337,105.37985,0.99178094,478.02563,106.379166,0.9945263,504.16614,121.94861,0.955213,473.59238,123.51471,0.9648734,501.9869,136.29724,0.92994,473.15262,138.79576,0.937065,496.76993,138.98528,0.9944471,483.83405,139.40915,0.9955106,495.64368,164.40591,0.98653793,484.91537,164.51518,0.98738873,495.53464,189.3935,0.96524394,488.57126,189.28258,0.9667036,0.92606379,-0.57481033,0.64604751,0.3313757,153.99415642660958,167.14309094818614,177.71321580952556,174.06947505166616,3.088144863494344,139.197215,105.879508,94.329254,31.01351999999997,97.39785,0.3184209885698605,177.27006560980226,0.9279520182352942,0.4951800000000048,0.0457640000000054,0.4972902332602213,-0.0804399999999532,0.0317900000000008,0.0864939171271166,0.4933300000000145,0.0108299999999985,0.4934488603695566,-0.1901399999999853,0.1453300000000013,0.2393199291743059,0.3451200000000085,0.0133900000000011,0.3453796555965708,-0.060579999999959,0.0053300000000007,0.0608140222316781,0.338639999999998,0.0364200000000067,0.340592815543721,-0.2624599999999759,0.1540300000000058,0.3043197208529036,-0.0244600000000332,0.0015399999999914,0.024508431202376,0.0794699999999579,-0.3240200000000186,0.3336232025804041,0.0819399999999745,0.128380000000007,0.152300978329089,-0.6512500000000045,0.0076400000000091,0.6512948119707435,-0.3645099999999956,0.053615999999991,0.3684321044045916,0.1476900000000114,-0.8928840000000093,0.9050161178432238,0.0873399999999833,0.2016300000000086,0.2197337764204688,-0.4840399999999931,0.34114000000001,0.5921749920420485,-0.8661799999999857,0.1381200000000007,0.877123096720167,-0.5570099999999911,-1.219149999999999,1.340368181732164,0.1815699999999651,0.2909799999999904,0.3429825437248692,-0.1554400000000555,0.2728799999999864,0.3140463150556138,-0.6924099999999953,0.5692300000000046,0.8963561797633788,0.0745000000000004,-0.3285999999999944,0.3369394752770835,-0.0492500000000291,0.3510299999999802,0.3544680851642203,-0.7767600000000243,-0.4880700000000217,0.9173703845776028,-0.3377500000000282,0.3426400000000171,0.481120808217677,-0.2712700000000723,-0.8549899999999866,0.8969923706476083,-0.074579999999969,0.3213800000000049,0.3299201127545856,-0.7873199999999656,-0.0568199999999876,0.7893676550251755,-0.3815099999999916,0.3093099999999822,0.4911441297623158,-0.965469999999982,-0.3550300000000277,1.028678094352157,-0.35645999999997,0.2955699999999979,0.4630608561517345,-0.2971199999999498,0.1388000000000033,0.3279416631048442,-0.4383200000000329,0.3473199999999963,0.5592455675282785,-0.9165600000000608,-0.2726000000000113,0.9562389835183032,0.3468349999999986,-0.67152999999999,138.190049,0.8039323896432696,105.6333351,0.4083303396792333,94.324616,0.1090636167474046,-0.04028585,0.3603127299999999,0.0190200001441122,0,0
15,500.0,486.9911,94.147514,0.93470955,489.1751,91.897385,0.89029074,484.94354,91.85122,0.8605873,492.93604,92.545395,0.7295465,482.12018,92.37806,0.6065455,498.7619,105.46526,0.9915285,477.98883,105.30422,0.99315095,504.0122,123.22275,0.9490822,472.72397,122.43083,0.9495439,502.03854,138.77536,0.91344875,471.82224,139.05785,0.91042244,496.313,138.58015,0.99327236,483.65274,138.5386,0.99412775,494.57922,164.78319,0.98211664,484.63437,164.53102,0.98189974,494.82773,190.44525,0.9548506,488.93658,189.78912,0.95362556,1.3245598,-0.29207243,1.23829866,0.36846816,156.2965003296593,166.01641288010495,175.65958770352273,172.49638843609557,2.774181216294255,138.559375,105.38474,94.147514,32.189959999999985,98.59403,0.3264899474492527,-179.5558322627719,0.9169852341176472,-0.042319999999961,-0.1817400000000049,0.1866022775852387,-0.5374999999999659,-0.2275040000000103,0.5836645612130036,-0.0646000000000412,-0.0982649999999978,0.1175974924265177,-0.5579300000000558,-0.1090949999999963,0.5684959137276726,-0.0087300000000141,-0.3054699999999997,0.3055947214858268,-0.3538500000000226,-0.3188600000000008,0.4763208184616924,-0.0825600000000008,-0.0760350000000045,0.1122384730161669,-0.4211999999999989,-0.1124550000000113,0.4359536294435471,0.0545400000000313,-0.7152299999999912,0.7173064648391166,0.0790000000000645,-0.7167699999999826,0.7211104165798642,-0.2214699999999538,0.0854099999999959,0.2373685509918676,-0.3034099999999284,-0.042970000000011,0.3064376755556626,-0.036799999999971,-1.074945999999997,1.075575726258264,0.3277100000000246,-1.128561999999988,1.1751791488722003,-0.1539399999999773,1.2741400000000027,1.2834057282091271,-0.2412799999999606,1.072509999999994,1.099315122473974,-0.868409999999983,-1.0838799999999935,1.388859885841605,-0.0022299999999972,-1.2219999999999942,1.2220020347364344,0.0516400000000203,2.4781200000000183,2.478657988509123,-0.1299299999999448,2.187140000000028,2.1909959343869416,-1.330379999999991,0.2620900000000006,1.3559506305540687,-0.6379699999999957,-0.3071400000000039,0.7080541649478499,-0.4569299999999998,-0.4051299999999855,0.6106679472511949,-0.4076799999999707,-0.7561599999999657,0.8590581633393192,-0.1813099999999963,-0.8705500000000086,0.8892303518211766,0.1564400000000319,-1.2131900000000255,1.223234830153259,-1.0644599999999969,0.3772799999999847,1.1293428575946198,-0.9898800000000278,0.0558999999999798,0.9914571218161948,-0.2810000000000059,0.0158400000000256,0.281446097148289,0.1005099999999856,-0.2934699999999566,0.3102046115066177,-0.7069100000000503,1.0517499999999984,1.2672410230891626,-0.3504500000000803,0.7561800000000005,0.8334406966905666,0.365319999999997,0.5065400000000011,0.6245330047323351,0.8036400000000299,0.1592200000000048,0.8192607997457523,-0.6378400000000113,-0.98467500000001,138.340221,0.7847458986305957,105.4922291,0.3241875113017939,94.2522388,0.0682040804147846,0.0370924599999999,0.363899154,0.0183960376679193,0,0
16,533.3333333333334,487.3908,94.08022,0.9369977,489.63315,91.80947,0.8962582,485.32678,91.72265,0.8634506,493.4265,92.415115,0.7380127,482.4127,92.12213,0.60028625,499.16098,105.51361,0.9916192,478.0174,105.07681,0.99292433,504.36783,123.677155,0.95037323,472.1201,122.17842,0.9472086,503.17773,140.44635,0.91427875,470.73325,139.40868,0.9067305,496.32437,139.07233,0.9929073,483.4553,138.91144,0.99364966,494.40253,165.15222,0.9803539,484.1154,164.8051,0.9795577,494.50287,190.5794,0.9497469,488.06458,189.807,0.94734937,0.91954866,-0.40531498,0.67184028,0.4794999,159.94482120983247,165.5755865895046,175.5593644772598,172.4843023603411,2.2104844704023106,138.991885,105.29521,94.08022,33.63458000000003,98.85675,0.3402355394018566,-178.81650898019092,0.9165708758823528,0.3996999999999957,-0.0672940000000039,0.4053252674531864,0.4420199999999568,0.1144460000000009,0.4565956277889244,0.4580500000000143,-0.0879149999999953,0.4664106020718356,0.5226500000000556,0.0103500000000025,0.522752470104215,0.3832400000000007,-0.1285699999999963,0.4042315456517459,0.3919700000000148,0.1769000000000034,0.4300396387543976,0.4904599999999846,-0.130279999999999,0.5074681172250969,0.5730199999999854,-0.0542449999999945,0.5755818277404028,0.2925199999999677,-0.2559300000000064,0.3886748194827964,0.2379799999999363,0.4592999999999847,0.5172919585688102,0.3990799999999694,0.0483499999999992,0.4019982200209045,0.6205499999999233,-0.0370599999999967,0.6216556491337504,0.0285700000000019,-0.2274100000000061,0.229197628696291,0.065369999999973,0.847535999999991,0.8500532384480287,0.3556300000000192,0.4544049999999942,0.577023917116967,0.5095699999999965,-0.8197350000000085,0.965208296237144,-0.603870000000029,-0.2524099999999976,0.6544996447669271,0.264539999999954,0.8314699999999959,0.8725386939843808,1.139189999999985,1.670989999999989,2.0223653073072456,1.0875499999999647,-0.8071300000000292,1.354335202008709,-1.088990000000024,0.350830000000002,1.144107035639609,0.2413899999999671,0.0887400000000013,0.2571846023773281,0.0113699999999994,0.4921799999999905,0.4923113133983319,0.4682999999999993,0.8973099999999761,1.0121611166706397,-0.1974399999999718,0.3728399999999965,0.4218912409614429,-0.0161299999999755,1.243390000000005,1.2434946196103995,-0.1766900000000077,0.3690300000000093,0.40914850238026,0.8877699999999891,-0.0082499999999754,0.8878083325808449,-0.5189699999999675,0.2740799999999979,0.5868983790231195,-0.2379699999999616,0.2582399999999722,0.3511660839260639,-0.324860000000001,0.1341500000000053,0.351468692915887,0.3820500000000493,-0.9175999999999932,0.993957726716798,-0.8720000000000141,0.017879999999991,0.8721832917455048,-1.237320000000011,-0.4886600000000101,1.330319276715194,0.4325100000000077,1.070350000000019,138.686174,0.530860460318938,105.5205716,0.2917409434460694,94.2219988,0.1039133574918461,0.1110317399999999,0.385466824,0.0555227713318355,0,0
17,566.6666666666666,488.36874,93.82462,0.94128484,490.63815,91.54657,0.899662,486.2523,91.39105,0.8743211,494.35184,91.949356,0.7325268,483.1087,91.44226,0.62050915,499.68884,104.956894,0.9917762,478.41364,103.98566,0.99350053,504.34476,123.78076,0.9502262,472.11252,120.94101,0.9519934,502.99902,141.37378,0.9147261,470.67554,138.36427,0.91366893,496.12766,138.77776,0.99290717,483.15958,138.38509,0.99386567,494.16095,165.36368,0.9796189,483.82935,164.81021,0.9795263,494.05606,191.13516,0.946664,487.50876,190.14859,0.94552296,0.84810759,-0.12748998,0.64457363,0.53624399,161.7330169793051,164.32820074159528,176.0024067913672,173.1896808754289,0.9950341112439794,138.581425,104.471277,93.82462,33.66922,99.74411,0.3375559685924715,-177.38620550679946,0.918958838235294,0.9779399999999896,-0.2556000000000011,1.0107907813192505,0.5782399999999939,-0.1883059999999972,0.6081288080957782,1.0049999999999957,-0.2629000000000019,1.0388173131017753,0.5469499999999812,-0.1749850000000066,0.5742595691192108,0.925520000000006,-0.3315999999999945,0.9831306273329132,0.5422800000000052,-0.2030299999999982,0.5790412587199679,0.9253400000000056,-0.4657590000000056,1.0359466982818255,0.434880000000021,-0.3354790000000065,0.5492419993418408,0.6960000000000264,-0.679869999999994,0.972953861650196,0.4034800000000587,-0.4239399999999875,0.5852531366853464,0.5278600000000324,-0.5567159999999944,0.7671824321867831,0.1287800000000629,-0.6050659999999937,0.618618745881507,0.3962399999999775,-1.091149999999999,1.1608679770326942,0.3676699999999755,-0.8637399999999928,0.9387374587710716,-0.0230700000000183,0.1036050000000017,0.1061424558082259,-0.3787000000000375,-0.3507999999999924,0.5162115167254826,-0.0075799999999617,-1.237409999999997,1.2374332161777426,0.5962900000000673,-0.9849999999999994,1.1514281410926517,-0.1787100000000236,0.9274300000000152,0.944491222299094,-1.3179000000000087,-0.7435599999999738,1.5131893085797243,-0.0577099999999859,-1.0444099999999992,1.0460031989434817,1.031280000000038,-1.3952400000000011,1.7350023331396651,-0.1967099999999959,-0.2945699999999931,0.3542122372250771,-0.2080799999999953,-0.7867499999999836,0.813801480030586,-0.2957200000000171,-0.5263500000000079,0.6037339156449788,-0.0982800000000452,-0.8991900000000044,0.9045449764937156,-0.241579999999999,0.2114599999999882,0.3210548675849574,-0.0648899999999912,-0.157570000000021,0.170408383009773,-0.2860500000000456,0.0051100000000019,0.2860956389042415,0.2329199999999218,-0.2689699999999959,0.3558041417689814,-0.4468099999999708,0.5557600000000207,0.7130977167962305,-0.1219499999999698,0.4216100000000153,0.4388926914406363,-0.5558199999999829,0.3415900000000249,0.6523952793360771,0.3161800000000312,0.3237100000000339,0.4525018856314763,-0.4104600000000005,-0.8429700000000082,138.836056,0.272173198267286,105.363849,0.5585860924217382,94.13301959999998,0.1995353851396659,0.05674409,0.4174498599999999,0.0864100544984639,0,0
18,600.0,488.78333,93.67862,0.9452678,491.05447,91.42822,0.9052624,486.72052,91.23901,0.88084507,494.78482,91.715225,0.7398827,483.65057,91.12541,0.62904,500.0344,104.60668,0.992638,478.88416,103.41766,0.99435705,504.58478,123.52606,0.9559687,472.5356,120.094894,0.9586384,502.96912,141.18803,0.9244885,470.69116,137.34619,0.92482626,496.02808,138.58261,0.99384815,483.1258,138.08342,0.99476224,494.30637,165.29752,0.98183733,483.94067,164.64984,0.9819625,494.32465,191.17488,0.9509224,487.56906,190.08879,0.9502759,0.77632218,0.04569005,0.65046912,0.42128193,161.2497248792143,165.2622136090846,176.27205257932485,173.6394581892398,0.1969091128537061,138.333015,104.01217,93.67862,33.89362,100.04947,0.3387686077820441,-176.78234410964134,0.9238131411764704,0.4145899999999756,-0.1460000000000008,0.4395462070135288,-0.563350000000014,0.1096000000000003,0.5739123474016009,0.4163199999999847,-0.1183500000000066,0.4328152780343929,-0.5886800000000108,0.1445499999999953,0.6061673406741832,0.4682200000000307,-0.1520400000000137,0.4922866339847477,-0.4572999999999751,0.1795599999999808,0.491289205661971,0.4329800000000432,-0.2341309999999907,0.4922286110752128,-0.4923599999999624,0.2316280000000148,0.54412305592023,0.5418700000000172,-0.3168500000000023,0.6277077499920007,-0.1541300000000092,0.3630199999999917,0.3943850622171139,0.3455599999999776,-0.3502140000000082,0.4919975197051204,-0.1823000000000547,0.2065019999999862,0.2754566499542428,0.4705200000000218,-0.5679999999999978,0.7375724170547716,0.0742800000000443,0.5231500000000011,0.5283970485345351,0.2400200000000154,-0.2546999999999997,0.3499738424511284,0.2630900000000338,-0.3583050000000014,0.4445208894135559,0.4230799999999703,-0.8461160000000092,0.945996285328854,0.4306599999999321,0.3912939999999878,0.5818754420285599,-0.0298999999999978,-0.1857500000000129,0.1881410973179562,0.1488100000000258,-1.1131800000000285,1.12308242284352,0.0156200000000126,-1.0180799999999977,1.0181998186996477,0.0733299999999985,0.0263300000000015,0.0779137844030173,-0.0995800000000031,-0.1951500000000123,0.2190883358374093,0.0971299999999928,0.0994199999999807,0.1389912705891804,-0.0337799999999788,-0.3016700000000014,0.3035553941210721,0.2619400000000382,0.2246800000000064,0.3450995015934142,0.1454200000000014,-0.0661599999999964,0.1597627052850569,0.3870000000000004,-0.2776199999999846,0.4762791874520571,0.1113200000000347,-0.1603700000000003,0.1952195668984229,0.3973700000000804,-0.1654800000000023,0.4304492389353995,0.2685900000000174,0.0397199999999884,0.2715110798844283,0.7153999999999883,-0.5160400000000323,0.8820966169303771,0.0602999999999838,-0.059800000000024,0.0849242603735877,0.6161199999999667,-0.401390000000049,0.7353351524985041,-0.2484100000000069,0.1620499999999936,138.73258299999998,0.3520031113073316,105.008581,0.7522792177090598,94.0120456,0.259769894096378,-0.1149620599999999,0.427373936,0.0826021626219162,0,0
19,633.3333333333333,489.22034,93.43093,0.9473778,491.55176,91.17396,0.9056257,487.1254,90.96735,0.8883881,495.2397,91.55354,0.73220325,483.9066,90.91562,0.6490896,500.27823,104.64954,0.9926968,478.93893,103.29813,0.9948207,504.5745,123.94508,0.9545377,472.60712,119.92563,0.962262,502.6136,141.58447,0.92282665,470.3941,136.74435,0.9298672,495.6755,138.69237,0.9940236,482.60016,138.1062,0.99512744,493.8485,165.73814,0.9822809,483.13214,165.01636,0.9831525,494.12036,192.10074,0.9523679,486.91217,190.97768,0.9531863,0.93969797,0.08916929,0.88481487,0.30361776,161.10420668312224,166.64895117180106,175.54458455309907,172.84832980140408,0.7835626398869671,138.39928500000002,103.973835,93.43093,34.18040000000002,101.18512,0.3378006535170326,-176.37631867107368,0.9258725964705884,0.4370100000000434,-0.2476899999999915,0.5023226813513738,0.0224200000000678,-0.1016899999999907,0.1041321876270788,0.4972900000000209,-0.2542600000000021,0.5585208068640074,0.0809700000000361,-0.1359099999999955,0.1582013558728389,0.4048799999999914,-0.2716599999999971,0.4875725279381433,-0.0633400000000392,-0.1196199999999834,0.1353547191641318,0.4548800000000028,-0.1616850000000056,0.4827606587378516,0.0218999999999596,0.0724459999999851,0.0756837691714417,0.2560300000000097,-0.2097899999999981,0.3310033307989577,-0.2858400000000074,0.1070600000000041,0.305231632043609,0.2438300000000026,0.0428600000000045,0.2475682703821345,-0.101729999999975,0.3930740000000128,0.4060248297530645,0.054770000000019,-0.1195299999999974,0.131480697442634,-0.4157500000000027,0.4484700000000003,0.6115336486245075,-0.0102800000000229,0.4190200000000033,0.4191460828875814,-0.2503000000000384,0.673720000000003,0.718713244903712,0.0715200000000209,-0.1692639999999983,0.1837536723333779,-0.3515599999999494,0.6768520000000109,0.7627077182669513,-0.3555199999999558,0.3964400000000125,0.5325027173639385,-0.325619999999958,0.5821900000000255,0.6670634006599391,-0.2970600000000445,-0.6018400000000099,0.6711602112759951,-0.3126800000000571,0.4162399999999877,0.5206001536688455,-0.352579999999989,0.1097600000000227,0.369269432799409,-0.2529999999999859,0.3049100000000351,0.3962058910465798,-0.5256400000000099,0.0227800000000115,0.5261333842287628,-0.491860000000031,0.324450000000013,0.5892317558482731,-0.457870000000014,0.4406199999999955,0.6354454510813725,-0.6032900000000154,0.506779999999992,0.787898973536589,-0.8085300000000188,0.36651999999998,0.8877261240382733,-0.9198500000000536,0.5268899999999803,1.0600646652917347,-0.2042900000000145,0.92586,0.948130341092408,-0.4728800000000319,0.8861400000000117,1.0044200286732892,-0.6568899999999758,0.8888900000000035,1.1052736784163342,-0.7171899999999596,0.9486900000000276,1.189274658016387,0.0662700000000313,0.3146800000000382,138.57299700000002,0.2566568554900295,104.6274464,0.6799933113988818,93.8323808,0.2939381572937614,-0.11766417,0.4218223479999999,0.0911568678373886,0,0
20,666.6666666666666,489.6141,93.403656,0.9520152,491.94485,91.1664,0.9113308,487.5136,90.93987,0.90099174,495.56723,91.51172,0.7314683,484.2053,90.82924,0.6749614,500.5145,104.578354,0.99280965,479.0647,103.20898,0.995314,504.88745,123.682434,0.95436764,472.5184,119.78545,0.9668413,502.91992,141.01837,0.9230624,469.34744,136.91818,0.9364533,495.6006,138.71236,0.9934187,482.39706,138.08879,0.9948743,493.80377,165.32852,0.9782106,482.27045,164.5624,0.98022723,494.28677,190.72061,0.9393691,485.67465,189.59273,0.9424036,1.05786848,-0.09481914,0.95949109,0.43528372,160.63199591007913,168.93594314410643,175.04814894085828,171.98110512421388,1.3128488458842134,138.400575,103.893667,93.403656,35.540009999999995,99.89137,0.3557865874120398,-176.3471445172664,0.9275364270588236,0.3937599999999861,-0.0272740000000055,0.3947034439626659,-0.0432500000000573,0.2204159999999859,0.224619178958518,0.3930899999999724,-0.007559999999998,0.3931626911343169,-0.1042000000000484,0.2467000000000041,0.2678031553212399,0.3881999999999834,-0.027479999999997,0.3891714151887148,-0.016680000000008,0.24418,0.2447490445333756,0.3275299999999674,-0.0418200000000013,0.3301890569052506,-0.1273500000000353,0.1198650000000043,0.1748875087735257,0.2986999999999966,-0.0863800000000054,0.3109392133520617,0.0426699999999868,0.1234099999999926,0.130578547242635,0.2362699999999904,-0.0711859999999973,0.2467609359197583,-0.0075600000000122,-0.1140460000000018,0.1142962979103024,0.1257699999999886,-0.0891500000000036,0.1541616534680326,0.0709999999999695,0.0303799999999938,0.0772265783263463,0.3129500000000007,-0.2626460000000037,0.4085592047867756,0.3232300000000236,-0.681666000000007,0.7544177678554667,-0.0887200000000234,-0.1401800000000008,0.1658965665708739,-0.1602400000000443,0.0290839999999974,0.1628580260718337,0.306319999999971,-0.5661000000000058,0.6436622968606976,0.6618399999999269,-0.9625400000000184,1.1681247524130025,-1.0466599999999744,0.1738300000000094,1.0609967127658548,-0.7495999999999299,0.7756700000000194,1.0786862884545836,-0.0749000000000137,0.0199899999999786,0.0775216750335104,0.2776799999999753,-0.089770000000044,0.2918301480313406,-0.2031000000000062,-0.0174100000000123,0.2038448382961976,0.3225400000000036,-0.0401900000000239,0.3250342869606286,-0.0447300000000154,-0.4096199999999896,0.4120549930531031,0.4131399999999985,-0.8502399999999852,0.9453003317464632,-0.8616900000000101,-0.453959999999995,0.9739555111502848,-0.0531599999999912,-0.820479999999975,0.8222003502796371,0.1664099999999848,-1.3801300000000083,1.3901262910253938,0.3706999999999993,-2.3059900000000084,2.335595934681348,-1.2375200000000175,-1.3849500000000037,1.8572943366359715,-0.580630000000042,-2.273840000000007,2.3468019819533303,0.0012899999999831,-0.0649800000000482,138.541237,0.2683240881285674,104.3292318,0.5852013514992924,93.6836092,0.2825905327558944,0.1316659599999999,0.43518546,0.0861393835058227,0,0
21,700.0,489.45154,94.15604,0.9512649,491.85614,91.923706,0.91501325,487.42245,91.62637,0.89387447,495.60544,92.07168,0.74864805,484.18753,91.23077,0.6412481,500.569,104.858894,0.9930686,478.8757,103.32257,0.9949019,505.10162,123.934906,0.95873016,471.9631,119.919174,0.9630556,503.05734,140.95995,0.9293001,468.1209,137.22806,0.93177086,494.9451,139.12715,0.99384105,481.57553,138.38599,0.9948578,493.16177,165.98615,0.98035187,481.1198,165.12534,0.98070747,493.6766,192.19368,0.94542944,484.22177,190.9246,0.9450626,0.99244631,-0.23311752,0.85067016,0.45493535,159.7869015625194,169.90343271922015,175.07597045242855,172.16754024196683,2.415062859899039,138.75657,104.090732,94.15604,36.98072000000002,100.96291,0.3662802472087995,-175.9490644825646,0.9271250717647058,-0.1625599999999849,0.7523840000000064,0.7697450467888732,-0.5563199999999711,0.779658000000012,0.9577883583360086,-0.0887099999999918,0.7573059999999998,0.7624839944129964,-0.4817999999999642,0.7648659999999978,0.9039641795756966,-0.0911499999999705,0.6864999999999952,0.6925247811450418,-0.479349999999954,0.7139799999999923,0.859967361531788,0.0382099999999923,0.5599600000000038,0.5612621541668418,-0.2893199999999751,0.6017800000000051,0.6677164299311436,-0.0177700000000413,0.4015300000000081,0.401923019743841,-0.316470000000038,0.4879100000000136,0.5815577606738968,0.0545000000000186,0.280540000000002,0.2857847819601372,-0.1817699999999718,0.3517259999999993,0.3959185673544362,-0.1890000000000213,0.113590000000002,0.2205077960073261,-0.31477000000001,0.2027400000000057,0.3744110849053598,0.2141700000000241,0.2524719999999973,0.3310753685854763,-0.0987799999999765,0.5151180000000011,0.5245036151677093,-0.5552999999999884,0.1337240000000008,0.5711744025917017,-0.4665799999999649,0.2739040000000017,0.5410363182042109,0.13742000000002,-0.0584200000000123,0.1493223117956823,-0.1688999999999509,0.5076799999999935,0.5350384961850659,-1.22654,0.3098799999999926,1.265079438612451,-0.1798800000000255,0.1360499999999831,0.2255358439361792,-0.6554999999999609,0.4147900000000106,0.7757132164014982,-0.5805999999999472,0.394800000000032,0.7021135235843018,-0.8215299999999957,0.2972000000000037,0.8736357255172175,-0.6184299999999894,0.314610000000016,0.6938552565196843,-0.6419999999999959,0.6576300000000117,0.9190436425437096,-0.5972699999999804,1.0672500000000014,1.2230102270218264,-1.1506499999999846,0.5629399999999976,1.2809749670075374,-0.2889599999999745,1.0168999999999926,1.0571582150274246,-0.6101699999999823,1.473070000000007,1.5944411728878551,-0.7765799999999672,2.8532000000000157,2.956996235438936,-1.4528799999999933,1.3318700000000092,1.9709738687511829,-0.2153599999999755,2.7168200000000127,2.7253423348269585,0.3559950000000071,0.354705000000024,138.494174,0.1733503073404386,104.0883362,0.225531210930075,93.6987732,0.3099075008954469,0.01965163,0.43027255,0.0836444539437774,0,0
22,733.3333333333333,489.20395,94.8539,0.94918334,491.66864,92.6426,0.91441107,487.26364,92.25483,0.8867858,495.52963,92.58979,0.7532112,484.1256,91.51627,0.6170244,500.50308,105.05139,0.99284077,478.504,103.27492,0.9943441,505.10037,124.0309,0.95956177,471.39575,119.960205,0.9594853,502.98962,140.8142,0.9302683,467.975,137.77803,0.9267946,494.3938,139.4892,0.99353206,480.72342,138.61064,0.99437666,492.86368,166.53682,0.9790869,479.70117,165.53691,0.97859174,493.189,192.76007,0.94153553,482.07065,191.28735,0.9393834,0.92919043,-0.27512289,0.81652544,0.34783394,159.21568603121364,167.79274919769276,176.0513884805711,172.56843701057716,3.1909542755724245,139.04992,104.163155,94.8539,37.125369999999975,101.2438,0.3666927716394209,-175.383268125304,0.9241421729411764,-0.2475900000000024,0.6978599999999915,0.7404791608816478,-0.0850300000000174,-0.0545240000000148,0.1010097395106263,-0.1875,0.7188940000000059,0.742943358026713,-0.0987900000000081,-0.0384119999999938,0.1059950274494098,-0.1588100000000167,0.628460000000004,0.6482149240028421,-0.0676600000000462,-0.0580399999999912,0.0891432397885854,-0.0758099999999899,0.518109999999993,0.5236268978958121,-0.1140199999999822,-0.0418500000000108,0.1214577412106649,-0.0619299999999611,0.285499999999999,0.292139649654056,-0.0441599999999198,-0.1160300000000091,0.124149371726139,-0.0659200000000055,0.1924959999999913,0.2034702838647388,-0.1204200000000241,-0.0880440000000106,0.1491734639136857,-0.3716999999999757,-0.0476500000000044,0.3747417944398281,-0.1826999999999543,-0.1612400000000065,0.2436752502819796,-0.0012500000000272,0.0959940000000045,0.0960021381845266,-0.2154200000000514,-0.1564779999999928,0.2662539030399741,-0.5673499999999763,0.0410310000000038,0.5688317549688777,-0.0120499999999879,-0.092692999999997,0.093472962663003,-0.0677200000000084,-0.1457499999999925,0.1607142212126822,-0.2051400000000285,-0.0873299999999801,0.2229550369469329,-0.1458999999999832,0.5499700000000018,0.5689936826538561,1.0806400000000167,0.2400900000000092,1.1069896195087108,-0.5513000000000261,0.3620500000000106,0.6595543135330376,0.1041999999999347,-0.05274,0.1167867612359654,-0.8521100000000388,0.2246499999999969,0.8812258930603802,-0.0305800000000431,-0.0725500000000067,0.078731435272092,-0.2980900000000019,0.5506699999999967,0.6261749731504745,0.3439099999999939,-0.106960000000015,0.3601590339003022,-1.4186300000000074,0.4115700000000117,1.4771259058726276,-0.2679800000000227,-0.1513699999999858,0.3077761480362114,-0.4875999999999862,0.5663900000000126,0.7473629587422707,0.122569999999996,-0.9066799999999944,0.9149273344369973,-2.151119999999992,0.3627500000000054,2.181491420313169,-0.6982399999999984,-0.9691200000000038,1.194459154596759,0.2933499999999753,-0.0626450000000318,138.587873,0.307223323793176,104.0267118,0.1041917361962197,93.9046292,0.6104849874839268,-0.10710141,0.39259054,0.0641328457911172,0,0
23,766.6666666666667,489.00653,95.36099,0.8840944,491.02847,93.214676,0.81264955,487.47122,92.92795,0.76137143,494.55322,93.22109,0.62780756,484.71344,92.42516,0.46514648,500.4835,105.43728,0.9882173,478.3616,103.893776,0.9906363,504.7065,124.339386,0.9624395,471.09058,120.33774,0.96257496,502.66406,140.99374,0.94174546,467.73782,137.82974,0.9391073,494.23944,140.38707,0.99477464,480.4208,139.55917,0.99544096,492.66556,165.80862,0.986932,477.8279,164.83118,0.9865458,493.83026,191.55855,0.9629061,480.08548,190.19478,0.9613211,0.90215093,-0.258419,0.79982155,0.32769102,160.41445287889482,166.99694955712607,173.86747634663732,169.05555279686016,3.391574147887223,139.97312,104.665528,95.36099,36.968680000000006,99.13339,0.372918545679528,-176.00878887573356,0.8955124023529412,-0.1974200000000223,0.5070900000000051,0.5441644278157238,0.05016999999998,-0.1907699999999863,0.1972567408226973,-0.640169999999955,0.5720759999999956,0.8585386296934677,-0.452669999999955,-0.1468180000000103,0.4758840762454259,0.2075800000000072,0.6731199999999973,0.7044004477568135,0.366390000000024,0.0446599999999932,0.3691018121061138,-0.9764099999999872,0.6313000000000102,1.1627193032284222,-0.9005999999999972,0.1131900000000172,0.9076851525171044,0.5878399999999715,0.9088899999999996,1.082421774402181,0.6497699999999327,0.6233900000000006,0.9004532997329252,-0.019580000000019,0.3858900000000034,0.386386423803947,0.0463399999999865,0.193394000000012,0.1988683857127708,-0.1424000000000091,0.6188560000000081,0.6350279590191384,0.2292999999999665,0.6665060000000125,0.7048466060328313,-0.3938699999999926,0.308486000000002,0.500297100827094,-0.3926199999999653,0.2124919999999974,0.446433997880954,-0.3051700000000323,0.3775349999999946,0.4854496937119393,0.2621799999999439,0.3365039999999908,0.4265832795785184,-0.3255599999999958,0.1795400000000029,0.3717847834433226,-0.2578399999999874,0.3252899999999954,0.4150843886488511,-0.2371800000000234,0.0517099999999857,0.2427514706443808,-0.0912800000000402,-0.4982600000000161,0.506552135520149,-0.1543599999999969,0.8978699999999833,0.9110420113803585,0.3969400000000291,0.5358199999999727,0.6668316399211976,-0.3026199999999903,0.9485300000000052,0.9956344837840864,0.5494900000000484,0.7238800000000083,0.9088132451169852,-0.1981199999999603,-0.7282000000000153,0.7546699771423311,0.0999700000000416,-1.278870000000012,1.2827714051225334,-1.8732699999999909,-0.7057300000000168,2.001798023228115,-0.4546399999999835,-1.1173000000000286,1.2062573604335225,0.6412599999999884,-1.2015200000000164,1.3619341753550442,1.1288599999999749,-1.767910000000029,2.097577332948668,-1.9851699999999823,-1.092569999999995,2.2659675932810512,0.1659500000000093,-1.4553200000000004,1.4647510726741264,0.9232000000000083,0.6298500000000331,138.91589400000004,0.6506751208110988,104.1573834,0.302457852340101,94.2411032,0.8652457075427982,-0.02014292,0.373872358,0.0672476538368469,0,0
24,800.0,488.57828,96.13711,0.90451276,490.69214,93.93866,0.84314024,486.92984,93.67758,0.79772377,494.37637,93.876816,0.6589521,484.12186,93.13082,0.49935013,500.29767,106.159386,0.98995084,477.8581,104.63629,0.99216354,504.6368,125.1799,0.96467507,470.40027,121.0668,0.9653665,502.9707,142.65915,0.94440377,467.94562,138.90166,0.94247776,494.2989,140.96518,0.99519366,480.26727,140.16115,0.995854,492.64352,166.74883,0.98776025,477.51114,165.77847,0.98749304,493.43442,192.63345,0.96515936,479.58777,191.2749,0.9638794,0.9033969,-0.23508269,0.82856207,0.27266644,161.7041825366212,163.42314631824146,174.57637913331894,169.2029101675666,2.92181079160663,140.563165,105.397838,96.13711,36.69117999999997,99.50263,0.3687458274344521,-176.11697877447415,0.9057680111764704,-0.4282499999999913,0.7761200000000059,0.8864312251381953,-0.230829999999969,0.2690300000000007,0.3544850205579724,-0.3363300000000322,0.7239840000000015,0.798292365713229,0.3038399999999228,0.1519080000000059,0.339698080748118,-0.5413800000000037,0.7496300000000105,0.9246823461600312,-0.748960000000011,0.0765100000000131,0.7528577964662506,-0.1768500000000017,0.6557260000000014,0.6791557329331781,0.7995599999999854,0.0244259999999911,0.799933011617833,-0.5915799999999649,0.7056599999999946,0.9208273084568848,-1.1794199999999364,-0.2032300000000049,1.19680155802867,-0.1858300000000099,0.7221059999999966,0.7456338673477746,-0.1662499999999909,0.3362159999999932,0.3750736743041191,-0.5035000000000309,0.7425139999999999,0.8971283577036404,-0.3611000000000217,0.1236579999999918,0.3816864039548876,-0.0697000000000116,0.8405139999999989,0.8433990005898748,0.324169999999981,0.5320279999999968,0.6230088134882076,-0.6903100000000109,0.729060000000004,1.0040201092109764,-0.3851399999999785,0.3515250000000094,0.5214428494331762,0.3066400000000158,1.6654100000000085,1.693404428274604,0.6322000000000116,1.4858700000000056,1.6147713450826502,0.2078000000000202,1.0719200000000058,1.091876058167785,0.4449800000000437,1.02021000000002,1.1130299387258549,0.0594600000000014,0.5781100000000094,0.5811597574677819,0.2138199999999983,-0.3197599999999738,0.3846627743881419,-0.1535299999999893,0.6019799999999975,0.6212498541649678,0.149090000000001,-0.3465500000000077,0.3772595003442665,-0.022040000000004,0.9402100000000077,0.9404682906403672,0.1760799999999562,1.6684100000000228,1.6776758013692816,-0.3167599999999879,0.9472900000000096,0.9988469560948816,1.556510000000003,1.6530200000000264,2.2705062211982807,-0.395840000000021,1.0749000000000135,1.145469037381651,-1.0371000000000097,2.27642000000003,2.5015324156205043,-0.4977100000000405,1.0801199999999938,1.1892747615669084,1.4874599999999418,2.1726899999999887,2.6330816712931213,0.5900450000000035,-0.333155000000005,139.34867,0.8949377085934825,104.442184,0.6052692996686717,94.7823392,1.0569271108800409,-0.0550245799999999,0.367682094,0.0761648216737462,0,0
25,833.3333333333334,487.7727,96.63495,0.86350507,489.7539,94.541885,0.7929474,486.49707,94.27858,0.7128426,493.59998,94.779366,0.6252411,484.3901,94.040245,0.404586,500.06396,107.20935,0.9878127,478.02133,105.529175,0.9896214,504.60968,126.42815,0.96667194,470.15912,121.62857,0.96238196,502.917,143.87347,0.948059,467.4074,138.91524,0.9405667,493.81232,142.25253,0.99519956,479.97592,141.33206,0.9956726,492.4197,168.48318,0.9876867,477.02457,167.4476,0.9868196,493.0166,194.56482,0.96411586,478.53235,193.12218,0.9615591,0.91612046,-0.23262623,0.86295243,0.20118362,161.15075982741328,163.0157781885244,175.6499105543399,170.19136328674924,3.470954488559665,141.79229500000002,106.3692625,96.63495,37.20228000000003,100.524575,0.3700814415770331,-175.64112158949615,0.8873699582352942,-0.8055800000000204,0.4978399999999965,0.9469972555398614,-0.377330000000029,-0.2782800000000094,0.468847189711133,-0.9382400000000076,0.6032249999999948,1.1154257923434474,-0.6019099999999753,-0.1207590000000067,0.6139042141743057,-0.432770000000005,0.6009999999999991,0.7406016965278996,0.1086099999999987,-0.1486300000000113,0.1840842443013608,-0.7763899999999921,0.9025499999999907,1.1905368262258715,-0.5995399999999904,0.2468239999999895,0.6483596984513946,0.2682399999999916,0.9094249999999988,0.9481595478741924,0.8598199999999565,0.2037650000000042,0.8836348836623229,-0.2337099999999736,1.0499640000000028,1.0756601532993555,-0.0478799999999637,0.3278580000000062,0.3313357248532077,0.1632299999999986,0.8928849999999926,0.9076825745407844,0.6667300000000296,0.1503709999999927,0.6834766495945837,-0.027119999999968,1.2482499999999987,1.2485445754557565,0.0425800000000435,0.4077359999999999,0.4099532925785614,-0.2411500000000046,0.5617699999999957,0.6113418482322287,0.4491600000000062,-0.1672900000000083,0.4793022529677994,-0.0537000000000489,1.2143199999999863,1.215506788298598,-0.3603400000000647,-0.451090000000022,0.5773448741437535,-0.5382200000000239,0.0135800000000188,0.5383912933917359,-0.7460200000000441,-1.058339999999987,1.2948472481339404,-0.4865800000000035,1.2873500000000035,1.3762376680283144,-0.546040000000005,0.7092399999999941,0.8950871796646386,-0.2913500000000226,1.1709100000000203,1.206613049241579,-0.1378200000000333,0.568930000000023,0.5853850846238187,-0.2238200000000461,1.7343500000000065,1.7487324880895998,-0.201780000000042,0.7941399999999987,0.8193738511815073,-0.4865700000000288,1.6691299999999956,1.7386044178593396,-0.1698100000000408,0.721839999999986,0.7415446188193896,-0.4178200000000061,1.931369999999987,1.9760474764792355,-0.021979999999985,0.8564699999999732,0.8567519952121229,-1.0554199999999696,1.847279999999984,2.127523154938596,-0.5577099999999291,0.7671599999999899,0.9484592293292872,1.2291300000000265,0.6390850000000228,140.027014,1.2222233949825136,104.93730309999998,0.9555691668365586,95.428598,0.9888790242340136,-0.07148282,0.320862074,0.0940684735775715,0,0
26,866.6666666666667,486.1301,97.2688,0.78438795,488.11237,95.18038,0.71512204,485.28598,94.89102,0.598323,492.55078,95.335754,0.57396793,483.8809,94.5511,0.32847738,499.62906,107.124146,0.9850765,477.178,105.4324,0.98715174,505.1769,125.36357,0.96570545,468.50018,121.296295,0.95779574,503.38303,142.60674,0.94506854,465.70898,139.03662,0.93151134,492.98462,142.9667,0.9958418,478.6876,141.89473,0.9961457,492.8485,169.48212,0.9890723,476.13162,168.326,0.98799676,492.55545,196.1499,0.97032017,476.32916,194.5771,0.9680263,0.82417431,-0.04397053,0.81603415,0.10685577,157.14261927933865,160.2620064523269,179.66452496367,174.0453633600075,4.062148409460011,142.43071500000002,106.278273,97.2688,39.46791999999999,101.5988,0.3884683639130741,-175.69075706155132,0.8635288611764707,-1.642599999999959,0.6338499999999954,1.7606534532666729,-0.8370199999999386,0.1360099999999988,0.8479983493497478,-1.6415299999999888,0.638495000000006,1.7613337576748398,-0.7032899999999813,0.0352700000000112,0.7041738400423396,-1.2110900000000129,0.6124399999999923,1.3571373333970376,-0.7783200000000079,0.0114399999999932,0.7784040698763157,-1.0492000000000417,0.5563879999999983,1.187597678738084,-0.2728100000000495,-0.3461619999999925,0.4407419044565899,-0.5092000000000212,0.5108550000000065,0.7212887570349535,-0.7774400000000128,-0.3985699999999923,0.8736538207436706,-0.4349000000000274,-0.0852040000000045,0.4431678368474235,-0.2011900000000537,-1.1351680000000073,1.1528589698328404,-0.8433299999999804,-0.0967749999999938,0.8488644706459127,-1.006559999999979,-0.9896599999999864,1.411591282631035,0.5672199999999634,-1.0645800000000063,1.2062624527025505,0.5943399999999315,-2.3128300000000053,2.387974590421754,-1.6589399999999728,-0.3322749999999956,1.6918890623279372,-1.417789999999968,-0.8940449999999913,1.6761398945568042,0.4660300000000461,-1.2667299999999957,1.3497365868198252,0.5197300000000951,-2.481049999999982,2.534902044537424,-1.6984199999999987,0.1213799999999878,1.7027517731014092,-1.1601999999999748,0.107799999999969,1.165197356673939,-0.827699999999993,0.7141699999999958,1.0932182210793884,-0.3411199999999894,-0.5731800000000078,0.6670068716287725,-1.2883199999999988,0.5626699999999971,1.4058328319185014,-0.9969699999999762,-0.6082400000000234,1.1678634674053217,0.4288000000000238,0.9989400000000046,1.087083512707294,0.6526200000000699,-0.7354100000000017,0.983229745532596,-0.8929499999999848,0.8783999999999992,1.2525758509966458,-0.406379999999956,-0.7907299999999964,0.8890436644507167,-0.4611499999999751,1.585080000000005,1.650799178852471,-0.043329999999969,-0.346289999999982,0.3489903336770015,-2.2031900000000064,1.4549200000000155,2.6402345317225278,-1.1477700000000368,-0.392359999999968,1.2129807675722066,0.6384199999999964,-0.5907100000000298,140.761843,1.3637450598471843,105.3748113,0.9717124382307668,96.05115,0.9670330232468828,-0.09432785,0.251246158,0.0987252334722867,0,0
27,900.0,483.28598,98.50109,0.54261476,484.451,96.50347,0.47261962,483.81146,96.12478,0.2761026,488.77942,97.21571,0.50581986,487.63632,96.083496,0.19479825,494.453,109.07097,0.97384393,484.43576,106.42818,0.96790546,500.46735,127.40878,0.94743806,473.6407,123.051056,0.89773303,500.32272,143.20793,0.90820706,469.80206,141.79805,0.8474403,488.73016,144.35631,0.9941386,482.5474,142.62296,0.99345386,490.47845,170.78888,0.9882401,478.49924,169.18448,0.9848779,491.5203,198.04288,0.97251874,476.6374,195.78854,0.96694994,0.81889326,0.12159449,0.80915608,0.03267084,161.31729563480323,158.57185258703225,178.40508331791105,175.33762932282912,6.077965505242316,143.48963500000002,107.749575,98.50109,30.665290000000027,101.959384,0.3007598564859922,-165.2207408730772,0.7902765923529412,-2.844120000000032,1.232290000000006,3.099605977943035,-1.2015200000000732,0.5984400000000107,1.342304266550691,-3.6613699999999767,1.3230899999999934,3.89309612326742,-2.019839999999988,0.6845949999999874,2.132703434522703,-1.474519999999984,1.2337600000000035,1.9225953729269092,-0.2634299999999712,0.6213200000000114,0.6748584350069272,-3.771359999999959,1.879956000000007,4.213951923258702,-2.722159999999917,1.3235680000000087,3.026877486160213,3.755420000000015,1.5323959999999914,4.056034624755574,4.264620000000036,1.021540999999985,4.385262792476784,-5.176060000000007,1.9468240000000063,5.53007421383982,-4.741159999999979,2.032028000000011,5.158268695830399,7.257760000000019,0.9957799999999964,7.325753068866044,8.10109,1.0925549999999902,8.17443182222012,-4.709549999999979,2.0452099999999973,5.134466393560269,-5.276769999999942,3.109790000000004,6.124956773480072,5.140519999999981,1.754761000000002,5.431770617167188,6.799459999999954,2.0870359999999977,7.112550566210082,-3.0603100000000154,0.6011900000000026,3.1188021277727924,-3.526340000000061,1.867919999999998,3.9905136163156274,4.093079999999986,2.76142999999999,4.937489193031194,5.791499999999985,2.6400500000000022,6.36485162847492,-4.254459999999995,1.389610000000005,4.475650326343644,-3.4267600000000016,0.6754400000000089,3.492692842378216,3.859800000000007,0.7282299999999964,3.927897016585344,5.148120000000006,0.1655599999999992,5.150781459934023,-2.370049999999992,1.306759999999997,2.7064291418952675,-2.798850000000016,0.3078199999999924,2.8157262784049317,2.367619999999988,0.8584800000000143,2.518454362262689,3.260569999999973,-0.0199199999999848,3.260630848670212,-1.0351499999999874,1.8929799999999943,2.157523766473953,-0.5740000000000123,0.3078999999999894,0.6513665711410185,0.308240000000012,1.2114400000000105,1.2500395078556643,2.5114300000000185,-0.2434800000000052,2.5232049372375798,1.0589200000000003,0.4205000000000041,141.649786,1.4148460458756955,106.0920953,1.1592896756934294,96.780588,1.188382402057518,-0.07418493,0.188213538,0.1199657252962589,0,0
28,933.3333333333334,480.58887,99.42587,0.26442075,481.37143,97.03166,0.24353845,482.0932,97.03809,0.09099843,482.58905,97.318344,0.8000132,492.15234,97.315056,0.3794863,478.49228,109.284035,0.9892882,497.17465,109.42494,0.9823981,469.31702,127.24393,0.9533966,503.99048,127.47444,0.8564782,465.41434,144.7212,0.8543728,502.56656,143.81738,0.6864329,479.89682,143.95825,0.99476975,491.31702,143.89523,0.99323165,479.76492,170.45529,0.9864347,488.8653,170.84511,0.97956616,481.56082,197.03232,0.967163,487.41754,197.14699,0.956116,0.92589638,0.14321129,0.91257281,0.06313088,165.52630765433165,154.33305680592184,175.84899451882072,177.95252711628024,3.6849372324811,143.92674,109.3544875,99.42587,38.57614000000001,100.11533,0.3853170100391519,0.4321244434271605,0.7634179523529411,-2.697110000000009,0.9247799999999984,2.85124891942111,0.1470100000000229,-0.3075100000000077,0.34084357145179,-3.0795700000000465,0.5281900000000093,3.124537735569903,0.5817999999999302,-0.7948999999999842,0.985067129692131,-1.7182599999999866,0.9133099999999956,1.9459066225541104,-0.2437400000000025,-0.3204500000000081,0.4026132015967762,-6.19037000000003,0.1026339999999947,6.191220758045732,-2.419010000000071,-1.7773220000000125,3.001746636840689,4.516019999999969,1.2315600000000018,4.680937584928871,0.760599999999954,-0.3008359999999896,0.8179331628537406,-15.96071999999998,0.2130650000000002,15.962142074691116,-10.784659999999974,-1.7337590000000065,10.923131949476783,12.73888999999997,2.996760000000009,13.086630159429864,5.481129999999951,2.0009800000000126,5.834955615709472,-31.15033,-0.164849999999987,31.15076619653841,-26.440780000000014,-2.2100599999999844,26.532983477400368,30.34978000000001,4.423383999999999,30.670433189960924,25.20926000000003,2.6686229999999966,25.35011515681399,-34.90838000000002,1.5132700000000057,34.94116455296391,-31.848070000000007,0.9120800000000032,31.86112761110787,32.7645,2.019330000000025,32.82666833382425,28.67142000000001,-0.7420999999999651,28.68102224862985,-8.833340000000021,-0.3980600000000152,8.842304412267222,-4.5788800000000265,-1.78767000000002,4.915476180727592,8.769620000000032,1.2722699999999918,8.861427982966433,4.909820000000025,0.5440399999999954,4.939869629251388,-10.713529999999992,-0.3335900000000151,10.71872228155016,-8.34348,-1.6403500000000122,8.503199787897497,10.366060000000004,1.6606299999999976,10.498232799881135,7.998440000000016,0.8021499999999833,8.038562499358964,-9.959480000000042,-1.010559999999998,10.01061803206979,-8.924330000000054,-2.9035399999999925,9.384786117994429,10.78013999999996,1.3584499999999764,10.865394830474369,10.471899999999948,0.1470099999999661,10.472931850733056,0.4371049999999741,-0.6218150000000264,142.44051000000002,1.346685352615841,107.0298872,1.5481158366980383,97.593564,1.3533864404817937,0.03046004,0.1353015099999999,0.0997000386100108,0,0
29,966.6666666666666,483.2046,103.026344,0.6412301,484.9473,100.85135,0.5803536,482.61514,100.689064,0.40218487,489.91785,100.89377,0.517582,482.51044,100.427536,0.2155881,497.83478,111.94266,0.97473484,476.96896,110.815216,0.9697222,504.16403,129.4107,0.94728535,467.45862,127.928085,0.90301114,502.3436,145.58876,0.91200775,464.20667,148.15863,0.85731184,491.16522,145.98515,0.9939049,478.02344,144.97073,0.99321294,491.55524,171.82513,0.9876046,475.55698,170.74829,0.9840211,490.77,198.19023,0.9712899,475.81738,196.57635,0.9651729,1.09252963,0.15966954,1.07838348,-0.07221976,153.6626892430987,160.0691004757864,177.42930671475764,173.95679782586956,4.706849333593872,145.47794,111.378938,103.026344,39.95736000000005,97.762694,0.4087178652347917,-176.90714159354363,0.8127187135294118,2.615730000000042,3.6004739999999917,4.450332173846819,5.312840000000051,2.675693999999993,5.94858027156367,3.575870000000009,3.819689999999994,5.232291845166897,6.655440000000056,3.291499999999985,7.424880729250851,0.5219399999999723,3.650974000000005,3.6880933437585344,2.240199999999959,2.737664000000009,3.537414340573616,7.328800000000001,3.5754260000000078,8.15444544536758,13.519170000000033,3.4727920000000125,13.958088757568673,-9.641899999999964,3.112480000000005,10.13181954835356,-14.157919999999931,1.8809200000000037,14.282316295783332,19.34250000000003,2.6586250000000007,19.52435896875045,35.30322000000001,2.4455600000000004,35.38782426318409,-20.205690000000004,1.390276,20.253463302168253,-32.94457999999997,-1.606484000000009,32.98372541449274,34.84701000000001,2.166769999999985,34.91430936124902,65.99734000000001,2.3316199999999725,66.03851405732871,-36.53186,0.4536449999999945,36.53467652581072,-66.88164,-3.969739000000004,66.99934773427067,36.92926,0.8675599999999974,36.93944916347833,71.83764000000002,-0.6457100000000082,71.84054191174857,-38.35989000000001,4.341249999999974,38.60476152464357,-71.12439,2.321919999999949,71.16228049576897,11.268399999999986,2.026900000000012,11.449242864486704,20.101740000000007,2.424960000000027,20.247478411624503,-13.29358000000002,1.0755000000000052,13.337015013352897,-22.06320000000005,-0.1967699999999865,22.064077426280534,11.790320000000008,1.3698400000000106,11.869629620506286,22.50385,1.7034300000000258,22.568228521250845,-13.30831999999998,-0.0968200000000081,13.30867218526324,-23.674379999999985,-1.7574500000000055,23.739521875701275,9.209180000000003,1.157910000000015,9.281689061830292,19.168660000000045,2.168470000000013,19.29092502542327,-11.60015999999996,-0.5706399999999974,11.614187101781988,-22.38029999999992,-1.9290899999999735,22.463285964393016,1.5511999999999944,1.1140950000000205,143.42346500000002,1.4252017270855024,108.2261072,2.161168515126786,98.9714108,2.511381625821357,-0.13535064,0.06632427,0.1002085900930786,0,0
30,1000.0,487.9701,111.10376,0.84892946,489.78824,108.51991,0.73477435,485.74506,108.360565,0.7642207,493.02164,106.121895,0.47002903,481.45886,105.444244,0.5472332,498.90448,114.02661,0.9832008,473.78372,112.92662,0.9904855,504.43274,132.56956,0.93775105,466.9251,130.73743,0.9631873,501.43637,150.19708,0.9054039,465.56775,149.69972,0.93181884,492.12372,145.32994,0.9942194,476.2837,144.78879,0.9957159,491.50403,171.92876,0.98571026,474.70633,171.36122,0.987866,488.35757,198.76193,0.96392363,475.44382,198.29091,0.96778286,1.20409083,0.03463601,1.03220214,0.61902651,153.7518885395169,163.03354568508692,174.64664775617914,175.03414589818624,3.8770823497697378,145.059365,113.476615,111.10376,38.864990000000034,93.317686,0.416480425623923,-177.49272913647565,0.8807207164705882,4.765499999999975,8.077416,9.378413484542882,2.1497699999999327,4.476942000000008,4.966338764549171,4.840939999999989,7.668559999999999,9.068710633667823,1.2650699999999802,3.848870000000005,4.051444480898139,3.129920000000027,7.671500999999992,8.285428582722867,2.6079800000000546,4.020526999999987,4.792306025091593,3.103790000000004,5.228124999999992,6.080033172584253,-4.2250099999999975,1.6526989999999842,4.5367525262792245,-1.0515800000000013,5.016707999999994,5.125736986391708,8.590319999999963,1.9042279999999887,8.798845491221183,1.0696999999999548,2.083950000000001,2.342457191177655,-18.272800000000075,-0.5746749999999992,18.281834459255663,-3.1852399999999648,2.111403999999993,3.821489331244528,17.02045000000004,0.7211279999999931,17.03571964417369,0.2687099999999986,3.158860000000004,3.17026837408129,-34.57830000000001,0.9920900000000188,34.592529156713894,-0.53352000000001,2.8093449999999933,2.859556420045769,35.998339999999985,2.355699999999999,36.07533513698242,-0.90722999999997,4.608319999999992,4.696773306781995,-37.83648999999997,3.7407599999999945,38.02095817963689,1.3610800000000154,1.5410900000000254,2.0560878275258867,39.72097000000002,-2.8001599999999485,39.81954738274283,0.958500000000015,-0.655210000000011,1.161043665888602,-10.30989999999997,-2.682110000000023,10.653063036615317,-1.7397399999999834,-0.1819399999999973,1.749227667057648,11.553840000000037,-1.2574400000000026,11.6220641066551,-0.0512100000000259,0.1036300000000096,0.1155925646397927,-11.841530000000034,-1.266210000000001,11.909035246610063,-0.8506500000000301,0.6129300000000057,1.0484696502045532,12.45766999999995,0.7097500000000139,12.477871889525025,-2.412429999999972,0.5716999999999928,2.479245731043992,-11.621609999999976,-0.5862100000000225,11.636385227217234,-0.3735599999999976,1.714560000000006,1.754782911701621,11.226599999999962,2.2852000000000032,11.456818345422048,-0.4185749999999757,-1.96977499999997,144.07687900000002,1.2253064734659238,109.6475777,2.859181063223913,101.8651728,5.592264884633865,0.6912462699999999,0.149892848,0.270435404388763,0,0
31,1033.3333333333337,487.91354,114.974014,0.9001173,489.76978,112.155624,0.7999452,485.33517,112.21735,0.8450673,492.63763,109.13664,0.4795358,480.64197,109.28668,0.62745285,498.0005,116.03891,0.9853388,472.55453,116.73739,0.9934835,503.56473,134.70242,0.95556694,466.41278,135.8739,0.9812696,499.3204,155.8192,0.9433205,466.68237,158.68076,0.9679003,492.35397,144.94423,0.9953052,476.11478,145.42377,0.99691534,491.98016,170.09767,0.9898789,474.2081,170.49327,0.99224746,490.0378,196.48209,0.97448355,475.82486,197.40482,0.9788896,1.03886689,-0.20560523,0.93640042,0.40015642,152.03424161479057,161.5290360354111,176.64103157899044,172.21268300877162,2.07470787484514,145.184,116.38815,114.974014,37.15195,88.26818,0.4208985568650157,178.42765242411912,0.9062775376470588,-0.0565599999999903,3.8702540000000023,3.8706672626455534,-4.822059999999965,-4.207161999999997,6.399412061888469,-0.0184599999999477,3.635714000000007,3.635760864165306,-4.859399999999937,-4.032845999999992,6.314872541842418,-0.4098900000000185,3.856785000000002,3.878504911473625,-3.5398100000000454,-3.81471599999999,5.204066966974603,-0.3840099999999893,3.014745000000005,3.039103666399852,-3.487799999999993,-2.2133799999999866,4.130835250212709,-0.8168900000000008,3.8424360000000064,3.928310538411653,0.2346900000000005,-1.1742719999999878,1.197494937811418,-0.90397999999999,2.012299999999996,2.206021561635327,-1.9736799999999448,-0.0716500000000053,1.974980117596069,-1.2291900000000169,3.810770000000005,4.004107397285952,1.956049999999948,1.699366000000012,2.591134192676218,-0.8680100000000266,2.1328599999999938,2.30272298370864,-1.1367200000000253,-1.0260000000000105,1.5312767086324008,-0.5123199999999883,5.136470000000003,5.161956590605932,0.0212000000000216,2.327125000000009,2.327221563501216,-2.1159700000000043,5.622119999999995,6.0071259629959455,-1.2087400000000343,1.0138000000000034,1.5776066770903607,1.1146200000000022,8.981039999999979,9.049942387993395,-0.2464600000000132,7.439949999999953,7.444031067513039,0.2302500000000122,-0.3857099999999889,0.4492073759412205,-0.7282500000000027,0.269500000000022,0.7765167818534354,-0.1689200000000141,0.6349799999999846,0.6570643551433795,1.5708199999999692,0.8169199999999819,1.7705461752803495,0.4761300000000119,-1.8310900000000172,1.89198054033335,0.5273400000000379,-1.934720000000027,2.0053002154291373,-0.4982299999999782,-0.8679500000000075,1.0007848596976232,0.3524200000000519,-1.4808800000000133,1.5222369824702315,1.6802299999999946,-2.279840000000007,2.832109333782864,4.092659999999967,-2.85154,4.988100464826237,0.3810399999999845,-0.8860899999999958,0.9645449547325312,0.7545999999999822,-2.6006500000000017,2.707914618761083,0.1246349999999836,0.5432099999999593,144.62753600000002,0.8667827223661606,111.6695531,3.4037054656745886,105.4062156,7.299209893761001,-0.2188700899999999,0.208552978,0.2898774926227421,0,0
32,1066.6666666666667,487.8074,120.39192,0.8654837,489.74475,117.526566,0.75962853,485.28513,117.597626,0.7877856,492.8516,113.7677,0.46514875,480.9697,113.973145,0.54445946,498.9389,119.05589,0.98283446,472.73065,119.59923,0.9918228,504.1859,137.47867,0.95760715,465.89053,137.58487,0.97961044,498.6025,157.932,0.9464718,465.7522,158.89029,0.9666959,493.08914,145.66069,0.99536985,476.43372,146.02994,0.9968406,492.77814,170.29303,0.9905048,474.4879,170.52063,0.9923805,490.2644,196.04642,0.97592556,476.59854,196.68198,0.9793738,0.83763099,-0.1643368,0.78901315,0.22820461,148.83376777996733,159.54968608558607,175.14848504559745,170.84480427556542,2.3179187210574117,145.845315,119.32756,120.39192,38.43369999999999,82.91428,0.4635353468240288,178.81233466813404,0.8928202176470588,-0.1061400000000389,5.417906000000002,5.418945573119925,-0.0495800000000485,1.5476519999999994,1.548445959503916,-0.0250300000000152,5.370941999999999,5.371000322869474,-0.0065700000000674,1.7352279999999922,1.7352404377733863,-0.050040000000024,5.380276000000009,5.380508696933414,0.3598499999999944,1.523491000000007,1.5654126770858277,0.2139700000000175,4.631060000000005,4.6360004189495125,0.5979800000000068,1.6163150000000002,1.7233845362034002,0.3277299999999741,4.686464999999998,4.69791029598533,1.1446199999999749,0.8440289999999919,1.422160292386526,0.9384000000000016,3.016980000000004,3.1595510567800646,1.8423799999999917,1.0046800000000076,2.098510416176194,0.1761200000000258,2.861840000000001,2.8672541638299203,1.4053100000000427,-0.9489300000000044,1.6956899306772235,0.6211700000000064,2.7762500000000045,2.8448930087790707,1.489180000000033,0.6433900000000108,1.622223093319816,-0.5222499999999854,1.7109700000000032,1.7889000540555628,-0.0099299999999971,-3.4254999999999995,3.42551439274454,-0.717899999999986,2.112799999999993,2.231435468482105,1.3980700000000184,-3.5093200000000024,3.777555636559185,-0.9301699999999756,0.2095300000000008,0.9534773462437136,-2.0447899999999777,-8.771509999999978,9.006694944550944,0.7351699999999823,0.7164599999999837,1.026542673491926,0.5049199999999701,1.1021699999999726,1.2123212921086182,0.3189399999999978,0.6061700000000201,0.6849560515098928,0.4878600000000119,-0.0288099999999644,0.488709930019853,0.7979799999999955,0.1953599999999937,0.8215458660354821,0.3218499999999835,2.026450000000011,2.051849659453644,0.2798000000000229,0.0273600000000158,0.2811345044636351,0.7780300000000011,0.8953100000000234,1.186132655734612,0.226600000000019,-0.4356699999999875,0.4910762760508776,-1.4536299999999756,1.84417000000002,2.3481914670230792,0.773680000000013,-0.7228399999999908,1.058809901729299,0.3926400000000285,0.163250000000005,0.425225507348776,0.6613150000000019,0.5366800000000183,145.09867200000002,0.7217289147820511,113.9851501,3.962629733906996,109.7843816,8.575586707149217,-0.17195181,0.247659732,0.2729106135934078,0,0
33,1100.0,488.0071,125.56708,0.88469183,489.9528,122.547806,0.77672637,485.38696,122.773865,0.82039046,493.16757,118.15343,0.46289983,480.87323,118.7933,0.60343736,498.59448,122.019455,0.9848341,472.0821,124.081406,0.99296415,503.76462,139.4066,0.9577724,466.7932,143.63435,0.98028976,496.66815,157.52661,0.9470411,468.48358,164.17232,0.96737415,492.6817,147.05017,0.99538213,475.72806,148.254,0.9968767,492.2425,171.92776,0.9905128,474.50375,173.13083,0.9924966,489.13647,197.1,0.975414,477.10727,199.09636,0.9792032,0.61119972,-0.115699,0.56080854,0.21371153,142.0527756334246,160.15906387258002,173.97718654209945,171.45665431741938,2.6378293244040405,147.652085,123.0504305,125.56708,36.971419999999966,80.94293,0.4567590961093312,175.55287936637882,0.9004886435294118,0.1997000000000071,5.175160000000005,5.179011596395596,0.3058400000000461,-0.2427459999999968,0.3904660370839269,0.2080500000000142,5.021239999999992,5.025548322332591,0.2330800000000294,-0.3497020000000077,0.4202591762282165,0.1018300000000067,5.176238999999995,5.1772405327569,0.1518700000000308,-0.2040370000000138,0.2543532863342146,0.315969999999993,4.385729999999995,4.397097300924776,0.1019999999999754,-0.2453300000000098,0.2656893089682003,-0.0964700000000107,4.820155,4.821120272812638,-0.4241999999999848,0.1336900000000014,0.4447680924931413,-0.3444200000000137,2.9635649999999885,2.983511797467029,-1.2828200000000152,-0.0534150000000153,1.283931584869319,-0.6485500000000002,4.482175999999996,4.528854026956043,-0.824670000000026,1.620335999999995,1.818122482616621,-0.4212800000000243,1.9279300000000037,1.973421121631172,-1.0424500000000307,-0.8483200000000011,1.3440047711597105,0.9026700000000004,6.049480000000017,6.116454969939712,1.424919999999986,4.338510000000014,4.5665157424999725,-1.934349999999995,-0.4053899999999828,1.976373187077776,-1.216450000000009,-2.518189999999976,2.796610712737813,2.731380000000001,5.28203000000002,5.94645084275488,3.661549999999977,5.072500000000019,6.255973517567032,-0.4074400000000082,1.3894800000000205,1.447985505452338,-1.1426099999999906,0.6730200000000366,1.326089564282906,-0.7056599999999662,2.22405999999998,2.3333235779033874,-1.024599999999964,1.61788999999996,1.9150386972852005,-0.5356400000000008,1.634730000000019,1.7202477677648829,-1.3336199999999965,1.4393700000000251,1.9622253441692323,0.0158500000000003,2.610199999999992,2.610248122784491,-0.2639500000000225,2.582839999999976,2.596291984369225,-1.127930000000049,1.0535799999999824,1.5434561546412886,-1.354530000000068,1.48924999999997,2.013111294340205,0.5087300000000141,2.414379999999994,2.4673947793776305,-0.2649499999999989,3.137219999999985,3.1483881321876286,1.80677,1.1454549999999983,145.843741,1.0552754104817577,116.7243387,4.637624373424152,115.0126236,8.64992750912608,-0.0144930799999999,0.277775862,0.2551898748066975,0,0
34,1133.3333333333333,486.58777,130.36328,0.9249386,488.63187,127.43439,0.86977106,483.82376,127.526215,0.85740775,492.35913,122.74045,0.63165146,479.75528,123.03056,0.5942691,498.95743,126.203735,0.9909713,472.65732,126.99611,0.99460524,503.65268,144.27478,0.97183514,468.1626,146.18794,0.9791443,497.0439,160.59846,0.9614441,470.6997,165.96881,0.9663194,492.78647,147.8702,0.99623305,476.27502,148.16188,0.9970741,492.253,172.1716,0.992332,474.79688,172.21434,0.9929115,488.3751,197.4668,0.97985655,477.77826,197.73718,0.98087573,0.58994426,-0.1048906,0.4740957,0.33506038,143.39437148332152,159.51004397008356,172.54165390614423,169.82066601348197,3.4114500627523303,148.01604,126.5999225,130.36328,35.49007999999998,74.99673,0.4732216928228508,178.27430325612437,0.922449434117647,-1.4193300000000022,4.796199999999999,5.001802883850981,-1.6190300000000093,-0.3789600000000064,1.6627894702878157,-1.3209300000000326,4.886583999999999,5.061971874077934,-1.5289800000000469,-0.1346559999999925,1.5348980678651405,-1.5631999999999948,4.752349999999993,5.002841668741868,-1.6650300000000016,-0.4238890000000026,1.7181405021769922,-0.8084400000000187,4.587019999999995,4.657717006646066,-1.1244100000000117,0.2012900000000002,1.1422852149091427,-1.1179499999999507,4.237259999999992,4.382257923730622,-1.02147999999994,-0.5828950000000077,1.1760901204520369,0.3629500000000121,4.184280000000001,4.199991883432636,0.7073700000000258,1.2207150000000129,1.4108569835830516,0.5752200000000016,2.9147040000000004,2.9709219875345103,1.2237700000000018,-1.567471999999995,1.9886129547209503,-0.1119400000000041,4.868179999999995,4.869466816397865,0.3093400000000201,2.940249999999992,2.9564778534769998,1.3693999999999846,2.5535899999999856,2.8975987037717776,0.4667299999999841,-3.4958900000000317,3.526908530852509,0.3757499999999822,3.0718499999999835,3.0947456252493333,2.310099999999977,3.4772399999999664,4.174656875432957,2.216119999999989,1.7964899999999773,2.8528168841515,-0.515260000000012,-3.485540000000043,3.5234190723217003,0.1047700000000304,0.8200300000000027,0.8266958048762622,0.5122100000000387,-0.5694500000000176,0.7659193081520138,0.5469599999999559,-0.0921199999999942,0.554663263611311,1.252619999999922,-2.3161799999999744,2.6332008386751826,0.010499999999979,0.2438400000000058,0.244065965673222,0.5461399999999799,-1.390890000000013,1.494270354286671,0.2931299999999623,-0.9164900000000102,0.962226125710582,0.277279999999962,-3.526690000000002,3.537573540507673,-0.7613699999999994,0.366800000000012,0.8451192323571911,0.3665600000000495,-0.6867799999999704,0.7784812149307109,0.6709899999999607,-1.3591800000000092,1.5157829173400694,0.1622599999999465,-3.7735600000000034,3.777046912761345,0.3639550000000042,-1.442814999999996,146.351361,1.3920405004587375,119.7685356,5.211727454340946,120.4800108,7.774881396851149,0.1213488499999999,0.35923189,0.1643902726068921,0,0
35,1166.6666666666667,487.38214,137.36244,0.8390165,489.41187,134.37555,0.7345913,484.70618,134.44713,0.7300467,493.53992,129.78056,0.46390042,480.52066,129.81604,0.48018438,499.87823,131.83778,0.976857,472.72906,132.6835,0.98293847,503.54153,150.22748,0.93135476,469.21906,154.01112,0.93503255,496.09848,164.60037,0.9071541,473.1528,173.13464,0.9025452,493.2887,147.10004,0.9898436,475.99188,147.38496,0.9908969,492.2412,172.68816,0.9834025,473.7738,172.77206,0.9832929,487.94092,196.92569,0.9594926,477.98712,197.3246,0.95982164,0.78861403,-0.12478788,0.65120606,0.42693177,141.35639888035513,159.03060110496844,172.28334855044295,165.2693706153808,6.335329609201491,147.2425,132.26064000000002,137.36244,34.32247000000001,67.54404,0.5081494901970702,178.2157641580198,0.8676689129411764,0.7943700000000149,6.999159999999989,7.0440942925616685,2.213700000000017,2.2029599999999903,3.1230594697507814,0.7800000000000296,6.941160000000011,6.984848040265457,2.100930000000062,2.0545760000000115,2.9385692785225106,0.8824200000000246,6.920914999999994,6.976942703908708,2.4456200000000194,2.168565000000001,3.268597764122269,1.1807900000000018,7.040110000000013,7.138446177999816,1.9892300000000205,2.4530900000000173,3.1582727147920853,0.7653799999999933,6.785479999999993,6.828509747726797,1.883329999999944,2.5482200000000006,3.1686522461923445,0.9207999999999856,5.634045000000015,5.708794592733665,0.5578499999999735,1.4497650000000135,1.5533882894257345,0.071739999999977,5.687390000000008,5.6878424415326485,-0.5034800000000246,2.7726860000000078,2.8180276373726474,-0.1111499999999523,5.952700000000021,5.953737617035221,0.0007900000000518,1.084520000000026,1.0845202877309656,1.0564600000000155,7.823180000000008,7.894191094976112,-0.3129399999999691,5.269590000000022,5.278873953003634,-0.9454200000000128,4.001910000000009,4.112067925569822,-1.321169999999995,0.930060000000026,1.615704729367354,2.4531000000000063,7.16583,7.574088671180185,0.2369800000000168,5.369340000000022,5.37456710405594,0.5022299999999973,-0.7701600000000042,0.9194462455739344,0.3974599999999668,-1.5901900000000069,1.6391091140311544,-0.283140000000003,-0.7769199999999898,0.8269056451615178,-0.830099999999959,-0.6847999999999956,1.076112006252103,-0.0117999999999938,0.5165599999999984,0.5166947586341458,-0.0222999999999728,0.2727199999999925,0.2736302037421942,-1.023079999999993,0.5577200000000175,1.1652228476991022,-1.3162099999999557,1.4742100000000278,1.9762853762045511,-0.4341799999999693,-0.5411100000000033,0.6937667507887482,0.32719000000003,-0.9079100000000152,0.9650667667058314,0.2088600000000156,-0.4125799999999913,0.4624335152213767,-0.4621299999999451,0.946600000000018,1.0533829773164094,-0.773539999999997,-1.1374950000000013,146.78798799999998,1.2168367174080474,123.5253406,6.215804467182722,125.7317468,8.674586510324836,0.09187139,0.320812942,0.0972195945463282,0,0
36,1200.0,489.1759,141.7621,0.7855411,490.96783,138.72289,0.64123875,486.44556,138.86496,0.6696228,494.3052,134.75941,0.38205078,481.52295,134.8964,0.46769968,499.7513,136.84029,0.9731382,472.71222,137.53629,0.9811724,502.33273,157.5888,0.930352,469.61032,159.97609,0.9403023,495.1306,172.12758,0.90461606,474.23407,176.66516,0.9074618,492.57547,147.3461,0.9893154,475.19824,147.72113,0.99070615,492.18793,173.406,0.9824571,473.96048,173.73793,0.9830426,488.3172,197.8375,0.9564632,479.62173,198.79236,0.9580026,1.02620399,-0.12675305,0.91969653,0.43724888,146.5553694710903,156.64423126751615,171.8493341662635,164.54356348823035,12.771080269596885,147.533615,137.18829,141.7621,32.722410000000025,64.03295,0.5110245504693361,178.52550239540827,0.8495989952941176,1.7937600000000202,4.399660000000012,4.751271730095025,0.9993900000000052,-2.5994999999999777,2.7849920326815827,1.5559599999999705,4.347340000000003,4.617399332654685,0.7759599999999409,-2.593820000000008,2.707400250055383,1.7393799999999828,4.417830000000009,4.747911613888786,0.8569599999999582,-2.5030849999999845,2.645716341338362,0.7652800000000184,4.978849999999994,5.037320795909268,-0.4155099999999834,-2.0612600000000185,2.1027223658153407,1.0022899999999595,5.080360000000013,5.178285717657925,0.2369099999999662,-1.7051199999999795,1.721499509875014,-0.1269299999999589,5.002510000000001,5.004120055014668,-1.0477299999999443,-0.6315350000000137,1.223345662159678,-0.0168400000000019,4.852789999999999,4.852819218732549,-0.088579999999979,-0.8346000000000089,0.8392875409536419,-1.2087999999999963,7.361319999999978,7.459908148388938,-1.0976500000000442,1.4086199999999565,1.7857899727851465,0.3912599999999884,5.964969999999994,5.977788176951398,-0.6652000000000271,-1.858210000000014,1.9736857511012456,-0.9678799999999796,7.527209999999997,7.58918191101649,-0.0224599999999668,3.525299999999987,3.5253715466032665,1.0812699999999609,3.530519999999996,3.692386258681489,-1.3718300000000454,-3.635310000000004,3.885536815550736,-0.71323000000001,0.2460599999999999,0.754481647556794,-1.215460000000007,1.016220000000004,1.5843125007396823,-0.7936399999999821,0.3361699999999814,0.8619018032815334,-0.5104999999999791,1.1130899999999713,1.224573231007405,-0.0532699999999977,0.7178399999999954,0.7198138360020548,-0.0414700000000038,0.201279999999997,0.2055076623875594,0.1866800000000239,0.9658699999999952,0.9837450275859084,1.209760000000017,0.4081499999999778,1.2767559203309078,0.3762800000000084,0.9118100000000028,0.9863995714212428,0.8104599999999778,1.452920000000006,1.663677233720526,1.6346100000000092,1.4677599999999984,2.196877163088557,1.4257499999999936,1.8803399999999897,2.359754558868346,0.2911149999999907,1.0646549999999877,147.257911,0.8369304595767428,127.6853686,7.137093815750663,131.089364,8.641714281789127,0.01031711,0.328231434,0.1058222191862876,0,0
37,1233.3333333333337,489.19537,148.70535,0.56025106,490.62683,145.60881,0.4110596,486.28772,146.29134,0.41401157,494.0296,141.20139,0.27393854,481.60458,142.62248,0.2905664,500.16595,139.94139,0.9458654,473.9824,141.94934,0.94602907,501.47748,162.6199,0.9086132,473.80145,165.67252,0.88469446,495.61285,181.23445,0.8768971,479.6218,181.97072,0.8486254,492.05743,140.4018,0.98588204,474.93378,141.37733,0.9857501,492.0747,167.86464,0.9841723,474.86157,169.11627,0.98248565,490.3861,195.12802,0.9659268,482.8331,197.35587,0.96284205,0.5809833,-0.37362671,0.44486389,0.00638678,159.2028326939736,159.91051546529096,176.419792157132,164.08743121481152,90.89333016564493,140.889565,140.945365,148.70535,27.676030000000026,57.41448,0.4820391914715736,175.61471520754606,0.7780947494117648,0.0194700000000125,6.943250000000006,6.943277298466487,-1.7742900000000077,2.5435899999999947,3.1012828139658595,-0.3410000000000082,6.885919999999999,6.89435821860164,-1.8969599999999789,2.538579999999996,3.1690449125880025,-0.1578400000000215,7.426379999999995,7.428057173312543,-1.8972200000000043,3.0085499999999854,3.5567986773079987,-0.2755999999999972,6.441980000000001,6.447872647656745,-1.0408800000000156,1.4631300000000067,1.7956003372967082,0.0816300000000183,7.726079999999996,7.7265112193861425,-0.9206599999999412,2.645719999999983,2.801329890248523,0.4146499999999946,3.1011000000000024,3.128698744286514,0.5415799999999535,-1.9014099999999985,1.9770353776551253,1.270179999999982,4.413049999999998,4.592207261753321,1.287019999999984,-0.4397400000000004,1.360070493761246,-0.8552500000000123,5.031100000000009,5.103275396497833,0.3535499999999842,-2.3302199999999686,2.3568883832077927,4.191129999999987,5.696429999999992,7.072120291807812,3.7998699999999994,-0.2685400000000015,3.80934715515664,0.482249999999965,9.106870000000017,9.119629721617004,1.4501299999999446,1.5796600000000185,2.1443420278723955,5.387730000000033,5.305560000000014,7.561521107984855,4.306460000000072,1.7750400000000184,4.657935672935028,-0.518039999999985,-6.944299999999998,6.963595905248951,0.195190000000025,-7.190359999999998,7.193008832588765,-0.2644599999999855,-6.3437999999999874,6.34931000437054,0.5291799999999967,-6.679969999999969,6.700897751294194,-0.1132299999999872,-5.541359999999997,5.542516728211108,-0.0599599999999895,-6.259199999999993,6.259487186790936,0.9010899999999538,-4.62166000000002,4.708683929050674,0.7144099999999298,-5.587530000000015,5.633016345529282,2.068899999999985,-2.709480000000013,3.409051052771139,1.6926199999999767,-3.621290000000016,3.997337079669419,3.211369999999988,-1.436489999999992,3.518010914849455,1.5767599999999788,-2.9042499999999905,3.304669447932709,-6.644049999999993,-6.935164999999984,146.266761,3.018705106526207,132.00892960000002,7.352908843945345,136.75205,9.141587579003875,-0.4308621,0.2838678679999999,0.1792563486614309,0,0
38,1266.6666666666663,43.77587,137.06384,0.15509123,41.752205,134.37679,0.030921128,44.383472,134.89453,0.13587083,29.935251,132.14879,0.1163404,43.802795,133.30313,0.5883111,20.996048,138.13602,0.7930161,44.538567,139.78876,0.96374476,6.552843,149.92285,0.67867565,64.085236,143.57259,0.9649608,6.4153957,163.40784,0.6466777,82.287926,142.96307,0.92093086,23.020374,181.01608,0.9588342,36.45817,181.82874,0.98276204,12.644648,207.86412,0.8992479,26.88226,208.02248,0.95553726,10.070353,228.23466,0.75719875,26.726612,227.38507,0.84754074,0.98703046,0.18300585,0.9698082,-0.01449308,129.80121579408868,167.12638906783465,166.072900532051,160.37916098170098,4.079160359922119,181.42241,138.96239,137.06384,75.8725303,96.08587,0.7896325392106817,4.015709661918421,0.6703330263529411,-445.4195,-11.641510000000013,445.57160562061193,-445.43897,-18.584760000000017,445.8265013420788,-448.874625,-11.232020000000006,449.0151303042816,-448.533625,-18.117940000000004,448.8994013200332,-441.904248,-11.396809999999988,442.0511867178071,-441.746408,-18.823189999999983,442.14726219064,-464.094349,-9.052600000000012,464.182630373535,-463.818749,-15.494580000000012,464.0774869925296,-437.801785,-9.319349999999986,437.9009628142061,-437.883415,-17.045429999999982,438.21505201892273,-479.169902,-1.8053700000000104,479.1733030371439,-479.584552,-4.906470000000013,479.6096495744238,-429.443833,-2.16058000000001,429.4492680255356,-430.714013,-6.5736300000000085,430.7641740046879,-494.924637,-12.69704999999999,495.08747852100265,-494.069387,-17.72815,494.38734457202514,-409.716214,-22.09993,410.3118118218128,-413.907344,-27.796359999999996,414.8396401579578,-489.1974543,-17.826610000000016,489.5221520193879,-489.6797043,-26.93348000000003,490.4198457936279,-397.333874,-39.00765000000001,399.24404089024347,-402.72160400000007,-44.313210000000026,405.1522564528513,-469.037056,40.61427999999998,470.7921830713266,-468.519016,47.55857999999998,470.9266257977188,-438.47561,40.45141000000001,440.33757179675257,-438.21115,46.79521,440.7026249788701,-479.430052,39.999480000000005,481.0957629838296,-479.316822,45.54084,481.4754240458024,-447.97931,38.906210000000016,449.6656039376819,-448.8804,43.52787000000004,450.985907729828,-480.315747,33.10664,481.4553628616651,-482.384647,35.81612000000001,483.7124580917562,-456.106488,30.029200000000003,457.0939523208923,-459.317858,31.465689999999995,460.394379119559,40.53284500000001,47.176895,153.020826,16.14283034342002,135.19132150000002,5.781844174941448,139.051402,6.760788690346551,-0.02087986,0.238226946,0.2248406262592194,0,0
39,1300.0,55.110535,144.30841,0.007539627,53.34459,141.53333,0.0034127724,55.77407,142.7031,0.0059785536,42.733723,134.80074,0.100742124,53.648445,139.3694,0.14315017,36.088554,133.04294,0.807312,51.24965,140.68,0.86941373,12.752022,142.06091,0.87432593,56.74441,152.10956,0.9271494,2.7879372,160.58543,0.80744785,65.38676,163.41982,0.8526986,28.248678,158.89493,0.98881626,35.81678,161.87776,0.99093175,34.10761,183.96481,0.97579736,38.683945,186.60208,0.9788071,23.025412,203.12022,0.92796206,21.95166,207.37964,0.93523675,0.94393159,-0.10882093,0.937383,0.02186244,139.4032972424083,168.2918932113297,136.794677210101,134.5405323916452,26.31890133843844,160.386345,136.86147,144.30841,62.59882279999999,74.33670000000001,0.8420984783814928,26.73564935026126,0.6586307080588235,11.334665,7.24457000000001,13.452078841098322,456.75416500000006,18.88608000000002,457.1444533871254,11.592385,7.156540000000007,13.623489081722974,460.46701,18.38856000000001,460.834033505788,11.390598000000004,7.808570000000003,13.810122672970872,453.294846,19.20537999999999,453.7015142481984,12.798471999999997,2.65195,13.070337575490694,476.892821,11.704550000000012,477.0364338413164,9.84565,6.066270000000003,11.564447917449412,447.647435,15.385619999999989,447.9117584579173,15.092506000000004,-5.093080000000015,15.928691134127632,494.2624080000001,-3.287710000000004,494.2733423916392,6.711083000000002,0.8912400000000105,6.770003232679365,436.154916,3.0518200000000206,436.16559281570966,6.199179,-7.861940000000004,10.011988855249545,501.123816,4.835109999999986,501.1471413179107,-7.340825999999993,8.536969999999997,11.25911111692108,402.375388,30.6369,403.54005068860334,-3.6274585,-2.8224099999999908,4.596134612619848,485.5699958,15.004200000000026,485.8017567268073,-16.901166000000003,20.45675,26.535410920542688,380.4327080000001,59.46440000000001,385.05202269767824,5.228304000000001,-22.12115,22.73060580008628,474.26536,-62.73542999999998,478.39666164514,-0.6413900000000012,-19.950980000000012,19.961287135164923,437.83422,-60.402390000000025,441.9810549341686,21.462962,-23.89931000000001,32.12220036500527,500.893014,-63.89879000000002,504.9523411545572,11.801685000000004,-21.4204,24.45635510453725,459.780995,-60.32661000000002,463.7217519561512,12.955059,-25.11444,28.258956990785787,493.270806,-58.22108,496.6948582462436,-4.774951999999999,-20.00543000000002,20.567386710207124,451.331536,-50.03463000000002,454.0964870898653,-21.036065000000008,-61.56891000000002,155.494887,16.131971237737254,137.243631,3.226308884356741,141.840428,4.901336397960018,0.03635552,0.175587358,0.234537589982339,0,0
40,1333.3333333333333,113.65416,189.75665,0.08584062,113.0903,188.47246,0.06618756,114.24323,188.46965,0.042262983,111.57332,188.22289,0.43481502,116.866714,188.64482,0.23506066,110.21195,191.23529,0.9483997,118.45793,192.41466,0.94085896,102.53424,193.81561,0.92188674,121.10982,196.98412,0.87365717,96.264015,190.83403,0.84672064,119.13392,196.28352,0.78039193,110.332,207.0907,0.98811394,115.62332,207.47166,0.986847,110.92388,220.40245,0.9748004,117.363266,220.80086,0.9682474,110.83838,232.41838,0.94731927,117.73558,232.65033,0.9376525,1.00211975,0.02014293,1.00100517,-0.04274231,135.9918202711042,40.34812121169319,177.0464447494416,174.36252167441862,5.018572764296214,207.28118,191.824975,189.75665,24.845805,44.42743999999999,0.5592445668882888,8.1394504176215,0.704650734882353,58.543625000000006,45.44824,74.1140914215254,47.208960000000005,38.20366999999999,60.73060435851515,59.74571,46.939130000000006,75.97915364467416,48.153325,39.78259,62.46116534026342,58.46916,45.76655,74.25105904974082,47.07856199999999,37.95797999999999,60.47478189847602,68.839597,53.422150000000016,87.13676735881882,56.041125,50.77020000000002,75.61891892447039,63.218269,49.27542,80.15370578789705,53.372619,43.20915,68.6707150293461,74.123396,58.192350000000005,94.2370809877689,59.03089,63.28543000000002,86.5430044802987,67.20828,51.73465999999999,84.81407870085012,60.497197,50.84341999999998,79.02508590411786,89.782218,51.75469999999999,103.63105538924866,83.583039,59.61663999999999,102.66580820002888,64.36541,44.87456,78.46420929099904,71.70623599999999,36.337590000000006,80.38783943044989,93.4760778,30.24860000000001,98.2484347093207,97.1035363,33.07101,102.580643712084,53.74716000000001,32.86370000000002,62.998253831003936,70.64832600000001,12.406950000000023,71.72948051467247,82.083322,48.19577000000001,95.18667972173724,76.855018,70.31692000000001,104.16891585337116,79.80654000000001,45.59390000000002,91.91239059007007,80.44793000000001,65.54488000000003,103.76897771250955,76.81627,36.43763999999999,85.02023844639875,55.353308,60.33695,81.88123253740972,78.67932099999999,34.19878,85.79039635360964,66.87763599999998,55.61918,86.98339715612913,87.812968,29.298160000000024,92.57159136773346,74.857909,54.412600000000026,92.54424659919322,95.78392,25.27069,99.06143095898878,100.558872,45.27612000000002,110.2815205742412,46.894835,67.93090000000001,167.502623,27.082058711979062,149.156498,23.907881487131636,152.31927000000002,21.348148045346854,-0.06460475,0.081652542,0.2002539679129295,0,0
