frame_id,timestamp_ms,nose_x,nose_y,nose_conf,left_eye_x,left_eye_y,left_eye_conf,right_eye_x,right_eye_y,right_eye_conf,left_ear_x,left_ear_y,left_ear_conf,right_ear_x,right_ear_y,right_ear_conf,left_shoulder_x,left_shoulder_y,left_shoulder_conf,right_shoulder_x,right_shoulder_y,right_shoulder_conf,left_elbow_x,left_elbow_y,left_elbow_conf,right_elbow_x,right_elbow_y,right_elbow_conf,left_wrist_x,left_wrist_y,left_wrist_conf,right_wrist_x,right_wrist_y,right_wrist_conf,left_hip_x,left_hip_y,left_hip_conf,right_hip_x,right_hip_y,right_hip_conf,left_knee_x,left_knee_y,left_knee_conf,right_knee_x,right_knee_y,right_knee_conf,left_ankle_x,left_ankle_y,left_ankle_conf,right_ankle_x,right_ankle_y,right_ankle_conf,acc_x,acc_y,acc_z,acc_mag,left_elbow_angle,right_elbow_angle,left_knee_angle,right_knee_angle,spine_angle,hip_height,shoulder_height,head_height,bbox_width,bbox_height,bbox_aspect_ratio,shoulder_tilt,avg_confidence,nose_vx,nose_vy,nose_speed,nose_ax,nose_ay,nose_accel,left_eye_vx,left_eye_vy,left_eye_speed,left_eye_ax,left_eye_ay,left_eye_accel,right_eye_vx,right_eye_vy,right_eye_speed,right_eye_ax,right_eye_ay,right_eye_accel,left_ear_vx,left_ear_vy,left_ear_speed,left_ear_ax,left_ear_ay,left_ear_accel,right_ear_vx,right_ear_vy,right_ear_speed,right_ear_ax,right_ear_ay,right_ear_accel,left_shoulder_vx,left_shoulder_vy,left_shoulder_speed,left_shoulder_ax,left_shoulder_ay,left_shoulder_accel,right_shoulder_vx,right_shoulder_vy,right_shoulder_speed,right_shoulder_ax,right_shoulder_ay,right_shoulder_accel,left_elbow_vx,left_elbow_vy,left_elbow_speed,left_elbow_ax,left_elbow_ay,left_elbow_accel,right_elbow_vx,right_elbow_vy,right_elbow_speed,right_elbow_ax,right_elbow_ay,right_elbow_accel,left_wrist_vx,left_wrist_vy,left_wrist_speed,left_wrist_ax,left_wrist_ay,left_wrist_accel,right_wrist_vx,right_wrist_vy,right_wrist_speed,right_wrist_ax,right_wrist_ay,right_wrist_accel,left_hip_vx,left_hip_vy,left_hip_speed,left_hip_ax,left_hip_ay,left_hip_accel,right_hip_vx,right_hip_vy,right_hip_speed,right_hip_ax,right_hip_ay,right_hip_accel,left_knee_vx,left_knee_vy,left_knee_speed,left_knee_ax,left_knee_ay,left_knee_accel,right_knee_vx,right_knee_vy,right_knee_speed,right_knee_ax,right_knee_ay,right_knee_accel,left_ankle_vx,left_ankle_vy,left_ankle_speed,left_ankle_ax,left_ankle_ay,left_ankle_accel,right_ankle_vx,right_ankle_vy,right_ankle_speed,right_ankle_ax,right_ankle_ay,right_ankle_accel,hip_velocity,hip_acceleration,hip_height_mean_5,hip_height_std_5,shoulder_height_mean_5,shoulder_height_std_5,head_height_mean_5,head_height_std_5,acc_mag_diff,acc_mag_mean_5,acc_mag_std_5,label_binary,label_3class
0,0.0,571.79596,77.637596,0.9506343,576.8851,73.65544,0.95352775,570.9721,74.2225,0.6388977,589.50006,75.92814,0.9373489,574.0716,76.42847,0.19897537,595.30457,98.7717,0.99754024,576.0129,96.81865,0.96927005,585.80945,130.04402,0.99534744,562.0455,122.81917,0.83877826,554.2965,137.39888,0.9899614,548.0736,136.42111,0.8419296,581.5843,148.4553,0.9963129,569.0056,143.74663,0.9862386,532.70624,160.46869,0.9914443,523.3323,156.55853,0.965633,541.5438,209.01665,0.9626126,535.7087,203.134,0.9131382,1.02683138,-0.85975904,-0.02628406,0.56080854,120.0268972906934,162.47586096921526,93.49158619466196,90.78824850944412,12.108987358044349,146.100965,97.795175,77.637596,71.97226999999998,135.36121,0.5317052755977485,-174.21918588582386,0.8898582711764706,0.0,0.0,0.0,0.0,0.0,0.0,0.0,0.0,0.0,0.0,0.0,0.0,0.0,0.0,0.0,0.0,0.0,0.0,0.0,0.0,0.0,0.0,0.0,0.0,0.0,0.0,0.0,0.0,0.0,0.0,0.0,0.0,0.0,0.0,0.0,0.0,0.0,0.0,0.0,0.0,0.0,0.0,0.0,0.0,0.0,0.0,0.0,0.0,0.0,0.0,0.0,0.0,0.0,0.0,0.0,0.0,0.0,0.0,0.0,0.0,0.0,0.0,0.0,0.0,0.0,0.0,0.0,0.0,0.0,0.0,0.0,0.0,0.0,0.0,0.0,0.0,0.0,0.0,0.0,0.0,0.0,0.0,0.0,0.0,0.0,0.0,0.0,0.0,0.0,0.0,0.0,0.0,0.0,0.0,0.0,0.0,0.0,0.0,0.0,0.0,0.0,0.0,0.0,0.0,146.100965,0.0,97.795175,0.0,77.637596,0.0,0.0,0.56080854,0.0,0,0
1,33.333333333333336,570.9659,78.23511,0.94758487,575.88556,74.230385,0.9515271,570.33496,74.82875,0.6161154,588.5077,76.13693,0.93777454,573.96906,76.70279,0.18787067,594.6607,98.566666,0.99760866,576.08154,96.750015,0.96814996,585.4138,129.79312,0.9955947,562.0401,123.00482,0.83470887,554.36597,137.3064,0.9903279,548.11096,136.55267,0.8388123,581.2667,148.5798,0.9965299,569.1984,143.92133,0.98663425,532.45844,160.54404,0.9920106,523.59705,156.59378,0.96693504,541.4792,209.26218,0.9649678,535.77185,203.08295,0.9169998,1.01659599,-0.84747677,-0.03193391,0.56056289,120.09880216734594,162.3434739515827,93.28297853682209,90.85510457295328,11.78545897926925,146.250565,97.6583405,78.23511,71.06365000000005,135.031795,0.5262734563643074,-174.41543045241312,0.8876560211764705,-0.8300600000000031,0.5975140000000039,1.02275245479833,-0.8300600000000031,0.5975140000000039,1.02275245479833,-0.9995399999999108,0.5749449999999996,1.1531010209972157,-0.9995399999999108,0.5749449999999996,1.1531010209972157,-0.6371399999999312,0.6062500000000028,0.8794807798354185,-0.6371399999999312,0.6062500000000028,0.8794807798354185,-0.9923599999999624,0.2087900000000075,1.014086600690458,-0.9923599999999624,0.2087900000000075,1.014086600690458,-0.1025399999999763,0.2743199999999888,0.2928581806950063,-0.1025399999999763,0.2743199999999888,0.2928581806950063,-0.6438699999999926,-0.2050339999999977,0.6757273992195296,-0.6438699999999926,-0.2050339999999977,0.6757273992195296,0.068640000000073,-0.0686350000000004,0.0970680834518231,0.068640000000073,-0.0686350000000004,0.0970680834518231,-0.3956499999999323,-0.2509000000000014,0.4684973132259641,-0.3956499999999323,-0.2509000000000014,0.4684973132259641,-0.005399999999895,0.1856499999999954,0.1857285182733044,-0.005399999999895,0.1856499999999954,0.1857285182733044,0.0694699999999102,-0.0924799999999947,0.1156660334756343,0.0694699999999102,-0.0924799999999947,0.1156660334756343,0.0373599999999214,0.1315600000000074,0.136761848481205,0.0373599999999214,0.1315600000000074,0.136761848481205,-0.3175999999999703,0.1245000000000118,0.3411304882299207,-0.3175999999999703,0.1245000000000118,0.3411304882299207,0.1928000000000338,0.1747000000000014,0.2601767283982438,0.1928000000000338,0.1747000000000014,0.2601767283982438,-0.2477999999999838,0.075349999999986,0.2590028233436652,-0.2477999999999838,0.075349999999986,0.2590028233436652,0.2647499999999354,0.0352500000000191,0.2670863624372595,0.2647499999999354,0.0352500000000191,0.2670863624372595,-0.0646000000000412,0.2455300000000022,0.2538860785864527,-0.0646000000000412,0.2455300000000022,0.2538860785864527,0.0631499999999505,-0.0510499999999751,0.0812036021367969,0.0631499999999505,-0.0510499999999751,0.0812036021367969,0.1495999999999924,0.1495999999999924,146.175765,0.1057831744654921,97.72675775,0.0967566028502649,77.936353,0.4225062012539065,-0.0002456499999999,0.560685715,0.0001737007807984,0,0
2,66.66666666666667,570.3539,78.6541,0.9456049,575.1897,74.62746,0.9494044,569.79266,75.27103,0.6061934,587.8974,76.37542,0.9360294,573.6631,77.049805,0.18359773,594.368,98.63957,0.9975381,575.8871,96.87239,0.967773,585.11414,129.8336,0.99552876,561.6754,123.04436,0.8363666,554.1623,137.293,0.99025613,547.8531,136.54105,0.8406256,581.2371,148.74873,0.99650913,569.2379,144.11078,0.9866996,532.5151,160.38727,0.99197173,523.7298,156.48373,0.9671669,541.3084,209.16681,0.9648936,535.5151,203.04411,0.9174708,1.04991344,-0.86467195,-0.01031711,0.59544455,120.07315236516968,162.81963598584733,93.216107043304,91.00587461257668,11.485602645636908,146.429755,97.75598,78.6541,70.6382000000001,134.53935,0.5250374665476132,-174.53787225935503,0.8866841047058824,-0.61200000000008,0.4189899999999937,0.7416849871071227,0.2180599999999231,-0.1785240000000101,0.281817285090837,-0.6958600000000388,0.3970750000000009,0.8011801889868813,0.303679999999872,-0.1778699999999986,0.3519364705453554,-0.5423000000000684,0.4422799999999967,0.6997863162423735,0.0948399999998628,-0.1639700000000061,0.1894222439418771,-0.610300000000052,0.2384899999999987,0.6552431381556489,0.3820599999999103,0.0296999999999911,0.3832126480166475,-0.3059600000000273,0.3470150000000132,0.4626347715261206,-0.203420000000051,0.0726950000000243,0.2160191181933309,-0.292699999999968,0.0729040000000083,0.3016426415744008,0.3511700000000246,0.277938000000006,0.4478503106441042,-0.1944399999999859,0.122374999999991,0.2297445412300199,-0.263080000000059,0.1910099999999914,0.3251090686216363,-0.2996600000000171,0.0404800000000022,0.3023817884728021,0.0959899999999152,0.2913800000000037,0.3067839378128945,-0.3647000000000844,0.0395400000000023,0.3668371595136754,-0.3593000000001893,-0.146109999999993,0.3878719145544493,-0.2036699999999882,-0.01339999999999,0.2041103351131317,-0.2731399999998984,0.0790800000000047,0.2843573561558506,-0.2578599999999369,-0.0116199999999935,0.2581216844822753,-0.2952199999998584,-0.1431800000000009,0.3281087636743595,-0.0295999999999594,0.1689299999999889,0.1715036585615416,0.2880000000000109,0.0444299999999771,0.2914069746934761,0.0394999999999754,0.1894499999999936,0.1935240359748516,-0.1533000000000584,0.0147499999999922,0.1540079624565485,0.0566599999999652,-0.1567699999999945,0.1666948964425556,0.3044599999999491,-0.2321199999999805,0.3828519113181492,0.1327499999999872,-0.110050000000001,0.1724342338400262,-0.1319999999999481,-0.1453000000000202,0.1963061129970031,-0.1707999999999856,-0.0953700000000026,0.1956222811951532,-0.1061999999999443,-0.3409000000000048,0.3570591687661745,-0.2567500000000109,-0.0388400000000217,0.2596711537695462,-0.3198999999999614,0.0122099999999534,0.3201329319204355,0.1791900000000055,0.0295900000000131,146.26042833333335,0.1646167671694726,97.7364985,0.0704667774859139,78.17560200000001,0.5108580987436772,0.0348816599999999,0.5722719933333333,0.0200683986115741,0,0
3,100.0,569.5324,78.877495,0.94827473,574.42725,74.80504,0.95246655,568.90375,75.4783,0.6163853,587.3056,76.44118,0.9387776,572.7285,77.18919,0.18442816,593.90936,98.660065,0.99761826,575.3827,97.038475,0.96784914,584.9873,129.81775,0.9956155,561.4709,123.19858,0.83403283,554.3716,137.26602,0.9904073,547.62384,136.64783,0.83901197,581.38556,148.97516,0.9964888,569.34924,144.41623,0.9864488,532.4432,160.32008,0.99191964,523.56537,156.60104,0.9665287,541.3928,209.28792,0.96462846,535.52356,203.38348,0.9162158,1.04592084,-0.86368937,-0.01154534,0.5897947,119.65260295005824,162.1688433221939,92.69342446717268,90.5645998865629,10.755492967134352,146.695695,97.84927,78.877495,70.34398999999996,134.48288000000002,0.5230702188778953,-174.99779859778812,0.887476325882353,-0.8214999999999009,0.2233949999999964,0.8513328232981714,-0.2094999999998208,-0.1955949999999973,0.2866141204213844,-0.762450000000058,0.177580000000006,0.7828567294850896,-0.0665900000000192,-0.2194949999999949,0.2293736757454968,-0.8889100000000099,0.2072700000000082,0.9127550827029236,-0.3466099999999414,-0.2350099999999884,0.4187698558874002,-0.5917999999999211,0.0657599999999973,0.5954423713508354,0.0185000000001309,-0.1727300000000013,0.1737178830748444,-0.9345999999999322,0.1393849999999901,0.944936684770398,-0.6286399999999048,-0.207630000000023,0.6620411365616867,-0.4586400000000594,0.0204949999999968,0.4590976961661367,-0.1659400000000914,-0.0524090000000114,0.1740195014388662,-0.5044000000000324,0.1660850000000095,0.5310400994511016,-0.3099600000000464,0.0437100000000185,0.3130267811226866,-0.1268400000000156,-0.0158500000000003,0.1278264765219004,0.1728200000000015,-0.0563300000000026,0.1817685927216273,-0.204499999999939,0.1542200000000093,0.2561328920696792,0.1602000000001453,0.114680000000007,0.1970166043765047,0.2092999999999847,-0.0269800000000088,0.2110317758063796,0.4129699999999729,-0.0135800000000188,0.4131932202976934,-0.2292600000000675,0.1067799999999863,0.2529073269006416,0.0285999999998693,0.1183999999999798,0.1218052544022127,0.14846,0.2264299999999934,0.27075988716942,0.1780599999999594,0.0575000000000045,0.1871139054158885,0.111340000000041,0.3054500000000075,0.3251096708804796,0.0718400000000656,0.1160000000000138,0.136444074990498,-0.0718999999999141,-0.0671900000000107,0.0984078558855394,-0.1285599999998794,0.0895799999999837,0.1566915760338318,-0.1644299999999248,0.1173100000000033,0.201987279302376,-0.297179999999912,0.2273600000000044,0.3741771265055492,0.0843999999999596,0.1211100000000158,0.1476177228519564,0.2551999999999452,0.2164800000000184,0.3346500118033466,0.0084600000000136,0.3393700000000024,0.3394754313643358,0.2652100000000246,0.3782100000000241,0.4619298087372488,0.2659400000000005,0.086749999999995,146.369245,0.2557929914338167,97.764691375,0.0805588643326263,78.35107525000001,0.545112322275804,-0.0056498499999999,0.57665267,0.0185810403580334,0,0
4,133.33333333333334,568.73773,79.1913,0.9497258,573.5582,75.00192,0.95416015,568.0041,75.79868,0.62265277,586.56866,76.39792,0.94061595,571.97345,77.46805,0.1867083,593.6123,98.6242,0.997644,575.2498,97.23001,0.9680935,584.8865,129.86084,0.9955764,561.5179,123.425385,0.8331116,554.05206,137.178,0.9903138,547.3744,136.64737,0.83818483,581.48285,149.06377,0.99639744,569.5864,144.54297,0.98613286,532.46124,160.24344,0.99170494,523.83356,156.45845,0.9657715,541.24567,209.33438,0.9638143,535.46344,203.15576,0.9146428,1.04128528,-0.85509178,-0.00024565,0.59421632,118.9570714148816,160.73534651209434,92.70168500098868,90.61246595808282,10.316008544321864,146.80337,97.927105,79.1913,69.77873999999997,134.33246000000003,0.5194480878303864,-175.65809485298598,0.8879559376470588,-0.7946699999999964,0.3138050000000021,0.8543851513954323,0.0268299999999044,0.0904100000000056,0.0943070357926485,-0.869049999999902,0.196879999999993,0.8910721838885034,-0.1065999999998439,0.0192999999999869,0.1083330512815282,-0.8996499999999514,0.3203800000000001,0.9549939617086136,-0.0107399999999415,0.1131099999999918,0.1136187471326668,-0.7369400000000041,-0.0432600000000036,0.7382086366333074,-0.1451400000000831,-0.109020000000001,0.1815240479937144,-0.7550500000000966,0.2788600000000087,0.8048996223754554,0.1795499999998355,0.1394750000000186,0.227357599663935,-0.2970599999999876,-0.0358650000000011,0.2992172151213776,0.1615800000000717,-0.0563599999999979,0.1711272801163595,-0.1328999999999496,0.1915349999999875,0.233126717098195,0.3715000000000827,0.0254499999999779,0.372370719176549,-0.1008000000000493,0.0430900000000065,0.1096238482266085,0.0260399999999663,0.0589400000000068,0.0644360551244336,0.0470000000000254,0.2268049999999988,0.2316236344266315,0.2514999999999645,0.0725849999999894,0.2617648414607673,-0.3195399999999608,-0.0880200000000002,0.3314412949527789,-0.5288399999999456,-0.0610399999999913,0.5323510375682021,-0.2494399999999359,-0.0004600000000039,0.2494404241496715,-0.0201799999998684,-0.1072399999999902,0.1091221792304048,0.0972899999999299,0.0886100000000169,0.1315943623412089,-0.0511700000000701,-0.1378199999999765,0.1470126569381041,0.2371600000000171,0.1267399999999838,0.2689012703577356,0.125819999999976,-0.1787100000000236,0.2185587712721739,0.0180399999999281,-0.0766399999999976,0.0787345616612999,0.0899399999998422,-0.0094499999999868,0.0904350932988481,0.2681900000000041,-0.1425900000000126,0.3037396651739872,0.4326199999999289,-0.259900000000016,0.5046861147286963,-0.1471299999999473,0.0464599999999961,0.1542911808885529,-0.2315299999999069,-0.0746500000000196,0.2432668563531823,-0.0601199999999835,-0.227720000000005,0.2355224252592527,-0.0685799999999972,-0.5670900000000074,0.571221747222572,0.1076750000000004,-0.1582650000000001,146.45607,0.2945597460193668,97.7971741,0.1007121397054505,78.5191202,0.6033706232699809,0.00442162,0.5801654,0.0179063579729282,0,0
5,166.66666666666666,568.08514,80.15664,0.95275384,572.76373,75.756744,0.9572436,567.02905,76.72095,0.63957787,585.5545,76.3199,0.9431549,570.82904,77.86257,0.19530135,593.1193,98.04514,0.9977095,575.01917,97.1456,0.9688657,584.9083,129.5111,0.9955615,561.7902,123.628494,0.83302397,553.92487,137.08864,0.9902028,547.0224,136.72113,0.8375797,581.9342,149.10298,0.99632627,570.2831,144.75815,0.9858956,532.57605,160.22421,0.9915569,524.4251,156.58005,0.9652704,540.89844,209.46399,0.9634499,535.381,203.16586,0.9140203,1.05403739,-0.86491759,0.02038857,0.60207697,118.36803786907343,158.1025717800351,93.10433885682065,91.2215927179424,9.166084306305882,146.930565,97.59537,80.15664,68.69419999999991,133.707246,0.51376571981921,-177.15485603166053,0.889852594117647,-0.652590000000032,0.9653399999999976,1.1652274557785005,0.1420799999999644,0.6515349999999955,0.666846745980652,-0.7944700000000466,0.7548239999999993,1.095874925288499,0.0745799999998553,0.5579440000000062,0.5629064607339174,-0.9750500000000102,0.9222699999999976,1.3421268402800144,-0.0754000000000587,0.6018899999999974,0.6065943719653238,-1.0141600000000608,-0.0780199999999951,1.017156637888247,-0.2772200000000566,-0.0347599999999914,0.2793907407199293,-1.1444099999999937,0.39452,1.210504142289478,-0.3893599999998969,0.1156599999999912,0.4061753872404354,-0.4930000000000518,-0.5790599999999984,0.7604994961208384,-0.1959400000000641,-0.5431949999999972,0.5774541467727304,-0.2306300000000192,-0.0844099999999912,0.2455916224141356,-0.0977300000000696,-0.2759449999999788,0.2927401508590885,0.0218000000000984,-0.349739999999997,0.3504187603425396,0.1226000000001477,-0.3928300000000035,0.4115169120461989,0.2722999999999729,0.2031089999999977,0.3397065732083857,0.2252999999999474,-0.023696000000001,0.2265426900519554,-0.1271899999999277,-0.0893599999999992,0.1554429339017425,0.1923500000000331,-0.001339999999999,0.1923546674765464,-0.3520000000000891,0.0737599999999929,0.359645016092343,-0.1025600000001532,0.0742199999999968,0.126598428110427,0.4513500000000476,0.039209999999997,0.4530499383070732,0.3540600000001177,-0.0494000000000198,0.3574896412486456,0.6966999999999643,0.2151800000000037,0.7291730400940177,0.4595399999999472,0.0884400000000198,0.46797291075441,0.114810000000034,-0.0192299999999931,0.1164093166374906,0.0967700000001059,0.0574100000000044,0.1125181807532498,0.5915400000000091,0.1216000000000008,0.6039090424890249,0.3233500000000049,0.2641900000000134,0.4175542822197017,-0.3472299999999677,0.1296099999999853,0.3706311171501575,-0.2001000000000203,0.0831499999999891,0.2166885610732748,-0.0824400000000196,0.0101000000000226,0.0830563880746309,-0.022320000000036,0.2378200000000276,0.2388650974923183,0.1271950000000004,0.0195199999999999,146.62199,0.2776960964345579,97.75721310000002,0.1353774640654742,79.022929,0.723099938030709,0.00786065,0.588419086,0.0161814927563167,0,0
6,200.0,567.43054,80.5211,0.95802414,572.1771,76.10861,0.9615245,566.05853,77.08182,0.6762608,584.77655,76.61861,0.94532937,569.18066,78.28014,0.2144174,592.3802,98.18808,0.9977943,573.57733,97.56258,0.9708556,585.1321,129.30368,0.9954731,561.10956,123.89438,0.83763146,554.24786,136.95193,0.99000144,546.84735,136.8816,0.84025687,581.3872,148.56744,0.99625254,569.3065,144.34183,0.98585284,532.8643,160.40945,0.9912975,524.5344,156.75725,0.9648726,540.65515,209.57428,0.9623913,535.4029,203.18701,0.91258883,1.0580883,-0.86860227,0.02259938,0.60379649,117.02174702110976,157.65806230658717,94.71049603079209,92.32398579949324,8.928323363509872,146.454635,97.87533,80.5211,67.84579999999994,133.46567,0.5083389570640974,-178.0946898666251,0.8941661523529412,-0.6546000000000731,0.3644600000000082,0.7492210966064035,-0.0020100000000411,-0.6008799999999894,0.6008833618099169,-0.5866300000000138,0.3518660000000011,0.6840646452317332,0.2078400000000329,-0.4029579999999981,0.4534011638317795,-0.970519999999965,0.3608699999999913,1.0354401128505335,0.0045300000000452,-0.5614000000000061,0.561418276243308,-0.7779499999999189,0.2987099999999998,0.8333269866024223,0.2362100000001419,0.3767299999999949,0.4446579100837667,-1.6483799999999746,0.4175699999999978,1.7004473909239046,-0.5039699999999812,0.0230499999999977,0.5044968418136836,-0.7391000000000076,0.1429399999999958,0.7527952268711658,-0.2460999999999558,0.7219999999999942,0.7627904102700622,-1.4418400000000702,0.4169799999999952,1.5009246836534464,-1.211210000000051,0.5013899999999865,1.310885805934335,0.2237999999999829,-0.2074199999999848,0.3051384872479806,0.2019999999998845,0.1423200000000122,0.2471011582327303,-0.6806400000000394,0.2658859999999947,0.7307298916809486,-0.9529400000000124,0.0627769999999969,0.9550055472765712,0.3229899999998906,-0.1367099999999936,0.3507308999787837,0.4501799999998184,-0.0473499999999944,0.452663290868429,-0.1750499999999419,0.1604700000000036,0.237472363444635,0.1769500000001471,0.0867100000000107,0.1970531060401077,-0.5470000000000255,-0.5355399999999975,0.7655142660983041,-0.9983500000000732,-0.5747499999999945,1.1519723455882696,-0.9765999999999622,-0.4163200000000131,1.0616354847121197,-1.6732999999999263,-0.6315000000000168,1.7884980122996434,0.2882499999999481,0.1852399999999932,0.3426396359150055,0.1734399999999141,0.2044699999999863,0.2681220142024236,0.1092999999999619,0.1771999999999991,0.2081978145898544,-0.4822400000000471,0.0555999999999983,0.485434627524701,-0.2432900000000017,0.110289999999992,0.2671215232810698,0.1039399999999659,-0.0193199999999933,0.1057203197119298,0.0219000000000733,0.0211499999999773,0.030445566179696,0.1043400000000929,0.0110499999999547,0.1049234868845788,-0.4759300000000053,-0.6031250000000057,146.662804,0.2180497307496386,97.800611,0.1304484127155257,79.48012700000001,0.8170375747143076,0.0017195199999999,0.597065806,0.0057885856581668,0,0
7,233.3333333333333,566.483,80.52259,0.95699483,571.25104,76.14667,0.961476,565.28345,77.11903,0.66261774,584.15356,76.96387,0.94706076,568.7725,78.61222,0.20258212,592.0823,98.76307,0.99786866,573.2732,98.18722,0.96969515,585.1285,129.6644,0.99569964,560.63745,124.19887,0.83169794,553.5674,137.0525,0.9904358,546.127,136.69118,0.8366679,581.128,149.08084,0.9963653,569.0334,144.85025,0.98580015,532.8978,160.19467,0.9915969,524.3542,156.68433,0.9649769,540.81757,209.60857,0.96345955,535.365,203.47028,0.91334826,1.0592625,-0.87228696,0.01154534,0.60084875,115.85721508061984,156.6349748879888,93.87073435992286,91.5919110804026,8.904223899366244,146.965545,98.475145,80.52259,67.72810000000004,133.4619,0.507471416880238,-178.24640881414436,0.8922555058823529,-0.9475400000000036,0.0014899999999897,0.9475411715065508,-0.2929399999999305,-0.3629700000000184,0.4664344160758001,-0.9260600000000068,0.0380600000000015,0.926841781103988,-0.339429999999993,-0.3138059999999996,0.4622628370699888,-0.7750800000000027,0.0372100000000017,0.7759726738101054,0.1954399999999623,-0.3236599999999896,0.3780907155696613,-0.6229900000000725,0.3452599999999961,0.7122647033933998,0.1549599999998463,0.0465499999999963,0.1618008161288194,-0.4081599999999525,0.3320799999999906,0.5261860051350236,1.240220000000022,-0.0854900000000071,1.2431629774490778,-0.2978999999999132,0.5749899999999997,0.6475784972495211,0.4412000000000944,0.4320500000000038,0.6175148925330357,-0.3041299999999864,0.6246399999999994,0.6947446915954025,1.1377100000000837,0.2076600000000041,1.1565062557981225,-0.0036000000000058,0.3607199999999864,0.3607379636245542,-0.2273999999999887,0.5681399999999712,0.6119590015678845,-0.4721100000000433,0.3044900000000012,0.5617846671101319,0.2085299999999961,0.0386040000000065,0.2120731706652184,-0.6804599999999255,0.1005700000000047,0.6878518274308061,-1.003449999999816,0.2372799999999983,1.0311225440749658,-0.7203500000000531,-0.1904199999999889,0.7450932149067473,-0.5453000000001111,-0.3508899999999926,0.648441116910484,-0.2591999999999643,0.5133999999999901,0.575121030740462,0.2878000000000611,1.0489399999999875,1.0877058258555063,-0.2730999999999994,0.508420000000001,0.577126074961096,0.7034999999999627,0.924740000000014,1.1619192388457873,0.0335000000000036,-0.2147799999999904,0.217376858013902,-0.2547499999999445,-0.4000199999999836,0.4742505275695101,-0.1802000000000134,-0.0729200000000105,0.1943948723603747,-0.2894999999999754,-0.2501200000000096,0.382583669803078,0.1624199999999973,0.0342899999999986,0.1660001822288127,0.4057099999999991,-0.0759999999999934,0.4127670094617522,-0.037900000000036,0.2832700000000159,0.2857941617668418,-0.0598000000001093,0.2621200000000385,0.26885485749756,0.5109099999999955,0.9868400000000008,146.769962,0.2062212599248251,97.944444,0.3231221460492971,79.853825,0.7707721971504012,-0.0029477399999999,0.5981466460000001,0.0059133749764694,0,0
8,266.6666666666667,565.17267,81.770325,0.9528496,569.619,77.32545,0.9587172,564.0922,78.40015,0.632595,582.3372,77.43855,0.94675404,568.1864,79.36531,0.18784374,591.35114,98.47528,0.99785197,573.1872,98.22987,0.9673716,585.2742,129.3861,0.995827,560.5227,124.28003,0.82412124,553.4868,137.17877,0.99063385,545.6788,136.42267,0.8316675,581.402,149.33966,0.996351,569.87244,145.20328,0.985329,532.9565,159.98628,0.9915724,525.26404,156.48174,0.96395874,540.53357,209.74722,0.96331006,535.67426,203.24489,0.91177636,1.06565655,-0.87916503,0.01400179,0.60207697,114.89665963030998,155.211014349496,93.73667838920515,91.63859359523566,7.720545665858494,147.27147000000002,98.352575,81.770325,66.08709999999996,132.42176999999998,0.499065217908919,-179.22593326287597,0.8881488411764706,-1.310329999999908,1.2477350000000058,1.8093665574241096,-0.3627899999999044,1.246245000000016,1.297976573026251,-1.6320399999999609,1.1787800000000033,2.0132254841422705,-0.7059799999999541,1.1407200000000015,1.3415102976868791,-1.1912499999999682,1.2811200000000014,1.749384182190958,-0.4161699999999655,1.2439099999999996,1.3116819572594458,-1.8163599999999176,0.4746800000000064,1.877361113904224,-1.1933699999998453,0.1294200000000103,1.2003672326832455,-0.5860999999999876,0.7530900000000003,0.9542838980617802,-0.177940000000035,0.4210100000000096,0.4570689922758058,-0.7311600000000453,-0.2877900000000011,0.7857595240912241,-0.4332600000001321,-0.8627800000000008,0.9654551030473224,-0.0860000000000127,0.0426500000000089,0.0959949087191761,0.2181299999999737,-0.5819899999999905,0.6215247838984198,0.1456999999999197,-0.2783000000000015,0.3141327426423063,0.1492999999999256,-0.6390199999999879,0.6562294190296274,-0.1147499999999581,0.081159999999997,0.1405507314103698,0.3573600000000851,-0.2233300000000042,0.42140533753153,-0.080600000000004,0.1262699999999768,0.1498014449195827,0.5998599999999215,0.025699999999972,0.6004102843888539,-0.4481999999999289,-0.268509999999992,0.5224757028799827,0.2721500000001242,-0.0780900000000031,0.2831318961192259,0.2740000000000009,0.2588200000000142,0.3769135078502864,0.5331999999999653,-0.2545799999999758,0.5908580340487473,0.8390399999999545,0.3530300000000181,0.9102847370465664,1.112139999999954,-0.1553899999999828,1.1229432005671045,0.0587000000000443,-0.2083900000000085,0.2164996122398577,0.0252000000000407,0.0063899999999819,0.0259975402682988,0.9098400000000312,-0.2025899999999865,0.9321220594428882,1.0900400000000443,-0.1296699999999759,1.09772560801873,-0.2839999999999918,0.1386500000000126,0.3160376915812398,-0.4464199999999891,0.104360000000014,0.4584559150016425,0.3092599999999947,-0.2253900000000044,0.382677932078659,0.3471600000000308,-0.5086600000000203,0.6158368787268607,0.3059250000000304,-0.2049849999999651,146.88511699999998,0.2957195245625224,98.045105,0.3621054139853562,80.432391,0.9249889214093856,0.00122822,0.6006031000000001,0.0037213447816892,0,0
9,300.0,563.7405,82.2219,0.9476651,567.9446,77.78638,0.9548382,562.76263,78.9209,0.60227984,580.56885,77.78796,0.94514084,567.32117,79.86887,0.17500967,590.4519,98.56397,0.99776316,572.7459,98.30898,0.9648667,585.082,129.7563,0.9957926,560.18695,124.51248,0.81732035,553.4626,137.04364,0.99054104,545.77277,136.09967,0.82665825,581.47864,148.97675,0.99628,570.2988,144.81021,0.9848571,532.81537,159.4035,0.99150085,525.6331,155.71103,0.96327055,540.25116,209.50272,0.9632175,535.5736,202.50043,0.9111288,1.06565655,-0.87916503,0.01400179,0.60207697,112.74634588414791,154.40262057448408,93.65124481141244,91.72086337857314,6.720757942296792,146.89348,98.436475,82.2219,64.81880000000001,131.71634,0.4921090238909689,-179.17492144336,0.8840076794117647,-1.432170000000042,0.4515750000000054,1.501676026819741,-0.1218400000001338,-0.7961600000000004,0.8054289113261538,-1.6743999999999917,0.4609299999999905,1.736684146556294,-0.0423600000000305,-0.7178500000000128,0.7190987359883348,-1.3295700000001034,0.5207500000000067,1.4279134943687175,-0.1383200000001352,-0.7603699999999947,0.7728486005033776,-1.768350000000055,0.3494099999999918,1.802539616929456,0.0480099999998628,-0.1252700000000146,0.1341548843687418,-0.8652299999999968,0.5035600000000073,1.0010972113136676,-0.2791300000000092,-0.2495299999999929,0.3744045643418381,-0.8992399999999634,0.0886899999999997,0.9036030620244346,-0.168079999999918,0.3764800000000008,0.4122961033043765,-0.4412999999999556,0.07911,0.4483347879653784,-0.3552999999999429,0.036459999999991,0.3571658180732848,-0.192199999999957,0.3702000000000112,0.4171197429995274,-0.3378999999998768,0.6485000000000127,0.7312514341865821,-0.3357499999999618,0.23245,0.4083638879724484,-0.2210000000000036,0.151290000000003,0.2678239423576662,-0.0242000000000643,-0.1351299999999753,0.1372798488489714,0.0563999999999396,-0.2613999999999521,0.2674152576050367,0.0939700000000129,-0.3230000000000075,0.3363916778102682,0.5421699999999419,-0.0544900000000154,0.5449013387760565,0.0766399999999976,-0.3629099999999994,0.3709142187891955,-0.1973600000000033,-0.6217300000000137,0.6523029683360473,0.4263600000000451,-0.3930699999999945,0.5799024698171531,-0.4126799999999093,-0.7461000000000126,0.852625352895364,-0.1411299999999755,-0.5827799999999854,0.5996250539295169,-0.1998300000000199,-0.3743899999999769,0.4243817868382085,0.3690599999999904,-0.7707100000000082,0.8545169323658868,-0.5407800000000407,-0.5681200000000217,0.7843489929872217,-0.2824100000000271,-0.2444999999999879,0.3735447203481926,0.0015899999999646,-0.3831500000000005,0.3831532990853665,-0.100659999999948,-0.7444600000000037,0.7512344023006368,-0.4099199999999428,-0.5190699999999993,0.6614136914971993,-0.3779900000000111,-0.6839150000000416,146.903139,0.2922171941253349,98.146979,0.3910998085112144,81.038511,0.9010474928826708,0.0,0.6021752300000001,0.0010508327960271,0,0
10,333.3333333333333,562.38794,82.84349,0.9428473,566.1869,78.14745,0.951596,561.31323,79.5175,0.5733203,578.6356,77.285164,0.9442131,566.5797,79.92972,0.16550548,589.52734,97.946304,0.9976451,573.1773,97.650375,0.9623005,583.8735,130.51314,0.99568653,560.38007,124.604706,0.80948186,552.232,137.19055,0.9902755,545.0287,135.73804,0.82114214,582.10724,149.46393,0.9960051,571.8774,145.25568,0.9836911,532.6221,158.913,0.9909979,526.57825,154.91675,0.9609892,540.26697,209.9317,0.96151656,535.4459,202.03577,0.9072686,1.05192978,-0.85116145,-0.02014293,0.61779828,111.76527188054688,151.34807228471425,92.28831095532658,91.38103020586502,5.0274703453756375,147.359805,97.7983395,82.84349,62.94908999999996,132.64653600000003,0.4745626340776612,-178.96308317360229,0.8796754276470589,-1.3525600000000395,0.6215899999999976,1.488553889417546,0.0796100000000024,0.1700149999999922,0.1877307974867143,-1.7576999999999998,0.3610700000000122,1.7944026401284656,-0.0833000000000083,-0.0998599999999783,0.130041953230475,-1.4493999999999687,0.5965999999999951,1.567383781975526,-0.1198299999998653,0.0758499999999884,0.141818374690891,-1.933250000000044,-0.5027960000000036,1.9975633607263052,-0.1648999999999887,-0.8522059999999954,0.868013292776089,-0.7414700000000494,0.060850000000002,0.7439626895215065,0.1237599999999474,-0.4427100000000052,0.4596832406124805,-0.9245600000000422,-0.6176659999999998,1.1119003917420291,-0.0253200000000788,-0.7063559999999995,0.7068096640086377,0.4313999999999396,-0.6586050000000085,0.787316014078819,0.8726999999998952,-0.7377150000000086,1.142728625363358,-1.2084999999999582,0.7568399999999826,1.425930936476193,-1.016300000000001,0.3866399999999714,1.087362027845363,0.1931200000000217,0.0922259999999965,0.2140116106102838,0.5288699999999835,-0.1402240000000034,0.5471437170213906,-1.2305999999999813,0.1469099999999912,1.2393380927333555,-1.2063999999999169,0.2820399999999665,1.238929990596636,-0.7440700000000788,-0.361629999999991,0.8272946402583005,-0.8380400000000918,-0.0386299999999835,0.8389298650662954,0.6286000000000058,0.487179999999995,0.7952875658527565,0.5519600000000082,0.8500899999999945,1.013564427996563,1.5785999999999376,0.4454700000000002,1.640250432372997,1.1522399999998925,0.8385399999999947,1.4250636298775377,-0.193269999999984,-0.4904999999999972,0.5272035118433783,-0.0521400000000085,0.0922799999999881,0.1059914053119341,0.9451500000000124,-0.7942799999999863,1.2345805931165457,0.576090000000022,-0.0235699999999781,0.5765719668870698,0.0158099999999876,0.4289799999999957,0.4292712388455531,0.2982200000000148,0.6734799999999836,0.7365531065714045,-0.1277000000000043,-0.4646599999999807,0.4818881671093235,-0.0270400000000563,0.2798000000000229,0.2811035424892683,0.4663249999999834,0.8443149999999946,146.988987,0.3579475550726398,98.1875729,0.3243739853021691,81.57588100000001,1.034887250262162,0.0157213099999999,0.605319492,0.0070543447057913,0,0
11,366.6666666666666,561.1867,83.4586,0.9509105,565.08514,78.555756,0.9556067,559.3568,80.1911,0.6339927,577.2783,77.21048,0.9424716,563.1451,80.61165,0.1936891,588.95337,97.647095,0.9975975,570.0875,97.96152,0.9677413,584.3503,130.2793,0.9952807,557.8987,124.06401,0.83446974,551.3505,138.11151,0.9897407,542.424,135.86311,0.8406019,582.30835,149.04936,0.9960373,570.3864,145.07079,0.98530376,532.9941,158.11333,0.9912252,525.29016,154.3154,0.96531284,540.6798,209.71436,0.96361107,534.7575,202.10904,0.91694015,1.04163819,-0.83175546,-0.04175972,0.62565893,111.38071994855902,152.35533968349168,91.94311360504004,90.38043069350474,3.6859230199348354,147.06007499999998,97.8043075,83.4586,63.663209999999935,132.50387999999998,0.4804629835710242,179.045177469137,0.8894431035294117,-1.2012399999999843,0.6151100000000014,1.349569505323814,0.1513200000000552,-0.0064799999999962,0.1514586834751202,-1.101760000000013,0.408305999999996,1.1749846327659037,0.6559399999999869,0.0472359999999838,0.6576385962639216,-1.9564299999999548,0.6736000000000075,2.06914361630599,-0.5070299999999861,0.0770000000000123,0.5128434662740551,-1.3573000000000093,-0.0746839999999906,1.3593531512657129,0.5759500000000344,0.4281120000000129,0.7176338112464118,-3.434600000000046,0.6819299999999942,3.5016432835028053,-2.6931299999999965,0.6210799999999921,2.7638179323718077,-0.5739700000000312,-0.2992090000000047,0.6472770555033127,0.350590000000011,0.3184569999999951,0.473632989717782,-3.0897999999999683,0.3111449999999962,3.105426742176476,-3.521199999999908,0.9697500000000048,3.6522957851876345,0.4767999999999119,-0.2338399999999865,0.5310549741786718,1.68529999999987,-0.9906799999999693,1.954912517837947,-2.481370000000084,-0.540695999999997,2.539596275260383,-2.6744900000001053,-0.6329219999999935,2.7483607874848883,-0.88149999999996,0.920960000000008,1.2748370764925,0.3491000000000213,0.7740500000000168,0.8491314459493541,-2.60469999999998,0.1250699999999938,2.607701017160497,-1.860629999999901,0.4866999999999848,1.9232318858888588,0.2011099999999714,-0.4145699999999976,0.460774909256121,-0.4274900000000343,-0.9017499999999928,0.9979482765153794,-1.4909999999999854,-0.1848900000000242,1.502419818858885,-3.069599999999923,-0.6303600000000245,3.1336556750223146,0.3719999999999572,-0.7996700000000203,0.8819615121421119,0.5652699999999413,-0.309170000000023,0.6442951666743651,-1.288090000000011,-0.6013499999999965,1.421547632195286,-2.2332400000000234,0.1929299999999898,2.241558137211725,0.4128299999999854,-0.2173400000000072,0.4665461225859573,0.3970199999999977,-0.6463200000000029,0.7585212078775397,-0.6884000000000015,0.0732699999999795,0.6922882729759323,-0.5606999999999971,0.5379299999999603,0.7770155564079486,-0.2997300000000109,-0.7660549999999944,147.110075,0.1991957164762255,98.1733684,0.3425134407942057,82.163381,1.116943721503106,0.0078606499999999,0.60969198,0.0113449885789455,0,0
12,400.0,559.35046,83.674225,0.9551306,563.31036,78.75894,0.9600502,557.42816,80.29512,0.6542751,575.7567,77.26512,0.9456254,561.25555,80.43344,0.19897202,587.2552,97.85206,0.9976286,569.2114,97.6862,0.9680587,581.7113,131.03903,0.99518305,557.1164,124.09384,0.8317465,550.1289,138.18819,0.9895147,541.74274,135.66684,0.8388165,582.87335,148.94286,0.995774,571.40533,144.88048,0.98440796,533.21234,157.47331,0.9907844,525.8706,153.46298,0.96372086,540.5535,209.47643,0.9623752,534.67535,201.62607,0.91459453,1.04328146,-0.83396627,-0.03856633,0.62565893,112.23853781689088,151.58006010194524,91.71156413110256,90.31411786117124,1.2753006577939907,146.91167000000002,97.76913,83.674225,61.38459999999998,132.21131,0.4642915915114099,-179.47334761238238,0.8909799011764706,-1.8362399999999752,0.2156250000000028,1.8488568030609915,-0.6349999999999909,-0.3994849999999985,0.7502088144143518,-1.774780000000078,0.2031839999999931,1.7863728015888156,-0.673020000000065,-0.2051220000000029,0.7035843625920695,-1.928639999999973,0.1040199999999913,1.9314430900235957,0.0277899999999817,-0.5695800000000162,0.5702575387489563,-1.5215999999999212,0.054639999999992,1.5225807333602246,-0.1642999999999119,0.1293239999999826,0.2090913364440683,-1.8895499999999856,-0.1782099999999928,1.897935195574376,1.5450500000000602,-0.860139999999987,1.768338294020735,-1.6981700000000046,0.2049650000000014,1.710494665330768,-1.1241999999999734,0.5041740000000061,1.2320783507049975,-0.8760999999999513,-0.2753199999999935,0.9183421543193534,2.213700000000017,-0.5864649999999898,2.290067441414131,-2.6389999999998963,0.7597299999999905,2.7461811070829683,-3.1157999999998083,0.993569999999977,3.270380862361257,-0.7822999999999638,0.029830000000004,0.7828685195484256,1.6990700000001198,0.570526000000001,1.792299858164478,-1.2215999999999667,0.0766799999999818,1.2240042411690883,-0.3401000000000067,-0.8442800000000261,0.910206970089797,-0.681259999999952,-0.1962699999999984,0.7089690405793007,1.923440000000028,-0.3213399999999922,1.9500976460680377,0.5649999999999409,-0.1065000000000111,0.5749497804155904,0.3638899999999694,0.3080699999999865,0.4767840779639872,1.0189300000000685,-0.1903099999999824,1.0365501632820926,2.509930000000054,-0.0054199999999582,2.5099358520289456,0.218240000000037,-0.6400199999999927,0.6762058103861626,-0.1537599999999201,0.1596500000000276,0.2216534685042945,0.5804399999999532,-0.8524200000000235,1.0312761269417543,1.8685299999999645,-0.251070000000027,1.8853223877628675,-0.1263000000000147,-0.2379300000000057,0.2693740427361301,-0.5391300000000001,-0.0205899999999985,0.539523034726044,-0.0821500000000696,-0.4829699999999945,0.4899067701104019,0.6062499999999318,-0.5562399999999741,0.8227648510357553,-0.1484049999999683,0.1513250000000425,147.09930000000003,0.2101254707608641,98.0321654,0.3323815428768297,82.79370800000001,0.8053177882101757,0.0,0.614654016,0.0119212712469008,0,0
13,433.33333333333337,558.03076,85.03801,0.95211834,561.774,80.109406,0.9561643,556.13745,81.72801,0.6418267,573.96014,77.76313,0.94116706,559.9486,81.19255,0.19338004,586.6209,97.20282,0.99750406,567.64856,97.32303,0.9682682,581.51556,130.6296,0.99510443,555.07947,123.839066,0.84134823,548.7439,138.57903,0.98953,539.80597,136.07538,0.8474908,583.0597,148.43048,0.99597025,570.9788,144.41534,0.985615,533.2251,156.61458,0.9914102,525.0743,152.45644,0.9671989,540.62244,209.51723,0.96543926,533.83954,201.39952,0.92292017,1.05994109,-0.83691401,-0.02996874,0.64973219,112.31868948877865,154.06166143941897,91.3661494641452,89.7822168087334,0.1350865032978211,146.42291,97.262925,85.03801,61.54660000000001,131.7541,0.4671323285792828,179.63697501261146,0.8913209376470588,-1.3197000000000116,1.363784999999993,1.8977664809520196,0.5165399999999636,1.14815999999999,1.259001571563729,-1.536359999999945,1.3504660000000115,2.0455220523758384,0.2384200000001328,1.1472820000000183,1.1717935329758846,-1.2907100000001035,1.4328900000000004,1.9284983941399247,0.6379299999998693,1.328870000000009,1.4740590767672297,-1.7965599999999995,0.4980100000000078,1.8643073227609248,-0.2749600000000782,0.4433700000000158,0.5217086912253399,-1.3069499999999152,0.7591099999999926,1.5114120201320906,0.5826000000000704,0.9373199999999856,1.1036265411814157,-0.6342999999999392,-0.6492399999999918,0.9076613176730142,1.0638700000000654,-0.8542049999999932,1.3643626933206314,-1.562840000000051,-0.3631699999999966,1.6044816342046917,-0.6867400000000998,-0.087850000000003,0.6923362261937025,-0.1957400000000007,-0.4094299999999862,0.4538139183630102,2.443259999999896,-1.1691599999999769,2.708589029956268,-2.036929999999984,-0.2547739999999976,2.05280140685258,-1.25463000000002,-0.2846040000000016,1.286505294865144,-1.384999999999991,0.3908399999999972,1.4390903048801251,-0.1634000000000242,0.3141600000000153,0.3541130689483481,-1.936770000000024,0.4085399999999879,1.979389543394651,-1.255510000000072,0.6048099999999863,1.3935926579169986,0.1863500000000613,-0.5123800000000074,0.5452151748622102,-0.3786499999998796,-0.4058799999999962,0.5550805319049712,-0.4265300000000707,-0.4651400000000194,0.6310967124776348,-1.4454600000001392,-0.274830000000037,1.4713552054145262,0.0127599999999574,-0.8587300000000084,0.8588247961604354,-0.2054800000000796,-0.2187100000000157,0.3000934762703774,-0.7962999999999738,-1.006540000000001,1.283439309667567,-1.376739999999927,-0.1541199999999776,1.385339670261338,0.0689399999999977,0.0408000000000186,0.0801084489926075,0.1952400000000125,0.2787300000000243,0.3403073177291644,-0.835809999999924,-0.2265500000000031,0.8659695483097973,-0.7536599999998543,0.2564199999999914,0.7960870630777617,-0.4887600000000134,-0.340355000000045,146.92958800000002,0.3392863695795473,97.8142354,0.4163865442412552,83.447245,1.0545345668470345,0.02407326,0.62418506,0.017223233138752,0,0
14,466.6666666666667,555.9126,85.70167,0.9454687,559.488,80.79476,0.9517048,554.22577,82.49682,0.60190576,572.0284,78.50845,0.9394788,558.7291,82.121796,0.17290793,584.9915,97.71461,0.9973525,566.8695,97.96742,0.96415085,578.55566,130.96751,0.99504244,554.1012,124.6785,0.8276041,546.66016,138.75974,0.9893044,540.0853,136.26135,0.8367104,582.4886,148.1651,0.99582565,570.8971,144.23615,0.9846526,532.49567,157.05545,0.9912395,525.3079,152.58127,0.96557117,540.16125,210.31894,0.9648519,533.921,201.22931,0.92040724,1.03432769,-0.80891043,-0.05355071,0.64236282,114.68245063734314,155.11909934552008,91.89395177378609,90.3330403991866,0.9032217949617664,146.200625,97.841015,85.70167,59.68359999999996,131.81049000000002,0.4527985560724445,179.20075011224134,0.8849516905882353,-2.118159999999989,0.663659999999993,2.219695109964417,-0.7984599999999773,-0.7001249999999999,1.0619385044459797,-2.2859999999999445,0.6853539999999896,2.386525949013698,-0.7496399999999994,-0.6651120000000219,1.0021647080914535,-1.911679999999933,0.768810000000002,2.0604827683093463,-0.6209699999998293,-0.6640799999999984,0.9091787433171686,-1.931739999999991,0.7453199999999924,2.0705364836196325,-0.1351799999999912,0.2473099999999846,0.2818436951574223,-1.219500000000039,0.9292460000000062,1.5331922183849314,0.0874499999998761,0.1701360000000136,0.1912949581039264,-1.6294000000000324,0.5117899999999906,1.7078856413999437,-0.9951000000000932,1.1610299999999825,1.5291221896565834,-0.7790599999999586,0.6443900000000014,1.0110256948762169,0.7837800000000925,1.007559999999998,1.2765140978462168,-2.959900000000061,0.3379099999999937,2.979125908400039,-2.764160000000061,0.7473399999999799,2.863406639162574,-0.978270000000066,0.8394339999999971,1.2890545501475583,1.058659999999918,1.0942079999999947,1.5225150714734534,-2.0837400000000343,0.1807100000000048,2.0915612569800928,-0.6987400000000434,-0.2101299999999923,0.729652111968476,0.279329999999959,0.1859699999999975,0.3355742686797904,2.216099999999983,-0.2225699999999904,2.2272486648104475,-0.5711000000000013,-0.2653799999999933,0.6297473734760614,-0.7574500000000626,0.2470000000000141,0.7967054050903017,-0.0816999999999552,-0.1791899999999771,0.1969364011552574,0.3448300000001154,0.2859500000000423,0.447967779421806,-0.7294299999999794,0.4408700000000181,0.8523112587546793,-0.7421899999999368,1.2996000000000263,1.4965981946066804,0.233600000000024,0.1248300000000028,0.2648612634947057,1.0298999999999978,1.131370000000004,1.52993205303373,-0.4611899999999878,0.8017099999999857,0.924897367387304,-0.5301299999999856,0.7609099999999671,0.9273736275093952,0.0814599999999927,-0.1702099999999973,0.1886986372499756,0.9172699999999168,0.0563400000000058,0.91899861180518,-0.2222849999999994,0.266475000000014,146.79101699999998,0.4728992016883412,97.69514339999998,0.242966829911349,84.14319900000001,1.1839947710738867,-0.00736937,0.63224223,0.0132630352119359,0,0
15,500.0,553.1754,86.41717,0.942836,556.58606,81.41788,0.9505764,551.36487,83.17452,0.5895341,569.0722,78.765564,0.93945396,556.0804,82.574066,0.16694869,583.28156,97.83902,0.997142,565.057,98.24323,0.96091837,576.295,132.00594,0.9946536,552.8143,125.68872,0.8154657,542.5683,139.6476,0.9884532,537.821,136.46478,0.82651985,582.6146,149.00049,0.9950597,570.9092,144.97849,0.98194754,532.27045,156.3101,0.9895996,524.7819,151.0629,0.95942855,539.38574,210.21521,0.9593717,533.0712,199.79126,0.90907425,1.0484438,-0.80669962,-0.07934348,0.6649622,114.32300547040046,149.7461216979967,90.74183064377144,87.85989999395994,3.0319416158865766,146.98949,98.041125,86.41717,58.49966000000006,131.44964600000003,0.4450347439883201,178.72942169444283,0.8804107770588234,-2.73720000000003,0.7155000000000058,2.829170212270759,-0.6190400000000409,0.0518400000000127,0.6212068151590515,-2.901940000000081,0.6231200000000001,2.9680859653993297,-0.6159400000001369,-0.0622339999999894,0.61907604892789,-2.860900000000015,0.6777000000000015,2.9400724650933503,-0.949220000000082,-0.0911100000000004,0.9535825294646268,-2.9562000000000808,0.2571140000000014,2.967360114478268,-1.02446000000009,-0.488205999999991,1.134840689275889,-2.6486999999999625,0.4522699999999986,2.6870355120280416,-1.4291999999999234,-0.4769760000000076,1.5066913235881425,-1.7099399999999605,0.1244100000000116,1.7144598717088328,-0.0805399999999281,-0.3873799999999789,0.3956639432649532,-1.8125,0.2758099999999928,1.8333650498741367,-1.0334400000000414,-0.3685800000000085,1.0972007336855425,-2.26066000000003,1.0384300000000053,2.4877541077245047,0.6992400000000316,0.7005200000000116,0.9897802018630504,-1.286899999999946,1.010220000000004,1.6360489168725576,-0.30862999999988,0.1707860000000067,0.3527326674635173,-4.091859999999997,0.8878600000000176,4.18707698032888,-2.0081199999999626,0.7071500000000128,2.128992028378657,-2.2642999999999347,0.2034299999999973,2.273419946886124,-2.5436299999998937,0.0174599999999998,2.543689923811363,0.1259999999999763,0.8353900000000181,0.8448387136607934,0.6970999999999776,1.1007700000000114,1.3029363003999823,0.0121000000000321,0.7423399999999845,0.7424386072935444,0.0937999999999874,0.9215299999999615,0.926291520472862,-0.2252200000000357,-0.745350000000002,0.7786338490587338,0.5042099999999436,-1.18622000000002,1.2889319658151048,-0.5260000000000673,-1.518369999999976,1.6068987077286476,-0.7596000000000913,-1.643199999999979,1.8102757800954168,-0.7755099999999402,-0.1037299999999845,0.7824165597684548,-0.3143199999999524,-0.9054399999999704,0.9584459588312302,-0.8498000000000729,-1.438050000000004,1.6703735637575612,-0.9312600000000656,-1.2678400000000067,1.5731063070244615,0.788864999999987,1.0111499999999864,146.71695400000002,0.3817655441399521,97.7437005,0.2887024395593075,84.857935,1.2781663963859975,0.0225993799999999,0.6416750139999999,0.0167385340410781,0,0
16,533.3333333333334,551.2131,86.65984,0.943792,554.6236,81.773315,0.9505994,549.1588,83.434456,0.59709525,566.84204,79.331665,0.9395741,553.2577,82.990204,0.1733893,581.5888,98.109024,0.997242,562.6902,98.62087,0.96335995,574.95435,131.77875,0.9948172,550.91986,125.55179,0.8274034,539.7594,140.49121,0.98874,535.5155,137.03838,0.83648926,583.0184,148.12341,0.99534684,570.81494,144.15816,0.9833536,532.76794,157.10632,0.9898774,524.8238,151.83473,0.9613352,538.69165,210.53613,0.95930773,532.62933,200.14435,0.91029316,1.05634663,-0.80645398,-0.10243415,0.67454238,115.0510149515932,150.31889634559533,93.80880497573148,90.2979840508688,5.710113729737198,146.140785,98.364947,86.65984,58.19460000000004,131.20446500000003,0.4435413044552921,178.44859153377865,0.8830597523529411,-1.9622999999999136,0.2426700000000039,1.9772480924000568,0.774900000000116,-0.4728300000000018,0.9077655087632388,-1.9624599999999648,0.3554349999999999,1.994387948926904,0.9394800000001168,-0.2676850000000002,0.9768715010814982,-2.2060699999999542,0.2599359999999961,2.2213310354370406,0.6548300000000609,-0.4177640000000053,0.776742614123935,-2.2301599999999557,0.5661010000000033,2.3008876478004754,0.7260400000001255,0.3089870000000019,0.7890545277540604,-2.8227000000000544,0.4161380000000036,2.853209793380836,-0.1740000000000918,-0.0361319999999949,0.1777119056901692,-1.6927600000000211,0.2700040000000001,1.7141582708770131,0.0171799999999393,0.1455939999999884,0.1466041105699105,-2.366800000000012,0.3776399999999995,2.3967382438639517,-0.554300000000012,0.1018300000000067,0.563575938893788,-1.3406499999999824,-0.2271900000000073,1.3597638466292432,0.9200100000000476,-1.2656200000000126,1.5646764472248311,-1.8944400000000317,-0.1369300000000066,1.8993821991637492,-0.6075400000000855,-1.1471500000000106,1.2980978291716414,-2.808899999999994,0.843609999999984,2.9328479405008268,1.2829600000000028,-0.0442500000000336,1.2837228766754958,-2.305500000000052,0.573599999999999,2.375783493923686,-0.0412000000001171,0.3701700000000016,0.3724557274361758,0.4038000000000465,-0.8770800000000065,0.9655691411805004,0.2778000000000702,-1.7124700000000246,1.7348562882556362,-0.0942600000000766,-0.8203299999999842,0.8257277132929406,-0.1063600000001088,-1.5626699999999687,1.566285407740213,0.4974899999999707,0.7962200000000053,0.938862390608964,0.7227100000000064,1.5415700000000072,1.7025709409595924,0.0419000000000551,0.7718299999999942,0.7729664668664454,0.5679000000001224,2.2901999999999703,2.3595606476630357,-0.6940900000000738,0.320920000000001,0.7646898551047366,0.0814199999998663,0.4246499999999855,0.432385058599353,-0.4418699999999944,0.3530900000000088,0.5656161640193828,0.4079300000000785,1.7911400000000128,1.8370055483041168,-0.8487049999999954,-1.6375699999999824,146.533096,0.3962952175682602,97.8558284,0.4039823851206862,85.498183,1.2014546419530054,0.00958018,0.651451704,0.0191477449826325,0,0
17,566.6666666666666,548.37555,87.21266,0.9433836,551.7337,82.327354,0.9495084,546.18555,84.04562,0.60173637,563.9243,80.102394,0.9372096,550.10004,83.929634,0.17651546,579.0136,98.909966,0.9971085,559.9042,99.82573,0.9635123,572.13367,132.0215,0.994514,547.81335,126.196106,0.8307912,537.9963,140.60577,0.9881179,532.33594,136.19041,0.8389923,582.58295,148.08452,0.9951573,570.20886,144.51642,0.9832371,533.5212,156.85913,0.98951924,525.45526,152.06606,0.96134245,539.1404,209.64188,0.95851773,532.89136,199.75438,0.91061836,1.03547254,-0.78016992,-0.09236269,0.67454238,115.853011094953,147.48325665381222,94.06327896581188,90.7124422731018,8.40789142835842,146.30047000000002,99.367848,87.21266,57.12769000000003,129.53948599999998,0.44100599225007,177.2563606632785,0.8835165770588234,-2.8375500000000784,0.552819999999997,2.8908995061918774,-0.8752500000001646,0.310149999999993,0.92857718311419,-2.8899000000000115,0.5540390000000031,2.942529731968917,-0.9274400000000468,0.1986040000000031,0.9484663949851296,-2.9732500000000077,0.6111640000000023,3.0354138099106103,-0.767180000000053,0.3512280000000061,0.843757228344792,-2.9177399999999807,0.7707290000000029,3.017818731971967,-0.6875800000000254,0.2046279999999996,0.7173833527368996,-3.1576599999999644,0.9394299999999872,3.294441591605435,-0.33495999999991,0.5232919999999837,0.6213153135598081,-2.5751999999999957,0.800941999999992,2.696880258254705,-0.8824399999999741,0.5309379999999919,1.0298521803851006,-2.786000000000058,1.2048599999999965,3.0353720726791167,-0.4192000000000462,0.827219999999997,0.9273734783786054,-2.820679999999925,0.2427500000000009,2.8311063605770053,-1.4800299999999424,0.4699400000000082,1.552846548922281,-3.106509999999957,0.6443160000000034,3.172624700142729,-1.212069999999926,0.7812460000000101,1.442032939088368,-1.7631000000000083,0.1145600000000115,1.7668179316500137,1.0457999999999856,-0.7290499999999724,1.2748378494929973,-3.179559999999924,-0.8479699999999752,3.2906921634360566,-0.8740599999998722,-1.4215699999999742,1.668784632149908,-0.4354500000000598,-0.0388900000000091,0.4371831819730178,-0.8392500000001064,0.8381899999999973,1.1861294358543566,-0.6060800000000199,0.3582600000000013,0.7040477213939585,-0.5118199999999433,1.1785899999999856,1.2849257178918585,0.7532600000000684,-0.2471900000000175,0.7927821413857099,0.2557700000000977,-1.0434100000000228,1.0743010383500975,0.6314599999999473,0.2313299999999856,0.6724992940516197,0.5895599999998922,-0.5405000000000086,0.7998257582748146,0.4487500000000182,-0.894250000000028,1.000529672223701,1.142840000000092,-1.215170000000029,1.6681490924075943,0.2620299999999815,-0.3899700000000052,0.4698258419882781,0.703899999999976,-0.743060000000014,1.0235298596523636,0.1596850000000245,1.00839000000002,146.410856,0.3406916099164581,98.175572,0.7778679000106653,86.20587,0.8488929812706029,0.0,0.661228394,0.0146333381565955,0,0
18,600.0,545.07446,89.37504,0.91709906,547.88477,84.009995,0.9218132,543.285,86.06153,0.5715425,560.6891,81.106316,0.90714586,548.8399,85.19426,0.1973432,577.9893,99.76962,0.9943293,558.8441,99.47461,0.9555511,571.20355,131.75378,0.9879865,546.573,125.38223,0.8213015,538.94684,143.30942,0.97186106,530.45685,137.24155,0.800252,583.2823,149.49103,0.9889002,570.08594,145.54852,0.9718373,534.90717,155.43932,0.97128963,527.6654,150.8996,0.9240045,539.55536,207.6885,0.8841373,533.66284,199.52277,0.7996165,1.02505155,-0.78704799,-0.07909783,0.651943,121.68779231194964,151.692567176798,91.92623817712185,90.15787387924922,9.793104175930845,147.51977499999998,99.622115,89.37504,55.61689999999999,126.582184,0.4393738344775766,-179.11719437232765,0.85800063,-3.301089999999931,2.162379999999999,3.946274502933056,-0.4635399999998526,1.609560000000002,1.674978425293851,-3.848929999999996,1.6826410000000038,4.200659814812547,-0.9590299999999844,1.1286020000000008,1.4810405177792982,-2.9005500000000666,2.015910000000005,3.532291526842088,0.0726999999999407,1.404746000000003,1.406625968236048,-3.2351999999999634,1.0039220000000029,3.3873851895058773,-0.3174599999999827,0.2331929999999999,0.3939033217034213,-1.2601400000000922,1.264626000000007,1.7852819775812026,1.897519999999872,0.3251960000000196,1.9251842999607929,-1.0243000000000393,0.8596540000000061,1.3372342688235637,1.550899999999956,0.058712000000014,1.5520109242347058,-1.0600999999999203,-0.3511199999999945,1.1167350914159666,1.725900000000138,-1.555979999999991,2.323747957589301,-0.9301200000001018,-0.267719999999997,0.9678828507625228,1.890559999999823,-0.510469999999998,1.9582637040243915,-1.240350000000035,-0.8138759999999934,1.483530338711034,1.8661599999999223,-1.4581919999999968,2.368306790613011,0.9505399999999328,2.703649999999982,2.865876761847894,2.713639999999941,2.5890899999999704,3.750630490690802,-1.8790900000000192,1.051139999999975,2.1531081086884654,1.3004699999999048,1.8991099999999503,2.3017039368692847,0.6993499999999813,1.4065099999999973,1.5707834995950165,1.134800000000041,1.4454000000000065,1.837648551818359,-0.1229199999999082,1.0320999999999856,1.0393939274403847,0.4831600000001117,0.6738399999999842,0.8291585681883091,1.385969999999929,-1.419809999999984,1.984130357864563,0.6327099999998609,-1.1726199999999665,1.332426211277662,2.210140000000024,-1.1664600000000007,2.4990693770281984,1.578680000000077,-1.3977899999999863,2.10856525308092,0.4149599999999509,-1.9533799999999812,1.996969009774535,-0.0337900000000672,-1.0591299999999535,1.0596688732806612,0.7714799999999968,-0.2316099999999892,0.8054964819910699,0.5094500000000153,0.158360000000016,0.5334952596790534,1.219304999999963,1.0596199999999385,146.630229,0.6027471642964948,98.64741,0.8010493886908697,87.07327599999999,1.3964466369792192,-0.0225993799999999,0.661670556,0.0142268816117192,0,0
19,633.3333333333333,542.1437,91.7327,0.9335649,545.2098,86.75696,0.9334842,540.6525,88.56453,0.5822173,557.00146,83.03897,0.91865003,545.4068,86.65074,0.20367052,572.47974,98.79653,0.9960681,554.5139,99.982925,0.9689077,566.9772,132.22612,0.9918812,540.98474,125.19673,0.85740185,533.59216,144.3782,0.9843535,526.00616,138.11992,0.8620735,580.95935,147.15433,0.9947068,569.1978,144.60603,0.98514,533.57794,156.1326,0.99069387,526.35614,154.79233,0.9725998,540.6645,204.26868,0.96514934,536.9949,199.81439,0.9361617,1.01635084,-0.77108103,-0.07074589,0.65832978,119.34851488991002,159.00390859604644,92.35483685479576,90.07948295823358,13.988846114995422,145.88018,99.3897275,91.7327,54.95318999999995,121.22970999999998,0.4532980368154136,176.22189245949113,0.8868661358823529,-2.930760000000077,2.357659999999996,3.761371405910407,0.3703299999998535,0.1952799999999968,0.4186628563652264,-2.6749700000000303,2.746965000000003,3.834224981939007,1.1739599999999657,1.0643239999999992,1.584603312686149,-2.6324999999999363,2.503,3.6325012388159847,0.2680500000001302,0.4870899999999949,0.5559743434728485,-3.687640000000101,1.9326539999999996,4.163392877607967,-0.4524400000001378,0.9287319999999966,1.0330755448775846,-3.433099999999968,1.456479999999999,3.729277356325187,-2.1729599999998754,0.1918539999999922,2.1814131013898894,-5.509559999999965,-0.9730899999999992,5.594832932420736,-4.485259999999926,-1.8327440000000053,4.845256219967666,-4.330199999999991,0.5083149999999961,4.35993304756219,-3.2701000000000704,0.8594349999999906,3.38115106572088,-4.226349999999911,0.4723400000000026,4.252662624532923,-3.296229999999809,0.7400599999999997,3.3782866983870306,-5.588259999999991,-0.1855000000000046,5.591337950580336,-4.347909999999956,0.6283759999999887,4.3930829454354265,-5.354679999999917,1.0687800000000038,5.460301144698808,-6.305219999999849,-1.634869999999978,6.513723909201097,-4.450690000000009,0.8783700000000181,4.536537813465254,-2.571599999999989,-0.1727699999999572,2.577397143030141,-2.322949999999992,-2.3367000000000075,3.294884458141134,-3.022299999999973,-3.743210000000005,4.811020514828416,-0.8881400000000212,-0.9424899999999924,1.2950212583969514,-0.765220000000113,-1.9745899999999776,2.117679701111593,-1.3292299999999386,0.6932799999999872,1.499162950215826,-2.715199999999868,2.1130899999999717,3.4405610571677347,-1.3092599999999948,3.89273,4.107007255959013,-3.5194000000000187,5.059190000000001,6.162919747660206,1.1091400000000249,-3.419820000000016,3.595185721489248,0.694180000000074,-1.4664400000000342,1.622446346108309,3.332060000000069,0.2916199999999946,3.3447968649830533,2.5605800000000727,0.5232299999999839,2.6134918345578115,-1.6395949999999857,-2.8588999999999487,146.56614,0.6728100553369126,98.9571525,0.7049433994545361,88.279482,2.2557990413644218,0.0063867799999999,0.664863948,0.0099624293483525,0,0
20,666.6666666666666,539.0244,91.9918,0.9048784,541.365,87.25214,0.9182622,537.84875,89.28759,0.48637596,553.3469,83.88986,0.9260141,544.0564,88.0942,0.16588622,570.7574,99.79885,0.9966641,552.9453,100.8811,0.96303105,563.9403,130.96951,0.99375916,539.7159,125.338165,0.8395636,531.9801,144.92574,0.9840171,525.5173,137.69481,0.8262646,579.5471,148.38373,0.99602246,568.2692,145.60246,0.9873311,533.6957,158.59822,0.99031067,527.5263,155.6584,0.96776384,541.38806,206.11955,0.95774937,537.12537,198.91605,0.9141854,1.04748947,-0.78483718,-0.04175972,0.69247449,125.92619301000224,159.44213526633516,93.36410757706186,91.35287503665124,14.49019974919927,146.993095,100.339975,91.9918,54.02980000000002,122.22969,0.4420349880455806,176.52302531482945,0.8716517252941176,-3.119299999999953,0.2591000000000036,3.1300423799047365,-0.1885399999998753,-2.098559999999992,2.1070124359386018,-3.844799999999964,0.4951799999999906,3.876556496737757,-1.1698299999999335,-2.2517850000000124,2.5375259437343494,-2.8037500000000364,0.7230599999999896,2.895484385400859,-0.1712500000001,-1.7799400000000103,1.7881590997727443,-3.6545599999999463,0.8508899999999926,3.752308967249312,0.0330800000001545,-1.0817640000000068,1.0822696697662857,-1.3503999999999223,1.4434600000000015,1.9766529618523825,2.0827000000000453,-0.0130199999999973,2.082740696870397,-1.722340000000031,1.0023199999999974,1.992762017402003,3.787219999999934,1.9754099999999968,4.271449402310589,-1.5686000000000604,0.898175000000009,1.8075464836692876,2.7615999999999303,0.389860000000013,2.788982857530613,-3.03690000000006,-1.256609999999995,3.2866138048301856,1.1894499999998516,-1.7289499999999975,2.0985850959633825,-1.268839999999955,0.1414350000000013,1.276698400102736,4.3194200000000365,0.3269350000000059,4.331775113117637,-1.6120600000000422,0.5475399999999979,1.702509176245501,3.7426199999998735,-0.5212400000000059,3.778742595361461,-0.4888600000000451,-0.4251100000000178,0.6478445891570441,3.961829999999964,-1.303480000000036,4.170750179440121,-1.4122499999999718,1.2294000000000267,1.8723980406152925,0.9107000000000198,3.5661000000000342,3.6805493747537583,-0.928600000000074,0.9964300000000036,1.3620465134862851,-0.0404600000000527,1.938919999999996,1.9393420992697468,0.1177599999999756,2.4656200000000013,2.468430554421169,1.4469899999999143,1.772340000000014,2.2880054929347966,1.17016000000001,0.8660700000000077,1.4557993235676532,2.4794200000000046,-3.0266599999999926,3.912568758756832,0.7235600000000204,1.850870000000015,1.987274221263911,-0.3855800000000045,5.27069000000003,5.284774830823005,0.1304699999999456,-0.8983399999999904,0.907764934605853,-3.201590000000124,-1.189959999999985,3.4155795013000003,1.1129150000000152,2.752510000000001,146.566861,0.6733788370170724,99.4169225,0.7078012092014448,89.394408,2.472464169633348,0.03414471,0.6703664060000001,0.0158740917059299,0,0
21,700.0,536.1235,94.41342,0.9182034,538.59595,89.55066,0.9319031,534.4344,91.76055,0.5349501,550.7156,85.21205,0.9332799,539.6749,89.88589,0.18072121,568.211,99.65853,0.9969608,549.3757,101.92709,0.96469617,562.94867,130.85661,0.993923,538.3862,127.54341,0.83459014,531.3178,145.43417,0.98397684,524.4125,140.3163,0.8185688,578.51074,147.33315,0.9962076,566.5418,145.17903,0.98763484,532.93854,158.52722,0.9911816,526.5387,156.32205,0.9698915,541.49445,205.08926,0.96271473,538.48395,198.62137,0.92264175,1.07184775,-0.82045577,-0.04421618,0.68829852,124.31755439159213,155.64890396470676,93.38843634268623,89.79580458363716,16.807795773876975,146.25609,100.79281,94.41342,54.09824000000003,119.87721,0.4512804356117364,173.13226626500474,0.8777673811764707,-2.9008999999999787,2.4216200000000043,3.778817835567084,0.2183999999999741,2.1625200000000007,2.1735204876881173,-2.769049999999993,2.2985199999999963,3.5987264543029585,1.075749999999971,1.8033400000000055,2.099826949560358,-3.414350000000013,2.4729600000000005,4.21584120717326,-0.6105999999999767,1.749900000000011,1.8533705430916965,-2.63130000000001,1.3221900000000062,2.9448134212713835,1.0232599999999366,0.4713000000000136,1.1265809858149936,-4.381500000000074,1.791690000000003,4.733676721756636,-3.031100000000152,0.3482300000000009,3.0510377485211357,-2.5463999999999487,-0.1403200000000026,2.550263253548492,-0.8240599999999176,-1.14264,1.4087941841162832,-3.569599999999923,1.0459900000000033,3.719696122010433,-2.0009999999998627,0.1478149999999942,2.0064521609608463,-0.9916299999999864,-0.1129000000000246,0.9980363054017518,2.045270000000073,1.1437099999999705,2.343331375840863,-1.3297000000000023,2.205244999999991,2.5751131237335896,-0.0608600000000478,2.063809999999989,2.0647071597928752,-0.6622999999999593,0.5084300000000042,0.8349505104495417,0.949760000000083,-0.0391099999999937,0.9505649108294272,-1.1047999999999547,2.6214900000000227,2.8447834469604216,-0.6159399999999096,3.0466000000000406,3.108239637415388,-1.036359999999945,-1.050580000000025,1.4757236821302078,0.3758900000000267,-2.279980000000052,2.3107579043465925,-1.7273999999999887,-0.4234299999999962,1.7785397732128336,-0.7987999999999147,-1.41986,1.6291359242248216,-0.757159999999999,-0.0709999999999979,0.7604816010923592,-0.8749199999999746,-2.536619999999999,2.6832677896177177,-0.9876000000000432,0.6636499999999899,1.1898676743655454,-2.157760000000053,-0.2024200000000178,2.1672337377404025,0.106390000000033,-1.030290000000008,1.0357684665020574,-0.6171699999999873,-2.8811600000000226,2.946520278990137,1.3585800000000745,-0.2946799999999996,1.3901711832721186,1.2281100000001288,0.6036599999999908,1.368451521867072,-0.7370050000000106,-1.8499200000000255,146.589922,0.6569122925912309,99.9024951,0.6347126156163708,90.945124,2.745056239256465,-0.00417597,0.673117634,0.0178481289360642,0,0
22,733.3333333333333,533.5434,95.32552,0.926774,535.8566,90.36463,0.93692476,531.39056,92.80767,0.58188695,547.61,85.696976,0.9341974,535.9833,90.96356,0.21085002,565.8624,100.074524,0.997036,546.2755,102.55223,0.9695114,562.15955,131.13206,0.99350584,535.55133,127.357895,0.8493397,530.6475,147.11774,0.98267317,521.6845,141.87819,0.82771355,578.3762,146.68326,0.99621946,566.2024,144.85397,0.9884979,533.3325,160.14513,0.991148,528.76495,158.17352,0.9717372,543.23444,205.44446,0.96295285,542.9941,199.02744,0.9263137,1.0371366,-0.79883897,-0.06411346,0.65832978,123.69715001806613,159.69885592340168,94.30914029875746,90.3817258558532,20.04547521691153,145.768615,101.313377,95.32552,56.69170000000008,119.747484,0.4734270619545796,172.790483969364,0.8851342294117647,-2.580100000000016,0.9120999999999952,2.736574943245676,0.3207999999999629,-1.509520000000009,1.5432314377305834,-2.7393500000000586,0.8139700000000119,2.8577238465954578,0.0296999999999343,-1.4845499999999845,1.4848470603061954,-3.043839999999932,1.0471200000000067,3.218916314538109,0.3705100000000811,-1.4258399999999938,1.47319291530337,-3.1055999999999813,0.4849260000000015,3.143231551361733,-0.4742999999999711,-0.8372640000000047,0.962274127105151,-3.691599999999994,1.0776699999999977,3.845683708900142,0.6899000000000797,-0.714020000000005,0.9928678514284353,-2.348600000000033,0.4159939999999977,2.385156801561724,0.1977999999999156,0.5563140000000004,0.5904321354702563,-3.100200000000086,0.6251399999999876,3.162600205463934,0.4693999999998368,-0.4208500000000157,0.6304372153512672,-0.7891200000000254,0.2754500000000064,0.835812824082069,0.2025099999999611,0.388350000000031,0.4379794773730938,-2.8348700000000235,-0.1855149999999952,2.8409336022028278,-1.505170000000021,-2.390759999999986,2.8251141758343143,-0.6702999999999975,1.6835700000000031,1.812101000192872,-0.0080000000000381,1.175139999999999,1.1751672304825378,-2.728000000000065,1.561889999999977,3.143482841069804,-1.6232000000001108,-1.0596000000000458,1.9384350388910268,-0.1345400000000154,-0.6498899999999992,0.6636701166242179,0.9018199999999296,0.4006900000000257,0.9868291587199346,-0.339399999999955,-0.3250600000000077,0.4699535760050928,1.3880000000000337,0.0983699999999885,1.391481461213225,0.3939599999999927,1.6179099999999949,1.6651838486185175,1.1511199999999917,1.6889099999999928,2.043891935132569,2.22625000000005,1.8514700000000064,2.895536258346672,3.213850000000093,1.1878200000000163,3.426331591498499,1.7399899999999209,0.3551999999999964,1.7758750632011593,1.6335999999998876,1.3854900000000043,2.1420157562678304,4.510149999999953,0.4060699999999997,4.528393298665607,3.1515699999998787,0.7007499999999993,3.228535895324572,-0.4874749999999892,0.2495300000000213,146.483551,0.7517186675162852,100.2916009,0.7998693665110636,92.567696,2.3576586455806123,-0.02996874,0.669875114,0.0189624884382449,0,0
23,766.6666666666667,529.2267,95.89581,0.9083169,531.4726,91.809525,0.94352937,527.52747,92.720604,0.31960455,542.5914,88.93508,0.93659306,531.03326,90.613075,0.028914904,562.52277,101.178566,0.98941886,541.0661,100.29164,0.95031345,562.1657,135.07007,0.9906735,536.20734,129.36914,0.7558204,535.6498,150.72334,0.9850558,520.0978,145.92372,0.8194001,581.4455,144.36957,0.98075956,566.7418,142.15877,0.95668125,530.82874,157.57062,0.95910496,526.17017,154.81638,0.85417384,542.38074,203.34027,0.86426455,545.6645,197.90436,0.68896,1.01706011,-0.79711945,-0.01228227,0.63155443,121.15847809698585,145.26689607508507,90.45206732154112,82.9835097239725,27.669319592230707,143.26417,100.735103,95.89581,61.34770000000003,114.40519,0.5362317868950547,-177.63298762175978,0.8195050031764706,-4.316699999999969,0.57029,4.354208260304016,-1.736599999999953,-0.3418099999999953,1.7699191043942757,-4.383999999999901,1.4448949999999885,4.615969839700439,-1.6446499999998423,0.6309249999999764,1.7615163859937415,-3.863090000000057,-0.0870660000000072,3.864071018557557,-0.8192500000001246,-1.134186000000014,1.399124170721182,-5.018599999999992,3.2381039999999928,5.97257594969004,-1.913000000000011,2.7531779999999912,3.352545018293415,-4.9500399999999445,-0.3504850000000061,4.962432441537563,-1.2584399999999505,-1.4281550000000038,1.9034962405071585,-3.339629999999943,1.1040420000000069,3.517390691217516,-0.9910299999999096,0.6880480000000091,1.2064619808364596,-5.20939999999996,-2.260589999999993,5.678742423116192,-2.1091999999998734,-2.885729999999981,3.5743757878683318,0.0061500000000478,3.938009999999992,3.9380148022322015,0.7952700000000732,3.662559999999985,3.747906098943783,0.6560100000000375,2.011244999999988,2.1155272558218203,3.490880000000061,2.1967599999999834,4.124560300444201,5.002299999999991,3.6056000000000097,6.166308186427271,5.6725999999999885,1.9220300000000063,5.989373095817283,-1.5866999999999507,4.045530000000014,4.345564390375541,1.1413000000001148,2.4836400000000367,2.7333191068004563,3.0692999999999984,-2.31368999999998,3.8436654258793,3.203840000000014,-1.6637999999999806,3.610099885820339,0.5394000000000005,-2.6952,2.7486461030842078,0.8787999999999556,-2.370139999999992,2.5278158674238687,-2.503759999999943,-2.574510000000004,3.591227628221265,-2.897719999999936,-4.192419999999999,5.096387608375133,-2.5947800000000143,-3.357139999999987,4.243026305362717,-4.821030000000064,-5.208609999999993,7.09731980348924,-0.8537000000000035,-2.1041899999999885,2.270775032032006,-2.593689999999924,-2.459389999999985,3.5743288864064446,2.6703999999999724,-1.1230800000000158,2.8969544087541124,-1.839749999999981,-1.5291500000000156,2.392275022860034,-2.504445000000004,-2.016970000000015,145.63243000000003,1.4079189325161603,100.5141985,0.7176172898397877,93.87185,1.9113751162713075,-0.0267753499999999,0.6657974,0.0250103939566742,0,0
24,800.0,526.26483,97.707214,0.91880983,528.401,93.47838,0.94871044,524.32104,94.48532,0.34755453,539.376,89.950874,0.940431,527.77466,91.91645,0.032896295,559.71405,101.62264,0.9911096,538.3911,101.349106,0.9574728,560.4025,135.8391,0.991029,534.87524,130.9592,0.76166546,532.8893,153.04065,0.98496073,518.7341,147.68704,0.81912065,580.1953,144.3014,0.9840835,565.59467,142.5807,0.96387976,531.7314,158.02116,0.9676164,527.1653,155.81058,0.8825906,543.2042,203.20432,0.8896804,546.16296,198.38986,0.7381263,1.06104562,-0.85042451,-0.00171952,0.63450217,120.86140756729426,142.794115038373,91.55910578673183,84.95171784016992,29.608831158982944,143.44105000000002,101.485873,97.707214,61.46119999999996,113.253446,0.5426872349412902,-179.26504146234777,0.8305727820588236,-2.96187000000009,1.811403999999996,3.4718666950383503,1.354829999999879,1.241113999999996,1.837369938225741,-3.071600000000103,1.6688550000000075,3.495683562770758,1.3123999999997975,0.2239600000000194,1.3313721649484331,-3.206429999999955,1.764716000000007,3.659974850399349,0.6566600000001017,1.8517820000000145,1.9647643449340653,-3.215400000000045,1.0157939999999996,3.372037160298844,1.803199999999947,-2.222309999999993,2.8618511449933552,-3.2586000000000013,1.3033750000000026,3.509595468230636,1.6914399999999432,1.6538600000000088,2.365633566975206,-2.808719999999994,0.4440740000000005,2.8436085799343003,0.5309099999999489,-0.6599680000000063,0.8470083760648144,-2.6749999999999545,1.0574660000000051,2.8764317028491684,2.534400000000005,3.3180559999999986,4.175245978279126,-1.7631999999999834,0.769030000000015,1.9236115462587464,-1.7693500000000313,-3.1689799999999764,3.6294674076095466,-1.3321000000000822,1.5900600000000225,2.0743146370790257,-1.98811000000012,-0.4211849999999657,2.0322347739189603,-2.760499999999979,2.317309999999992,3.604203918495712,-7.76279999999997,-1.2882900000000177,7.868974200243611,-1.3636999999999944,1.7633199999999931,2.2291198066501408,0.2229999999999563,-2.2822100000000205,2.2930790400899994,-1.2502000000000637,-0.0681700000000091,1.2520571827597011,-4.319500000000062,2.2455199999999707,4.868309801193881,-1.147130000000061,0.4219300000000032,1.2222651765472756,-1.6865300000000616,3.117130000000003,3.5441335863367547,0.9026599999999688,0.4505400000000179,1.0088515089942425,3.406419999999912,3.0250500000000216,4.55572439013814,0.9951300000000174,0.994199999999978,1.406668886732052,3.589910000000032,4.351339999999965,5.641064935249365,0.8234600000000682,-0.1359500000000082,0.834606957855082,1.6771600000000717,1.96823999999998,2.585891405917921,0.4984600000000228,0.4855000000000018,0.6958251372291925,-2.1719399999999496,1.6085800000000177,2.7027491522521725,0.1768800000000112,2.6813250000000157,145.14460400000002,1.6940954882082166,100.9334276,0.463909854223614,95.0667528,2.098124765306026,0.0029477399999999,0.661031878,0.0287756594020809,0,0
25,833.3333333333334,523.89087,101.858864,0.9278879,525.774,97.321655,0.93278354,521.9582,99.538826,0.5369791,535.8709,90.99166,0.9291059,526.43097,96.15461,0.17608842,557.2787,101.94649,0.9972083,537.2592,105.860176,0.9698401,559.94824,134.66609,0.99454665,526.95715,131.3393,0.8586348,528.8162,154.86147,0.98820704,515.9167,149.42087,0.8622524,577.08405,145.18652,0.99714977,565.11176,144.41573,0.99088925,531.68396,162.5102,0.99525994,528.1641,161.9749,0.9839283,544.3685,204.43698,0.98375803,545.6447,199.055,0.96717906,1.06104562,-0.85042451,-0.00171952,0.63450217,118.3071679943081,170.6072293995457,94.0530783354472,90.17863839095716,30.22706851692996,144.801125,103.903333,101.858864,61.167350000000056,113.44532,0.5391791345894297,168.9385431586403,0.8877469705882353,-2.373960000000011,4.151650000000004,4.782455833993669,0.587910000000079,2.340246000000008,2.412962807134857,-2.6269999999999527,3.8432750000000055,4.655307908788075,0.4446000000001504,2.174419999999998,2.219407915728905,-2.3628400000000056,5.053505999999999,5.5786141431036445,0.8435899999999492,3.288789999999992,3.3952590110623166,-3.5050999999999704,1.040785999999997,3.656359050721877,-0.2896999999999252,0.0249919999999974,0.2907760135636303,-1.3436900000000378,4.238160000000008,4.446066014096076,1.9149099999999637,2.934785000000005,3.5042607357793583,-2.435350000000085,0.3238499999999931,2.456788237720217,0.3733699999999089,-0.1202240000000074,0.3922486036634595,-1.131900000000087,4.5110699999999895,4.650908530050887,1.5430999999998676,3.4536039999999844,3.7826628449830793,-0.4542599999999765,-1.173010000000005,1.257896898676513,1.3089400000000069,-1.94204000000002,2.34197422812466,-7.9180900000000065,0.3800999999999987,7.927207910613932,-6.585989999999924,-1.2099600000000237,6.69621292087543,-4.073100000000068,1.8208199999999977,4.461561283048855,-1.3126000000000886,-0.4964899999999943,1.4033606379331818,-2.817400000000021,1.7338300000000118,3.308157981248803,-1.4537000000000262,-0.0294899999999813,1.4539990887548984,-3.1112499999999272,0.8851200000000006,3.234704619729528,-1.861049999999864,0.9532900000000096,2.0909971130060203,-0.4829099999999471,1.835029999999989,1.8975081472815627,0.6642200000001139,1.4130999999999858,1.5614223702765728,-0.0474400000000514,4.489039999999989,4.489290665038287,-0.9501000000000204,4.038499999999971,4.148755507378063,0.9987999999999602,6.164320000000004,6.244713164141325,0.0036699999999427,5.170120000000026,5.170121302571175,1.1643000000000256,1.23266000000001,1.695595814337864,0.3408399999999574,1.368610000000018,1.4104131443304195,-0.5182600000000548,0.6651400000000081,0.843210915014783,-1.0167200000000776,0.1796400000000062,1.0324679597935038,1.3600749999999948,1.1831949999999836,144.70621,1.343498273431136,101.6460992,1.302833206962106,97.0401656,2.950176247196134,0.0,0.649437414,0.0242651183597182,0,0
26,866.6666666666667,520.9325,102.64649,0.9466927,523.27496,98.09128,0.9463328,518.18646,100.31978,0.6512274,534.0845,92.04004,0.92850983,521.07043,97.20859,0.23626074,553.3906,103.577644,0.9969284,533.53046,107.06047,0.9764266,553.2268,136.76584,0.99283797,523.98663,132.43532,0.8808171,526.01056,158.63481,0.9850772,513.2504,151.94016,0.8766985,576.2,143.50662,0.99662626,564.1212,143.01724,0.99098927,531.4351,163.1859,0.994517,528.73267,163.0014,0.9843999,543.26855,204.32751,0.9820893,546.45386,199.7398,0.9676943,1.10498434,-0.89906231,0.21592234,0.60502472,129.06558018768382,171.78185639645605,97.68428665299233,93.70286051359984,35.13371987777447,143.26193,105.319057,102.64649,62.94960000000003,112.28746999999998,0.5606110765465547,170.05331714184845,0.9020073688235294,-2.9583699999999453,0.787626000000003,3.06142250804682,-0.5844099999999344,-3.364024000000001,3.4144095420256675,-2.4990400000000363,0.7696249999999907,2.614865878439116,0.1279599999999163,-3.073650000000015,3.076312416530556,-3.7717400000000234,0.7809539999999942,3.851741395488041,-1.408900000000017,-4.272552000000005,4.498855388063067,-1.7863999999999578,1.0483800000000087,2.0713101130443667,1.7187000000000126,0.0075940000000116,1.71871677679484,-5.360540000000015,1.0539799999999957,5.463173339003637,-4.016849999999977,-3.184180000000012,5.125825415959842,-3.888100000000009,1.631154000000009,4.21639478485069,-1.4527499999999236,1.3073040000000162,1.954360844602608,-3.728740000000016,1.2002939999999995,3.9171683234239656,-2.596839999999929,-3.31077599999999,4.207709080696474,-6.72144000000003,2.09975,7.041782852097926,-6.267180000000053,3.272760000000005,7.070254816482974,-2.970519999999965,1.0960199999999816,3.166267346703331,4.9475700000000415,0.7159199999999828,4.999098953941639,-2.8056399999999257,3.7733399999999904,4.702096401095953,1.267460000000142,1.9525199999999927,2.327829289703249,-2.6662999999999784,2.519289999999984,3.668239059017256,0.1511000000000422,0.7854599999999721,0.7998616265329703,-0.884050000000002,-1.6799000000000035,1.8983172581262635,2.227199999999925,-2.565020000000004,3.3970203768007763,-0.9905599999999596,-1.3984900000000096,1.7137629339263778,-0.5076500000000124,-3.2335199999999986,3.2731269625390342,-0.2488599999999223,0.6757000000000062,0.7200706837526228,-0.2014199999998709,-3.8133399999999824,3.81865578076891,0.5685700000000224,1.0264999999999986,1.173445394937499,-0.4302299999999377,-5.137820000000005,5.155801800428328,-1.0999500000000353,-0.1094700000000159,1.1053839529322294,-2.264250000000061,-1.3421300000000258,2.6321362045685146,0.8091600000000199,0.6847999999999956,1.0600428979999,1.3274200000000749,0.0196599999999875,1.327565581054359,-1.5391950000000063,-2.8992700000000013,144.107378,1.1303504241749514,102.5513486,1.9656189624005835,98.6867796,3.3833619398468846,-0.02947745,0.632782654,0.018911508080736,0,0
27,900.0,515.4047,102.56177,0.913929,517.52655,98.469734,0.92535186,513.74756,100.01376,0.54133517,528.9546,93.627396,0.9235135,518.44446,96.55496,0.1946507,547.9492,106.059105,0.9966426,531.2956,105.89975,0.96550584,546.4181,139.98447,0.9926973,522.62646,132.9111,0.84402657,523.6884,161.30804,0.97987235,514.81604,153.09601,0.8200356,574.3723,142.17531,0.9960665,563.6939,140.52602,0.98843455,530.29486,163.90071,0.9920513,528.0993,161.90459,0.9753906,543.541,205.59393,0.9694178,546.3219,199.49344,0.9408125,1.17090969,-0.99904,0.14296565,0.59372503,135.75589143389934,176.64011500906767,98.61299352739438,95.1260416363227,39.7430610041644,141.350665,105.9794275,102.56177,60.62473999999997,111.966534,0.5414541050145025,-179.451764765891,0.8799843376470589,-5.5277999999999565,-0.0847200000000043,5.528449178422418,-2.569430000000011,-0.8723460000000074,2.71347711776165,-5.748409999999922,0.3784540000000049,5.760854533679453,-3.2493699999998853,-0.3911709999999857,3.272830601809425,-4.43889999999999,-0.3060199999999895,4.449436082291766,-0.6671599999999671,-1.0869739999999837,1.2753881535736171,-5.1299000000000206,1.5873559999999998,5.369876449299016,-3.3435000000000628,0.538975999999991,3.386663162845754,-2.6259699999999384,-0.6536300000000068,2.706095086614601,2.734570000000076,-1.7076100000000023,3.223942461800524,-5.4413999999999305,2.481460999999996,5.980508561528879,-1.553299999999922,0.8503069999999866,1.7708085396927402,-2.2348599999999124,-1.1607199999999978,2.5183069983621147,1.4938800000001038,-2.3610139999999973,2.7939335286646134,-6.808700000000044,3.2186299999999903,7.531133697319451,-0.0872600000000147,1.11887999999999,1.1222774888591416,-1.3601700000000392,0.4757800000000145,1.4409819698039668,1.6103499999999258,-0.620239999999967,1.7256664741773595,-2.322160000000053,2.673230000000018,3.54098654311201,0.4834799999998722,-1.1001099999999724,1.2016633981693108,1.5656400000000303,1.1558500000000151,1.9460775503818264,4.231940000000009,-1.363439999999969,4.446153933142665,-1.8277000000000496,-1.331310000000002,2.2611664260067608,-0.9436500000000478,0.3485900000000015,1.0059772912944365,-0.4273000000000593,-2.4912199999999984,2.5276001223294884,0.5632599999999002,-1.0927299999999889,1.229357832569453,-1.1402400000000623,0.71481,1.345771374974272,-0.8913800000001402,0.0391099999999937,0.8922375785071202,-0.6333700000000135,-1.0968099999999763,1.2665503278590888,-1.201940000000036,-2.123309999999975,2.439898587994997,0.2724500000000489,1.2664200000000108,1.2953951593625994,1.3724000000000842,1.3758900000000267,1.94333606257392,-0.1319599999999354,-0.2463600000000099,0.2794757434912515,-0.9411199999999552,-0.9311600000000056,1.3239206169555358,-1.9112650000000144,-0.3720700000000079,143.223788,1.2295192230532823,103.4845587,2.3086455677465647,100.1340296,3.12383473286514,-0.0112996899999999,0.6198617040000001,0.0191616032256176,0,0
28,933.3333333333334,512.947,104.269424,0.89439154,514.68536,100.054276,0.9034345,511.28622,101.80244,0.49238738,525.7545,95.06095,0.90712935,516.02344,98.48923,0.18299435,545.62036,107.431015,0.99613225,528.48834,107.39241,0.96471524,543.1701,143.107,0.99219054,519.10205,136.1875,0.85646975,520.68286,163.79474,0.9789873,513.3686,155.9686,0.83298486,573.5102,141.86577,0.9961092,562.24835,140.44028,0.9892786,530.3564,163.71617,0.992307,527.25635,161.91539,0.97765476,544.15094,205.12076,0.970574,544.6941,199.07007,0.9452185,1.17159796,-1.00911147,0.18816441,0.56473887,136.54229495774672,178.1096232999373,98.42857441489257,96.39605539586084,42.41377052027204,141.153025,107.4117125,104.269424,62.22398000000004,110.05980999999998,0.5653651358714404,-179.8708908917749,0.874879948235294,-2.4577000000000453,1.7076540000000051,2.992719745267879,3.0700999999999112,1.7923740000000097,3.555013159733096,-2.841190000000097,1.584541999999999,3.253172907465041,2.9072199999998247,1.206087999999994,3.1474714283282963,-2.461340000000007,1.7886799999999994,3.042625632245944,1.9775599999999829,2.094699999999989,2.8807137385724197,-3.2001000000000204,1.4335540000000009,3.506524929458813,1.9298,-0.1538019999999988,1.935919186124256,-2.4210199999999986,1.934270000000012,3.0988285324135054,0.2049499999999398,2.587900000000019,2.596002872205667,-2.328840000000014,1.3719099999999995,2.702893411457445,3.1125599999999167,-1.1095509999999962,3.304411169210102,-2.807260000000042,1.4926600000000008,3.179424882459128,-0.5724000000001297,2.6533799999999985,2.714418387868779,-3.2479999999999336,3.122530000000012,4.5055185718072055,3.5607000000001108,-0.0960999999999785,3.5619965889934235,-3.524409999999989,3.2763999999999958,4.812095469553767,-2.1642399999999498,2.800619999999981,3.539407741699121,-3.0055399999999963,2.486699999999985,3.900890613898306,-0.6833799999999428,-0.1865300000000331,0.7083796053670195,-1.4474400000000287,2.8725900000000024,3.216652897298696,-3.013080000000059,1.7167399999999873,3.467830346773082,-0.8620999999999412,-0.3095399999999983,0.9159865837444878,0.9656000000001086,1.0217700000000036,1.4058439788611738,-1.4455500000000256,-0.085739999999987,1.4480905186141064,-1.0182499999999663,2.4054800000000114,2.612119272334245,0.0615400000000363,-0.1845399999999983,0.1945306741879127,1.2017800000000989,-0.8993499999999983,1.501034840002135,-0.8429499999999734,0.010799999999989,0.8430191827591795,-0.2095799999999599,1.1076099999999656,1.1272638060808602,0.6099399999999378,-0.4731700000000103,0.7719563799204809,0.3374899999998888,-1.739590000000021,1.7720250754997793,-1.6277999999999793,-0.4233700000000056,1.6819557059863193,-1.4958400000000438,-0.1770099999999956,1.5062768157613426,-0.1976399999999785,1.713625000000036,142.80155900000003,1.5363847283045795,104.8198806,2.250943406074278,101.8087524,2.4570751379713167,-0.0289861599999999,0.606498592,0.0294856377239911,0,0
29,966.6666666666666,508.76257,105.456406,0.91819334,510.64157,101.16903,0.92359227,506.6225,103.07593,0.5821199,521.60016,96.85733,0.9148518,510.2377,100.590324,0.22688818,540.5374,109.32421,0.9965082,524.4727,110.29545,0.97054344,540.18756,143.49585,0.99197716,517.36365,138.36246,0.8690913,519.67664,165.81854,0.9781179,512.3753,158.30463,0.8427702,571.5751,140.43991,0.9963581,560.55334,139.87837,0.99043816,530.6212,163.54137,0.9930609,526.6505,163.63902,0.9808708,545.3313,204.6767,0.9738694,544.1319,201.19025,0.95271784,1.10303758,-0.92608331,0.28077274,0.52936592,138.00860318966227,179.83036448580987,99.74949001559668,100.06090529531382,47.87531623732566,140.15913999999998,109.80983,105.456406,64.95260000000002,107.81937,0.6024205056807466,176.54022171310757,0.8883511111764706,-4.18443000000002,1.1869820000000004,4.3495264906911615,-1.726729999999975,-0.5206720000000047,1.8035231699326515,-4.0437899999999445,1.114754000000005,4.194629190359448,-1.2025999999998476,-0.4697879999999941,1.2911032200965296,-4.663720000000012,1.2734899999999951,4.834465949668081,-2.202380000000005,-0.515190000000004,2.2618351842033118,-4.154340000000047,1.7963799999999992,4.526093452415713,-0.9542400000000272,0.3628259999999983,1.020890142902776,-5.7857400000000325,2.101093999999989,6.155435268479097,-3.364720000000034,0.166823999999977,3.368853057848653,-5.082959999999957,1.8931949999999915,5.424082380423857,-2.7541199999999435,0.5212849999999918,2.8030189128196548,-4.015639999999962,2.9030400000000043,4.9550989749146,-1.20837999999992,1.4103800000000035,1.857243648205538,-2.982540000000085,0.3888499999999908,3.0077814372225427,0.2654599999998481,-2.733680000000021,2.7465387952839904,-1.738399999999956,2.1749599999999987,2.7843285656689014,1.786010000000033,-1.1014399999999966,2.09833309884301,-1.0062199999999848,2.0238000000000227,2.2601427230155315,1.9993200000000115,-0.4628999999999621,2.0522078043901915,-0.9932999999999764,2.336029999999994,2.5384406731101525,0.4541400000000521,-0.5365600000000086,0.7029507615758422,-1.935100000000034,-1.42586,2.4036823312576336,-1.0730000000000928,-1.1163200000000018,1.548386044370138,-1.695009999999911,-0.5619100000000117,1.7857216323379497,-0.2494599999998854,-0.4761700000000246,0.5375575880777484,0.2648000000000365,-0.1748000000000047,0.3172917899978205,0.2032600000000002,0.0097399999999936,0.2034932313370643,-0.6058500000000322,1.7236299999999858,1.8270070058431604,0.2370999999999412,1.7128299999999967,1.7291625195163007,1.1803600000000642,-0.444059999999979,1.2611260893345015,0.5704200000001265,0.0291100000000312,0.5711622961121875,-0.5622000000000753,2.120180000000005,2.193452090290578,1.065599999999904,2.5435500000000104,2.757743636109029,-0.9938850000000344,-0.7962450000000558,142.14517700000002,1.8615286001247848,106.484672,2.246848970198577,103.3585908,1.4681312222425142,-0.0353729499999999,0.585471342,0.0401002924684061,0,0
30,1000.0,506.1353,110.95747,0.90823966,506.99493,106.22021,0.9177102,504.05008,108.777176,0.57391536,517.24805,99.65232,0.9101391,508.768,105.00304,0.23515967,538.1754,109.93027,0.9949563,524.42535,111.22251,0.9656145,539.4039,144.15808,0.9884983,517.3343,137.65962,0.8543867,520.20654,170.49718,0.96957594,510.4164,159.17151,0.8225256,571.57477,140.40456,0.99307775,562.6369,139.99536,0.9838806,527.94006,162.41818,0.985329,527.116,163.87527,0.9635568,544.1699,203.76035,0.94272614,543.4999,201.99895,0.90255004,1.04885652,-0.8860431,0.26554272,0.49448427,141.85784124642524,177.18764332390282,95.3371931956672,100.65613140488844,50.39741949904555,140.19996,110.57639,110.95747,67.52468999999996,104.10803,0.6486021236920712,174.63106947275773,0.8771671564705883,-2.62727000000001,5.501064,6.0962490750457405,1.5571600000000103,4.314081999999999,4.586507469559384,-3.646639999999991,5.051179999999988,6.229960086710012,0.3971499999999537,3.936425999999983,3.956409707800221,-2.5724200000000224,5.701245999999998,6.254722264730552,2.0912999999999897,4.427756000000002,4.8967906720152925,-4.352109999999925,2.7949899999999985,5.172313848965407,-0.1977699999998776,0.9986099999999992,1.0180053560762587,-1.4697000000000455,4.412716000000003,4.651030056520401,4.316039999999987,2.311622000000014,4.896100239219368,-2.36200000000008,0.6060599999999994,2.4385144501520544,2.7209599999998773,-1.287134999999992,3.010039838577608,-0.0473500000000512,0.9270599999999972,0.9282684235176804,3.968289999999911,-1.975980000000007,4.433037613702293,-0.7836599999999407,0.6622300000000223,1.0259978403973065,2.1988800000001447,0.2733800000000315,2.21580907995266,-0.0293500000000221,-0.702840000000009,0.703452548577382,1.7090499999999338,-2.877800000000008,3.347026253631695,0.5298999999999978,4.678639999999973,4.708552459047233,1.5361199999999826,2.6548399999999504,3.067220252932561,-1.9589000000000285,0.866880000000009,2.1421414856167007,-0.9656000000000518,-1.4691499999999849,1.7580628778573464,-0.0003300000000763,-0.035349999999994,0.035351540277612,1.9347699999999577,1.390510000000006,2.3826147428822506,2.0835599999999204,0.1169900000000154,2.0868418564183706,3.778569999999832,0.6789000000000271,3.839074947809532,-2.681140000000028,-1.123189999999994,2.906899976899813,-2.945940000000064,-0.9483899999999892,3.094835387496459,0.46550000000002,0.2362500000000125,0.5220194560550636,1.0713500000000522,-1.4873799999999733,1.8330548510342053,-1.1614000000000717,-0.9163500000000226,1.47937394951385,-2.341760000000136,-0.4722900000000436,2.388911413531418,-0.6319999999999482,0.808700000000016,1.0263623580392844,-0.0697999999998728,-1.3114799999999889,1.313336145242319,0.0408200000000249,1.0347050000000593,141.224944,1.260636787824896,107.8192834,2.311180888262677,105.178312,3.448133391264073,-0.03488165,0.557467762,0.0457868882347678,0,0
31,1033.3333333333337,502.4375,111.982704,0.8749834,503.17892,108.35387,0.8805342,500.72696,109.6759,0.417786,511.89594,103.331085,0.89329505,505.50467,106.17629,0.16414423,532.5137,112.3847,0.99537826,521.252,113.1625,0.96059555,536.4951,144.84886,0.99206007,514.66113,138.70975,0.85588664,516.7785,169.94858,0.9825904,505.80664,162.91257,0.8575417,570.26117,138.70586,0.99612844,563.165,138.2115,0.98942554,531.1857,166.41461,0.9934695,529.8117,165.90611,0.9811716,543.7978,204.96945,0.97768265,542.4841,199.69717,0.9597666,1.08923049,-0.9184683,0.4335642,0.39352399,134.85744630634545,174.37134044610383,107.2267690698579,109.14707324052266,57.183492669213365,138.45868000000002,112.7736,111.982704,69.53420999999997,101.638365,0.684133489513202,176.04908672305842,0.8689670488235295,-3.697799999999973,1.0252339999999975,3.837294567107898,-1.0705299999999625,-4.475830000000002,4.602074387686486,-3.8160100000000057,2.133660000000006,4.37200609739969,-0.1693700000000149,-2.917519999999982,2.9224320603394527,-3.3231199999999603,0.8987240000000014,3.442503647431,-0.750699999999938,-4.802521999999996,4.860840261774077,-5.352110000000039,3.6787649999999994,6.494489462407758,-1.0000000000001137,0.883775,1.3345629436730315,-3.2633299999999963,1.173249999999996,3.4678290401056344,-1.7936299999999503,-3.2394660000000077,3.702870311266096,-5.661699999999996,2.454430000000002,6.170824378873537,-3.299699999999916,1.8483700000000027,3.782127938991416,-3.173350000000028,1.9399899999999943,3.7193697614784353,-3.1259999999999764,1.0129299999999972,3.2860163092869525,-2.908800000000042,0.6907799999999895,2.9896980530482056,-2.1251400000001013,0.0285499999999672,2.1253317675366423,-2.673170000000028,1.0501300000000242,2.8720394958635573,-2.643820000000005,1.7529700000000332,3.172174020021623,-3.42804000000001,-0.5485999999999933,3.4716595745550944,-3.957940000000008,-5.227239999999966,6.5566246698434485,-4.609759999999994,3.741059999999976,5.936785088008473,-2.650859999999966,2.874179999999967,3.909983300731556,-1.3135999999999513,-1.6987000000000023,2.1473534059394788,-1.313269999999875,-1.6633500000000083,2.119295004335097,0.5280999999999949,-1.7838600000000042,1.8603886985251248,-1.5554599999999257,-1.90085000000002,2.4561527912774164,3.2456399999999803,3.996430000000004,5.14836204578698,5.926780000000008,5.119619999999998,7.831808865951727,2.695699999999988,2.030840000000012,3.3750717911771866,2.230199999999968,1.7945899999999997,2.862576690343833,-0.3720999999999321,1.2091000000000065,1.2650617455286384,0.7893000000001393,2.125450000000029,2.26727417673742,-1.015800000000013,-2.301780000000008,2.515957235010178,-0.3838000000000647,-3.110480000000024,3.1340689638870742,-1.741279999999989,-1.782100000000014,140.264294,1.1451509599469178,109.310192,2.671437209026776,107.0455548,4.18375265207632,-0.10096028,0.515167616,0.0775485991204228,0,0
32,1066.6666666666667,499.38052,115.03166,0.8861874,499.74313,110.90447,0.8959315,497.30292,112.77224,0.46362948,508.2794,105.09496,0.89104766,500.4414,108.727005,0.16860458,528.66254,114.20243,0.99624264,518.6946,114.38648,0.9538993,534.29376,147.35574,0.9932721,512.7261,139.42458,0.8321531,516.42346,172.1075,0.98285174,505.26105,164.77898,0.8330162,569.3752,137.14313,0.99642676,562.5729,136.89677,0.9888833,528.5059,164.29797,0.99369377,530.26276,164.94351,0.9793802,544.4611,205.24794,0.9770264,545.0542,201.14899,0.95417285,1.08923049,-0.9184683,0.4335642,0.39352399,134.53152086951832,177.00184242624783,102.31409077236678,108.7374855112396,61.7507219384893,137.01995,114.294455,115.03166,72.07227999999998,100.15298,0.7196219151979109,178.9421996846979,0.869789351764706,-3.05698000000001,3.048956000000004,4.317552479164102,0.6408199999999624,2.0237220000000065,2.122757877310547,-3.435789999999997,2.550600000000003,4.279043501075911,0.3802200000000084,0.4169399999999967,0.5642749436223478,-3.424040000000048,3.096339999999998,4.616424083335533,-0.1009200000000873,2.1976159999999965,2.199932028462698,-3.6165399999999854,1.7638749999999987,4.02375652683222,1.7355700000000525,-1.91489,2.584377475718317,-5.063269999999989,2.550715000000011,5.669466474380543,-1.7999399999999923,1.377465000000015,2.266537850957935,-3.851159999999936,1.817730000000012,4.258588463152967,1.81054000000006,-0.6366999999999905,1.919229528118043,-2.557399999999916,1.2239800000000116,2.8352110680511244,0.6159500000001117,-0.7160099999999829,0.9444917800595796,-2.201339999999959,2.506879999999996,3.336217188673393,0.7074600000000828,1.8161000000000056,1.949030236194436,-1.9350299999999836,0.7148299999999779,2.06284343317662,0.738140000000044,-0.3353000000000463,0.810726063229804,-0.3550400000000309,2.158919999999995,2.187918866868696,3.072999999999979,2.707519999999988,4.095606615679759,-0.5455900000000042,1.866410000000002,1.9445191529527324,4.06416999999999,-1.8746499999999744,4.475688819768397,-0.885970000000043,-1.5627299999999875,1.7964041565861617,0.4276299999999082,0.1359700000000145,0.4487262615447479,-0.5920999999999594,-1.3147299999999973,1.4419075500530347,-1.1201999999999543,0.4691300000000069,1.2144673716901184,-2.6798,-2.116640000000018,3.4148928137790917,-5.9254399999999805,-6.113070000000022,8.51354591333717,0.451059999999984,-0.962600000000009,1.063039925684827,-2.244640000000004,-2.993440000000021,3.741536016557925,0.6632999999999356,0.278490000000005,0.7193911106622859,1.0353999999998678,-0.9306100000000016,1.3921523379643943,2.570100000000025,1.451819999999998,2.9518122098805883,3.585900000000038,3.753600000000006,5.191164779700247,-1.438730000000021,0.3025499999999681,139.39815099999998,1.646210074893154,110.9731975,2.6677357478135004,109.5395328,4.543926271006152,0.0,0.475127408,0.0785254004618958,0,0
33,1100.0,497.489,119.75688,0.8814748,497.91623,114.985466,0.8989142,495.0161,117.41025,0.4810688,507.40628,108.14494,0.89980936,498.84113,113.44873,0.18935211,528.7252,115.84726,0.9937801,516.70294,117.23042,0.9522905,535.805,149.3421,0.9877708,511.56995,141.48178,0.8140782,517.4825,176.90065,0.97002393,502.688,166.8797,0.7948107,568.5875,136.66222,0.99156636,561.36664,136.76974,0.97849107,527.3868,161.43628,0.9848577,527.5927,164.1529,0.9587168,544.4712,202.46144,0.9436228,544.46344,201.58081,0.900601,0.97590488,-0.86196985,0.30926761,0.33727119,134.44683673775936,172.67539256620367,98.40991575128794,104.77076081472212,64.47932580392693,136.71598,116.53884,119.75688,73.57139999999998,94.3165,0.7800480215015608,173.43698098351675,0.8600723076470588,-1.891520000000014,4.725219999999993,5.089749695102892,1.165459999999996,1.676263999999989,2.0416067224850027,-1.8269000000000235,4.080995999999999,4.471251722059057,1.608889999999974,1.530395999999996,2.220504210515239,-2.286819999999977,4.638010000000008,5.171139378560588,1.1372200000000705,1.5416700000000103,1.915728508244368,-0.8731200000000285,3.049980000000005,3.172493740703058,2.743419999999958,1.2861050000000065,3.029920686655805,-1.6002699999999663,4.721724999999992,4.985534178854341,3.4630000000000223,2.171009999999981,4.087254998174212,0.0626599999999371,1.644829999999999,1.6460230874747743,3.913819999999873,-0.1729000000000127,3.9176372218977873,-1.9916600000000244,2.8439399999999893,3.4719885194510707,0.5657399999998916,1.6199599999999776,1.7159056352841215,1.5112399999999298,1.9863599999999904,2.4958911008294717,3.712579999999889,-0.5205200000000048,3.7488920132219303,-1.1561499999999685,2.0571999999999946,2.3598208962757967,0.7788800000000151,1.3423700000000167,1.551970125775644,1.0590399999999818,4.793150000000026,4.908752656643051,1.4140800000000129,2.6342300000000307,2.98978091827816,-2.573050000000024,2.100720000000024,3.321687947550194,-2.027460000000019,0.234310000000022,2.040954489375029,-0.7876999999999725,-0.4809100000000228,0.9229007086897152,0.0982700000000704,1.081819999999965,1.0862741391103528,-1.206260000000043,-0.1270299999999906,1.2129302570634888,-0.6141600000000835,1.1877000000000066,1.3370952829174585,-1.119100000000003,-2.8616899999999816,3.072727528776332,1.560699999999997,-0.7450499999999636,1.7294172407201036,-2.6700599999999213,-0.7906100000000151,2.784651607598265,-3.1211199999999053,0.1719899999999938,3.1258551813062945,0.0100999999999658,-2.786499999999989,2.786518304264291,-0.6531999999999698,-3.0649899999999946,3.1338209808634456,-0.5907600000000457,0.4318200000000161,0.7317553484601721,-3.1608600000000706,-1.0199999999999818,3.3213605554953545,-0.3039699999999925,1.1347600000000284,138.510742,1.6595944755932246,112.798623,2.7431079924502395,112.637024,5.2734462687241805,-0.0562527999999999,0.429633872,0.0795153565378632,0,0
34,1133.3333333333333,495.27673,120.93454,0.8997236,495.9565,116.47647,0.90862375,492.70795,118.60855,0.5110633,505.78915,109.516426,0.8892811,494.8384,113.853836,0.17107573,526.40436,117.40705,0.99573034,513.8782,117.86827,0.95262814,531.8767,152.8234,0.9922571,507.29675,144.96883,0.8322546,514.36786,176.64612,0.98158294,500.84137,169.53142,0.83717406,568.94696,135.33594,0.99539053,560.2021,135.4058,0.9864839,527.93164,162.05946,0.9923071,528.62286,163.29132,0.97603816,545.4005,204.99918,0.97258174,545.9093,201.78708,0.94704956,0.92613898,-0.83224675,0.30754809,0.26554272,134.90188807177196,178.92507971594873,100.94862717338276,107.26321140933308,68.24316971948555,135.37087,117.63766,120.93454,76.23901000000001,95.482754,0.7984584231990375,177.8912909638473,0.8730144500000001,-2.212269999999989,1.177660000000003,2.5061966460156238,-0.3207499999999754,-3.54755999999999,3.562030673099253,-1.959729999999979,1.4910040000000038,2.4624448422078267,-0.1328299999999558,-2.589991999999995,2.593395914426481,-2.308150000000012,1.198299999999989,2.600669012485062,-0.0213300000000344,-3.43971000000002,3.439776134140147,-1.6171299999999746,1.3714859999999902,2.1203969640366616,-0.7440099999999461,-1.6784940000000148,1.835999179775408,-4.002730000000042,0.4051060000000035,4.023177640141725,-2.402460000000076,-4.316618999999989,4.940143079179111,-2.320839999999976,1.5597899999999925,2.7962909629900574,-2.3834999999999127,-0.0850400000000064,2.385016572604808,-2.82474000000002,0.6378500000000003,2.8958606130302806,-0.8330799999999954,-2.206089999999989,2.358146597330188,-3.928299999999922,3.4813000000000045,5.248903750308194,-5.439539999999852,1.494940000000014,5.64122690690584,-4.273200000000031,3.48705000000001,5.515410768247487,-3.117050000000063,1.429850000000016,3.429354418108522,-3.1146400000000085,-0.2545300000000168,3.1250228559964266,-4.17367999999999,-5.047680000000042,6.549708247303872,-1.8466300000000049,2.651719999999983,3.231355956142859,0.7264200000000187,0.5509999999999593,0.9117494263228152,0.3594600000000127,-1.326279999999997,1.3741288622250831,1.1471599999999853,-0.8453699999999742,1.425000527192858,-1.164539999999988,-1.3639400000000137,1.793456365569012,0.0417200000000548,-1.236910000000023,1.2376133913706904,0.544840000000022,0.6231799999999907,0.8277704621451604,1.663940000000025,3.4848699999999724,3.861737334477824,1.0301599999999098,-0.8615799999999751,1.3429630382105724,3.700219999999831,-0.07096999999996,3.700900537612264,0.929300000000012,2.537739999999985,2.702540064013843,0.9192000000000462,5.324239999999975,5.403004739735087,1.4458600000000388,0.2062699999999893,1.460499384628459,2.0366200000000845,-0.2255500000000267,2.049071454805897,-1.3451100000000054,-1.0411400000000128,137.553088,1.842083710440281,114.36418899999998,2.8428408688192945,115.7326508,4.489151163650717,-0.0717284699999999,0.376869232,0.0841867808746404,0,0
35,1166.6666666666667,492.1936,121.135956,0.91887707,493.49576,116.860344,0.9356531,489.18158,118.73146,0.5550088,503.86194,111.33766,0.9294973,491.2989,115.65144,0.19306453,523.50574,119.56067,0.9961599,510.3101,121.16571,0.9589608,529.5028,153.6186,0.9919369,504.59692,148.12808,0.8131567,511.583,180.43202,0.97933495,497.6378,171.58105,0.80547005,567.32794,133.2179,0.994288,558.89996,133.59373,0.98279953,527.3367,163.55338,0.9906488,527.82227,165.16273,0.96961313,544.54846,203.85516,0.96497357,547.6464,200.78394,0.9312979,0.91235306,-0.79024138,0.36527477,0.27291208,136.25811168862467,175.43668129335444,104.05628014674866,106.35226018633956,74.23716300878944,133.405815,120.36319,121.135956,78.14636000000002,92.5175,0.8446657027625509,173.0649456870006,0.8771024135294118,-3.083129999999983,0.2014159999999947,3.08970208951541,-0.8708599999999933,-0.9762440000000084,1.3082237909226404,-2.460739999999987,0.3838739999999916,2.490502076986873,-0.501010000000008,-1.1071300000000122,1.2152151484408162,-3.526369999999986,0.1229100000000045,3.5285113355351294,-1.218219999999974,-1.0753899999999843,1.624968806008258,-1.9272100000000023,1.821234000000004,2.6516092598375094,-0.3100800000000276,0.4497480000000138,0.5462809441157814,-3.5394999999999754,1.7976039999999929,3.969816165871639,0.4632300000000668,1.3924979999999891,1.4675260518655304,-2.898620000000051,2.153620000000004,3.611104679845256,-0.5777800000000752,0.5938300000000112,0.8285311082271445,-3.568100000000016,3.297440000000009,4.858440919019204,-0.7433599999999956,2.659590000000009,2.76152187347847,-2.3739000000000487,0.7951999999999941,2.5035463347020803,1.5543999999998732,-2.6861000000000104,3.1034323852791865,-2.699829999999963,3.1592500000000143,4.155712043849993,1.573370000000068,-0.3277999999999963,1.607154627563948,-2.784859999999924,3.785899999999998,4.699838723786121,0.3297800000000848,4.040430000000015,4.053865986105137,-3.2035699999999565,2.049630000000008,3.803136058807225,-1.356939999999952,-0.6020899999999756,1.484519629947627,-1.6190199999999777,-2.118040000000008,2.665955588902403,-1.9784799999999905,-0.7917600000000107,2.1310248726844976,-1.3021400000000083,-1.8120700000000056,2.2314045497175186,-0.1376000000000203,-0.4481299999999919,0.4687795397625608,-0.5949400000000651,1.4939200000000028,1.6080269183070557,-1.139780000000087,0.8707400000000121,1.4343244388910827,-0.8005899999999428,1.8714099999999971,2.0354654839126844,-1.8307499999998529,2.7329899999999725,3.2895105870933614,-0.8520399999999881,-1.1440199999999834,1.4264480088667593,-1.78134,-3.6817599999999686,4.090052431595439,1.7370999999999412,-1.003140000000002,2.005942738365131,0.2912399999999024,-1.2094099999999912,1.243982831754491,-1.9650550000000069,-0.6199450000000013,136.194259,1.9062364937893403,116.321549,2.9500541396437194,117.768348,4.07071715554049,0.0073693599999999,0.332554794,0.0622587373548271,0,0
36,1200.0,490.94202,124.03473,0.9033904,491.82755,119.985886,0.9232088,487.9183,121.532394,0.5058779,501.50385,113.66934,0.9205899,489.5795,117.45829,0.1768415,521.3242,120.77435,0.9960602,507.6564,120.611725,0.95357716,526.3197,156.6347,0.99244237,501.58557,148.53958,0.8048382,507.562,184.6979,0.9798814,495.69824,175.68091,0.79799193,564.6136,132.04332,0.9944121,555.74725,131.61755,0.9823538,527.42163,165.09882,0.9905585,527.5632,164.67899,0.96796477,543.61694,204.99442,0.9637913,545.7727,199.0777,0.92705834,0.95245141,-0.8189819,0.40408675,0.27045563,138.31035888561306,179.9745792719334,109.53575971125048,111.65802554240032,76.30077486316104,131.830435,120.6930375,124.03473,76.69530000000003,91.32508,0.8398054418369478,-179.31830386229453,0.8694610923529413,-1.25157999999999,2.898774000000003,3.157426673649919,1.831549999999993,2.6973580000000084,3.260416473805765,-1.6682100000000446,3.125541999999996,3.5428713493244604,0.7925299999999424,2.741668000000004,2.8539178725261056,-1.2632800000000088,2.800933999999998,3.0726385454127225,2.263089999999977,2.678023999999993,3.5061929343200524,-2.358090000000004,2.3316800000000057,3.316220751171437,-0.4308800000000019,0.5104460000000017,0.6679915368595649,-1.7194000000000074,1.8068500000000116,2.4942019329837883,1.820099999999968,0.0092460000000187,1.820123484414144,-2.181539999999927,1.2136799999999963,2.496424626140288,0.7170800000001236,-0.9399400000000072,1.1822397937813591,-2.653699999999958,-0.5539849999999973,2.710908163369754,0.9144000000000574,-3.851425000000006,3.958484797321464,-3.183099999999968,3.016100000000023,4.385086637684589,-0.8091999999999189,2.2209000000000287,2.3637261791501984,-3.011349999999993,0.4114999999999895,3.039335630117205,-0.31152000000003,-2.747750000000025,2.765352558517657,-4.021000000000015,4.26588000000001,5.862266897233544,-1.2361400000000913,0.4799800000000118,1.326055391000028,-1.9395600000000288,4.099860000000007,4.535498320273106,1.264009999999928,2.050229999999999,2.408560635109653,-2.714339999999993,-1.1745799999999915,2.9575800601167064,-1.0953200000000152,0.943460000000016,1.445628816121228,-3.1527099999999564,-1.9761799999999996,3.7208692178709697,-1.850569999999948,-0.1641099999999937,1.8578324512721285,0.0849300000000994,1.545439999999985,1.5477719142367103,0.6798700000001645,0.0515199999999822,0.6818192775950397,-0.2590699999999515,-0.4837400000000116,0.54874552617765,0.5415199999999913,-2.355150000000009,2.416604111744419,-0.9315199999999776,1.1392599999999788,1.4716123327833015,-0.0794799999999895,2.2832799999999622,2.284662913604505,-1.8736999999999853,-1.7062400000000082,2.5341678372988583,-3.6107999999999274,-0.7031000000000063,3.6786174372988936,-1.5753799999999956,0.3896750000000111,134.86861,2.2171818465535527,117.9054365,2.682804001556268,120.1787532,3.2797314438799976,-0.0024564499999999,0.307941122,0.0561571468516341,0,0
37,1233.3333333333337,489.8393,125.610245,0.8869311,490.36398,121.565186,0.90615594,486.80835,123.28868,0.47177953,499.1637,115.02626,0.9056878,487.70422,119.2639,0.16965733,519.0026,121.21155,0.9957979,503.94507,122.020386,0.9501645,523.99365,156.35083,0.99270576,497.66055,150.11507,0.8069752,504.30374,187.63412,0.9800044,492.24707,180.4031,0.79686415,561.217,132.14871,0.99467385,551.1156,132.27757,0.98296183,526.8178,165.30865,0.9904722,523.92474,165.39462,0.9672357,544.69525,203.8347,0.9633076,542.214,197.98425,0.9250572,0.91374547,-0.82217529,0.33211263,0.2205896,139.72941525037555,177.52469686474393,109.0561543111807,111.31109718532294,76.66076404304746,132.21314,121.615968,125.610245,74.40864999999997,88.80844,0.8378556042887856,176.92523323723674,0.8639077641176471,-1.1027200000000337,1.57551500000001,1.9230805790775136,0.1488599999999564,-1.323258999999993,1.3316056776241865,-1.4635699999999474,1.5793000000000037,2.1531896421123378,0.2046400000000972,-1.5462419999999923,1.5597249283652603,-1.1099499999999694,1.756286000000003,2.0776259327164603,0.1533300000000395,-1.0446479999999951,1.0558406758616576,-2.340149999999994,1.356919999999988,2.7050940665529435,0.01794000000001,-0.9747600000000176,0.974925074659604,-1.8752799999999752,1.8056100000000013,2.6032484611538544,-0.1558799999999678,-0.0012400000000098,0.1558849319209204,-2.321599999999989,0.4372000000000042,2.3624077548128635,-0.1400600000000622,-0.7764799999999923,0.789010769254771,-3.711330000000032,1.408660999999995,3.9696720496561455,-1.0576300000000742,1.9626459999999923,2.2294753952928312,-2.3260500000000093,-0.2838700000000074,2.343307657863143,0.8570499999999583,-3.2999700000000303,3.40944815232614,-3.9250200000000177,1.575490000000002,4.229414940686258,-0.9136700000000246,1.1639900000000123,1.479751867375093,-3.258260000000007,2.936219999999992,4.386074112004948,0.762740000000008,-1.3296600000000185,1.5328953073188205,-3.4511699999999905,4.722189999999984,5.8489018426538655,-1.511609999999962,0.6223299999999767,1.634704689232846,-3.396600000000035,0.1053899999999998,3.3982346317022074,-0.682260000000042,1.2799699999999916,1.4504488644898983,-4.631650000000036,0.6600200000000029,4.678440779031016,-1.4789400000000796,2.6362000000000023,3.022716322052112,-0.6038300000000163,0.2098300000000108,0.6392490107931527,-0.6887600000001157,-1.3356099999999742,1.5027456237501045,-3.638460000000009,0.7156300000000044,3.708169018329676,-3.3793900000000576,1.199370000000016,3.585912041447814,1.0783099999999877,-1.159719999999993,1.5835728383942296,2.0098299999999654,-2.298979999999972,3.0536413786330137,-3.5586999999999307,-1.09344999999999,3.722899218686894,-1.6849999999999454,0.6127900000000182,1.792968651175987,0.3827050000000156,1.9580850000000112,133.907248,2.0896024749235305,119.36973910000002,2.16781545226876,122.2944702,2.4317584182766807,-0.04986603,0.2733542439999999,0.0416506333137345,0,0
38,1266.6666666666663,487.2601,128.45218,0.880948,487.9551,124.713776,0.90229136,484.61508,125.996185,0.4569451,496.53674,117.96858,0.9043269,485.44803,121.038574,0.16407986,515.67816,123.6461,0.99588364,500.67368,122.67346,0.9490135,519.8138,160.72412,0.99300075,493.92822,151.35596,0.8048847,502.24442,191.89008,0.9798549,488.1282,182.52788,0.7902301,558.9288,133.41399,0.99492884,548.62866,133.09264,0.9834917,525.3071,166.68687,0.99082255,520.3583,166.47258,0.9677605,546.1549,202.03003,0.96503806,540.5957,196.68047,0.92726076,0.90068526,-0.82070141,0.31319794,0.19897281,144.22406996414728,177.30608268945912,104.16623993431192,105.91823281193584,77.51959917592934,133.253315,123.15978,128.45218,74.31372000000005,84.06145000000001,0.8840404146723573,-176.2910873632734,0.8618094835294118,-2.579199999999957,2.8419349999999923,3.837820629501168,-1.476479999999924,1.2664199999999823,1.9452025104856645,-2.4088800000000106,3.1485899999999987,3.964381646928061,-0.9453100000000632,1.5692899999999952,1.832015856972888,-2.193270000000041,2.7075049999999976,3.4843961625976414,-1.0833200000000716,0.9512189999999948,1.4416656368108194,-2.626959999999997,2.9423200000000094,3.944384086774517,-0.2868100000000027,1.5854000000000212,1.611134114870661,-2.256190000000004,1.7746739999999903,2.8705158286231383,-0.3809100000000285,-0.0309360000000111,0.382164184868261,-3.3244399999999814,2.434550000000001,4.120550329276404,-1.002839999999992,1.9973499999999973,2.2349709367461523,-3.2713899999999967,0.6530740000000037,3.335940374403593,0.4399400000000355,-0.7555869999999913,0.8743334136180649,-4.179849999999988,4.373289999999997,6.049529853352231,-1.8537999999999784,4.657160000000005,5.012555606235203,-3.7323299999999904,1.2408900000000074,3.933204192639882,0.1926900000000273,-0.3345999999999947,0.38611733462771,-2.059320000000014,4.255960000000016,4.728001098138641,1.1989399999999932,1.3197400000000243,1.783022936251816,-4.118870000000015,2.1247800000000154,4.634628369707779,-0.6677000000000248,-2.597409999999968,2.6818579377177807,-2.2881999999999607,1.2652800000000184,2.614726126843855,1.1084000000000742,1.1598900000000183,1.6043364273431575,-2.486940000000004,0.8150699999999915,2.617099476233184,2.144710000000032,0.1550499999999885,2.150307300503845,-1.5107000000000426,1.378219999999999,2.044921724272136,-0.9068700000000264,1.168389999999988,1.4790363041521395,-3.566440000000057,1.0779599999999905,3.7257874382740064,0.0720199999999522,0.3623299999999858,0.3694183391495106,1.4596500000000106,-1.8046699999999876,2.3210799062936167,0.3813400000000229,-0.6449499999999944,0.7492534271526625,-1.6183000000000902,-1.303779999999989,2.078157159215892,1.9403999999998405,-0.210329999999999,1.9517660896991167,1.0401749999999763,0.6574699999999609,133.21471499999998,1.378984876008986,120.69392710000002,2.023656736760968,124.0335302,3.162679779843314,-0.0216167899999999,0.2456945679999999,0.0337677152674906,0,0
39,1300.0,485.28366,129.67198,0.90737,486.73227,125.694885,0.9237569,482.10428,126.889755,0.54369164,495.94794,119.8024,0.91119117,481.13953,122.623825,0.19104873,514.4693,126.39798,0.9961092,495.43912,125.69858,0.95319283,518.185,164.54988,0.99261874,488.80716,155.70511,0.8030458,498.9543,195.53172,0.9784396,484.22363,186.4379,0.7835433,558.0239,133.58289,0.9941028,544.7761,133.5634,0.9810976,526.212,167.65936,0.9889235,517.3058,167.53561,0.96153235,549.21545,202.67484,0.9575627,540.4088,197.41158,0.9125609,0.85922579,-0.75658795,0.32425198,0.24638238,142.60914004868468,176.01964593071835,103.66552191281524,103.32594175069784,80.7972492750735,133.573145,126.04828,129.67198,76.88437000000005,82.87243999999998,0.9277435184997151,-177.89520432934535,0.8693992800000001,-1.976440000000025,1.2197999999999922,2.3225475481892897,0.6027599999999325,-1.622135,1.7305032724109246,-1.2228299999999876,0.9811090000000036,1.567765313680902,1.186050000000023,-2.167480999999995,2.47076678135777,-2.5107999999999606,0.8935699999999969,2.665067350912505,-0.3175299999999197,-1.8139350000000007,1.841517169380984,-0.588799999999992,1.833820000000003,1.9260273187055268,2.038160000000005,-1.1085000000000065,2.3201009537518047,-4.308500000000038,1.5852509999999995,4.590881503916358,-2.052310000000034,-0.1894229999999908,2.0610330926574507,-1.2088600000000724,2.75188,3.005692272006596,2.115579999999909,0.3173299999999983,2.139246845340577,-5.234559999999988,3.025120000000001,6.045822475726514,-1.963169999999991,2.372045999999997,3.07906457792232,-1.6288000000000693,3.8257600000000025,4.1580559180463466,2.5510499999999183,-0.5475299999999947,2.609146451121435,-5.12106,4.34914999999998,6.718657696750135,-1.3887300000000096,3.108259999999973,3.404387057973852,-3.2901200000000017,3.6416399999999953,4.907792936137381,-1.230799999999988,-0.6143200000000206,1.3755935818402163,-3.9045699999999774,3.910020000000003,5.525750925014614,0.214300000000037,1.7852399999999875,1.798056269308603,-0.9048999999999978,0.1688999999999794,0.9205276856238432,1.383299999999963,-1.096380000000039,1.765097162878005,-3.852559999999926,0.4707600000000127,3.881215470854387,-1.3656199999999217,-0.3443099999999788,1.4083562619237262,0.9048999999999978,0.9724899999999934,1.3283752519901832,2.4156000000000404,-0.4057300000000055,2.4494367093068967,-3.052500000000009,1.0630299999999977,3.2323039818216435,0.5139400000000478,-0.0149299999999925,0.5141568131417193,3.0605500000000347,0.6448099999999783,3.127738198539032,1.6009000000000242,2.4494799999999657,2.9262318910844898,-0.1868999999999232,0.7311099999999726,0.7546213899035272,1.431400000000167,2.0348899999999617,2.487907408265091,0.3198300000000245,-0.720344999999952,132.85517,0.7809452283604866,122.3760511,2.321710952469497,125.7810182,3.4252729050407016,0.04740957,0.2418625,0.031992712448675,0,0
40,1333.3333333333333,484.60825,133.68324,0.89826035,485.5285,129.55891,0.91411793,481.32648,131.32306,0.53204125,493.9295,122.993256,0.9020505,480.02274,127.04068,0.19808955,512.2273,128.59256,0.99586296,493.76184,129.05818,0.95202506,517.0812,166.24281,0.9922442,486.4271,158.17424,0.7987916,496.06943,197.93605,0.97688454,480.06516,188.93346,0.77565515,555.08203,134.56924,0.9938344,542.5567,135.3489,0.98044044,523.9441,168.96896,0.98842865,518.2226,170.39816,0.9601367,549.99426,202.79785,0.9558969,544.6695,198.96889,0.90926194,0.79695021,-0.71851291,0.2210809,0.26456014,139.11058963544653,177.5463255289613,100.250936525723,102.43909069347188,82.37621015215244,134.95907,128.82537,133.68324,75.05929000000003,79.80459400000001,0.940538448945202,178.5555513510017,0.8661189482352941,-0.6754099999999994,4.011260000000021,4.067724850048264,1.3010300000000257,2.791460000000029,3.079761028472864,-1.20377000000002,3.864024999999998,4.047190558093976,0.0190599999999676,2.8829159999999945,2.8829790055870967,-0.7778000000000134,4.433305000000004,4.501018336224044,1.7329999999999472,3.5397350000000074,3.941194345655244,-2.0184399999999982,3.1908559999999966,3.775667099511816,-1.4296400000000062,1.3570359999999937,1.971146172889266,-1.1167899999999804,4.416854999999998,4.555856450232485,3.1917100000000573,2.8316039999999987,4.266731059829803,-2.241999999999962,2.194579999999988,3.1373149947685803,-1.0331399999998894,-0.5573000000000121,1.1738660697029215,-1.677279999999996,3.359599999999986,3.7550206868138414,3.557279999999992,0.334479999999985,3.572970454509795,-1.1037999999999784,1.6929299999999898,2.0209864979509184,0.525000000000091,-2.1328300000000127,2.196494663981716,-2.3800600000000145,2.469130000000007,3.4294735106864587,2.740999999999985,-1.8800199999999732,3.323786425208428,-2.884869999999978,2.4043299999999874,3.7554330863163856,0.4052500000000236,-1.237310000000008,1.3019844847770032,-4.158470000000023,2.495559999999984,4.849813651523129,-0.2539000000000442,-1.4144600000000196,1.437067257159552,-2.9418699999999944,0.9863500000000158,3.1028189472478083,-2.0369699999999966,0.8174500000000364,2.1948738650318944,-2.219400000000064,1.7854999999999848,2.8484639035803543,1.6331599999998616,1.314739999999972,2.096605078024823,-2.2678999999999405,1.3096000000000174,2.618859020642344,-3.1727999999999383,0.337110000000024,3.190658708182313,0.9168000000000802,2.862549999999999,3.0057802219224445,3.969300000000089,1.7995200000000011,4.358166440190268,0.7788100000000213,0.123010000000022,0.7884646321808219,-2.281740000000013,-0.5217999999999563,2.3406436438723466,4.260699999999929,1.557310000000001,4.536383904179561,4.447599999999852,0.8262000000000285,4.523687898164365,1.385924999999986,1.0660949999999616,133.165821,1.2328997195398823,124.0684871,3.34595925643119,128.290475,3.752053347009484,0.0181777599999999,0.2401921119999999,0.0301300931890979,0,0
