frame_id,timestamp_ms,nose_x,nose_y,nose_conf,left_eye_x,left_eye_y,left_eye_conf,right_eye_x,right_eye_y,right_eye_conf,left_ear_x,left_ear_y,left_ear_conf,right_ear_x,right_ear_y,right_ear_conf,left_shoulder_x,left_shoulder_y,left_shoulder_conf,right_shoulder_x,right_shoulder_y,right_shoulder_conf,left_elbow_x,left_elbow_y,left_elbow_conf,right_elbow_x,right_elbow_y,right_elbow_conf,left_wrist_x,left_wrist_y,left_wrist_conf,right_wrist_x,right_wrist_y,right_wrist_conf,left_hip_x,left_hip_y,left_hip_conf,right_hip_x,right_hip_y,right_hip_conf,left_knee_x,left_knee_y,left_knee_conf,right_knee_x,right_knee_y,right_knee_conf,left_ankle_x,left_ankle_y,left_ankle_conf,right_ankle_x,right_ankle_y,right_ankle_conf,acc_x,acc_y,acc_z,acc_mag,left_elbow_angle,right_elbow_angle,left_knee_angle,right_knee_angle,spine_angle,hip_height,shoulder_height,head_height,bbox_width,bbox_height,bbox_aspect_ratio,shoulder_tilt,avg_confidence,nose_vx,nose_vy,nose_speed,nose_ax,nose_ay,nose_accel,left_eye_vx,left_eye_vy,left_eye_speed,left_eye_ax,left_eye_ay,left_eye_accel,right_eye_vx,right_eye_vy,right_eye_speed,right_eye_ax,right_eye_ay,right_eye_accel,left_ear_vx,left_ear_vy,left_ear_speed,left_ear_ax,left_ear_ay,left_ear_accel,right_ear_vx,right_ear_vy,right_ear_speed,right_ear_ax,right_ear_ay,right_ear_accel,left_shoulder_vx,left_shoulder_vy,left_shoulder_speed,left_shoulder_ax,left_shoulder_ay,left_shoulder_accel,right_shoulder_vx,right_shoulder_vy,right_shoulder_speed,right_shoulder_ax,right_shoulder_ay,right_shoulder_accel,left_elbow_vx,left_elbow_vy,left_elbow_speed,left_elbow_ax,left_elbow_ay,left_elbow_accel,right_elbow_vx,right_elbow_vy,right_elbow_speed,right_elbow_ax,right_elbow_ay,right_elbow_accel,left_wrist_vx,left_wrist_vy,left_wrist_speed,left_wrist_ax,left_wrist_ay,left_wrist_accel,right_wrist_vx,right_wrist_vy,right_wrist_speed,right_wrist_ax,right_wrist_ay,right_wrist_accel,left_hip_vx,left_hip_vy,left_hip_speed,left_hip_ax,left_hip_ay,left_hip_accel,right_hip_vx,right_hip_vy,right_hip_speed,right_hip_ax,right_hip_ay,right_hip_accel,left_knee_vx,left_knee_vy,left_knee_speed,left_knee_ax,left_knee_ay,left_knee_accel,right_knee_vx,right_knee_vy,right_knee_speed,right_knee_ax,right_knee_ay,right_knee_accel,left_ankle_vx,left_ankle_vy,left_ankle_speed,left_ankle_ax,left_ankle_ay,left_ankle_accel,right_ankle_vx,right_ankle_vy,right_ankle_speed,right_ankle_ax,right_ankle_ay,right_ankle_accel,hip_velocity,hip_acceleration,hip_height_mean_5,hip_height_std_5,shoulder_height_mean_5,shoulder_height_std_5,head_height_mean_5,head_height_std_5,acc_mag_diff,acc_mag_mean_5,acc_mag_std_5,label_binary,label_3class
0,0.0,493.3153,97.44808,0.95641035,495.03268,95.13844,0.9245574,490.95328,95.51863,0.9153388,498.1791,95.46552,0.74206257,487.38583,96.374176,0.7113844,502.94604,106.587845,0.9943382,484.32645,108.10563,0.9959604,510.0342,120.64049,0.96321094,479.61325,123.4895,0.9649697,512.7122,135.57002,0.93521875,474.66922,137.51276,0.93247736,500.88437,135.71487,0.99533635,489.45322,136.39267,0.996033,501.15152,159.41132,0.985899,489.67548,159.9528,0.98605365,500.97345,182.34644,0.96626204,491.4969,183.16635,0.96671116,0.95585666,-0.22894155,0.91748572,0.13952661,163.40294473549534,177.61306271667166,178.90923853117616,176.0540511998059,3.055921619143004,136.05377,107.3467375,97.44808,38.04298000000006,88.02790999999999,0.4321695195061492,175.3398102100766,0.9371896511764706,0.0,0.0,0.0,0.0,0.0,0.0,0.0,0.0,0.0,0.0,0.0,0.0,0.0,0.0,0.0,0.0,0.0,0.0,0.0,0.0,0.0,0.0,0.0,0.0,0.0,0.0,0.0,0.0,0.0,0.0,0.0,0.0,0.0,0.0,0.0,0.0,0.0,0.0,0.0,0.0,0.0,0.0,0.0,0.0,0.0,0.0,0.0,0.0,0.0,0.0,0.0,0.0,0.0,0.0,0.0,0.0,0.0,0.0,0.0,0.0,0.0,0.0,0.0,0.0,0.0,0.0,0.0,0.0,0.0,0.0,0.0,0.0,0.0,0.0,0.0,0.0,0.0,0.0,0.0,0.0,0.0,0.0,0.0,0.0,0.0,0.0,0.0,0.0,0.0,0.0,0.0,0.0,0.0,0.0,0.0,0.0,0.0,0.0,0.0,0.0,0.0,0.0,0.0,0.0,136.05377,0.0,107.3467375,0.0,97.44808,0.0,0.0,0.13952661,0.0,0,0
1,33.333333333333336,493.09695,97.27633,0.95595354,494.85236,94.955986,0.92412734,490.72803,95.320145,0.9146441,498.04675,95.304596,0.74175566,487.14474,96.17369,0.7090519,502.85394,106.51603,0.99423075,484.01898,107.987076,0.99588156,509.85272,120.70474,0.96232784,479.175,123.53128,0.96418047,512.2973,135.68144,0.9336073,474.11804,137.93927,0.9309129,500.7054,135.76637,0.9952506,489.1377,136.41295,0.99595803,500.98926,159.51425,0.9857684,489.36465,160.0144,0.9859093,500.79276,182.55307,0.96622175,491.29196,183.30746,0.96661705,1.00725112,-0.30533728,0.9400851,0.19381425,163.01491688815912,177.96818413005514,178.82649862266706,175.82095193987251,2.948022940866156,136.08965999999998,107.251553,97.27633,38.17925999999994,88.351474,0.4321292881641189,175.53415693537863,0.9366116758823528,-0.2183499999999867,-0.1717500000000029,0.2778035006978768,-0.2183499999999867,-0.1717500000000029,0.2778035006978768,-0.1803200000000515,-0.182454000000007,0.2565243936081345,-0.1803200000000515,-0.182454000000007,0.2565243936081345,-0.2252500000000168,-0.1984850000000051,0.3002230133167836,-0.2252500000000168,-0.1984850000000051,0.3002230133167836,-0.1323500000000308,-0.1609239999999943,0.2083580002687833,-0.1323500000000308,-0.1609239999999943,0.2083580002687833,-0.2410899999999856,-0.2004860000000121,0.3135586457044326,-0.2410899999999856,-0.2004860000000121,0.3135586457044326,-0.0920999999999594,-0.0718150000000008,0.1167895724154885,-0.0920999999999594,-0.0718150000000008,0.1167895724154885,-0.3074700000000234,-0.1185540000000031,0.3295342953563637,-0.3074700000000234,-0.1185540000000031,0.3295342953563637,-0.1814800000000218,0.0642500000000012,0.192517669059253,-0.1814800000000218,0.0642500000000012,0.192517669059253,-0.4382499999999822,0.0417799999999886,0.4402370167307418,-0.4382499999999822,0.0417799999999886,0.4402370167307418,-0.4149000000001024,0.1114200000000096,0.4296003100558554,-0.4149000000001024,0.1114200000000096,0.4296003100558554,-0.551179999999988,0.4265100000000075,0.6969291014873702,-0.551179999999988,0.4265100000000075,0.6969291014873702,-0.1789699999999925,0.0515000000000043,0.1862324109815414,-0.1789699999999925,0.0515000000000043,0.1862324109815414,-0.3155199999999922,0.0202799999999854,0.3161710752108651,-0.3155199999999922,0.0202799999999854,0.3161710752108651,-0.1622600000000034,0.1029300000000148,0.1921533046814552,-0.1622600000000034,0.1029300000000148,0.1921533046814552,-0.3108300000000099,0.0615999999999985,0.3168751314003767,-0.3108300000000099,0.0615999999999985,0.3168751314003767,-0.1806900000000268,0.2066299999999898,0.2744901327917007,-0.1806900000000268,0.2066299999999898,0.2744901327917007,-0.204939999999965,0.1411099999999976,0.2488220964865962,-0.204939999999965,0.1411099999999976,0.2488220964865962,0.0358899999999948,0.0358899999999948,136.07171499999998,0.0253780623767815,107.29914525,0.0673056054138573,97.362205,0.1214455896687916,0.05428764,0.1666704299999999,0.038387158378614,0,0
2,66.66666666666667,492.73157,97.18197,0.9573474,494.5564,94.89,0.9273153,490.40292,95.21781,0.91618586,497.86832,95.347916,0.75116086,486.95465,96.136024,0.708058,502.6384,106.69194,0.99450535,483.87106,108.02041,0.99609923,509.36743,120.9429,0.9642847,478.88876,123.51959,0.96599436,511.84738,135.82954,0.9367945,473.60373,138.09831,0.9340922,500.35806,135.88138,0.99546283,488.8155,136.43967,0.9961533,500.75412,159.51233,0.9862482,488.9482,159.90643,0.9863832,500.6256,182.49948,0.9671234,490.70523,183.09058,0.9674849,1.03648198,-0.32130423,0.97668627,0.13092902,164.18220720584276,177.8938641276281,178.71946063697575,175.99006816044053,2.647785644876289,136.160525,107.356175,97.18197,38.24365,88.20057999999999,0.4335986176780401,175.95099922864634,0.9382760935294118,-0.365380000000016,-0.0943599999999946,0.3773676642215264,-0.1470300000000293,0.0773900000000082,0.1661536427527543,-0.2959599999999796,-0.0659859999999952,0.3032267695900005,-0.115639999999928,0.1164680000000117,0.1641261850649862,-0.3251099999999951,-0.1023349999999965,0.3408356852282286,-0.0998599999999783,0.0961500000000086,0.138624824977337,-0.1784299999999916,0.0433199999999942,0.1836134180826568,-0.0460799999999608,0.2042439999999885,0.2093775965474618,-0.1900899999999978,-0.0376659999999873,0.1937857983857388,0.0509999999999877,0.1628200000000248,0.170620492321429,-0.2155400000000327,0.1759100000000018,0.2782118252339658,-0.1234400000000732,0.2477250000000026,0.27677628009824,-0.1479199999999991,0.0333339999999964,0.1516294231209745,0.1595500000000242,0.1518879999999995,0.2202865566574765,-0.4852899999999636,0.2381599999999935,0.5405798458136981,-0.3038099999999417,0.1739099999999922,0.3500645714721241,-0.2862400000000207,-0.0116900000000015,0.286478609498182,0.1520099999999615,-0.0534699999999901,0.1611399422861608,-0.4499199999999632,0.1480999999999994,0.4736682556388667,-0.0350199999998608,0.0366799999999898,0.0507131422807688,-0.5143100000000231,0.1590400000000045,0.5383386459284019,0.0368699999999648,-0.267470000000003,0.269999255184156,-0.3473399999999742,0.1150100000000122,0.365885741318222,-0.1683699999999817,0.0635100000000079,0.179949929146957,-0.3222000000000093,0.0267200000000116,0.3233060444841801,-0.0066800000000171,0.0064400000000262,0.009278793024988,-0.2351400000000012,-0.0019200000000125,0.2351478386037189,-0.0728799999999978,-0.1048500000000274,0.1276910995332307,-0.4164499999999975,-0.1079699999999945,0.430218692527413,-0.1056199999999876,-0.1695699999999931,0.1997737953286042,-0.1671599999999671,-0.0535899999999855,0.1755401768826369,0.0135300000000597,-0.2602199999999754,0.2605715051573921,-0.5867300000000455,-0.2168800000000033,0.6255309962744091,-0.3817900000000804,-0.3579900000000009,0.5233740958435583,0.0708650000000261,0.0349750000000312,136.10131833333332,0.0543239823497379,107.31815516666668,0.0578718675617422,97.30212666666668,0.134917508253498,-0.0628852299999999,0.1547566266666666,0.0340969660496125,0,0
3,100.0,492.5541,97.18386,0.9559618,494.4548,94.89798,0.92747635,490.2623,95.17203,0.9116899,497.86502,95.321655,0.75901705,486.85812,95.97833,0.6922065,502.55112,106.647484,0.9944608,483.69733,107.74846,0.995795,509.10986,121.00021,0.9648626,478.7153,123.1631,0.9628513,511.3529,135.86429,0.93732345,473.71436,137.74509,0.9293981,499.67953,135.99768,0.9953934,488.0935,136.41669,0.9959473,499.9461,159.64224,0.9862816,488.22543,159.90045,0.98589593,499.5031,182.72296,0.9673374,489.87302,183.12927,0.9667839,1.07288865,-0.30951325,1.02311326,0.09236269,164.02248372139553,178.98131287237675,178.25449628991305,176.26475777756997,1.5053193845711632,136.20718499999998,107.197972,97.18386,37.63853999999998,88.23128999999999,0.4265894737956399,176.6579811566266,0.936981316470588,-0.1774699999999711,0.0018899999999888,0.1774800636691054,0.1879100000000448,0.0962499999999835,0.2111261011812933,-0.101600000000019,0.0079800000000034,0.1019129059540739,0.1943599999999605,0.0739659999999986,0.2079585986584456,-0.1406200000000126,-0.0457799999999934,0.1478843899808325,0.1844899999999825,0.056555000000003,0.1929638000377114,-0.0032999999999674,-0.0262609999999909,0.026467529559808,0.1751300000000242,-0.0695809999999852,0.1884463649450591,-0.0965300000000297,-0.1576940000000064,0.1848930462078219,0.0935599999999681,-0.1200280000000191,0.1521847376841666,-0.0872799999999642,-0.0444559999999967,0.0979496520463114,0.1282600000000684,-0.2203659999999985,0.2549741193847267,-0.1737299999999777,-0.2719500000000039,0.3227056172427037,-0.0258099999999785,-0.3052840000000003,0.306373100575098,-0.257569999999987,0.057310000000001,0.2638687950478294,0.2277199999999766,-0.1808499999999924,0.2907973880556471,-0.1734599999999773,-0.3564899999999937,0.3964511214512927,0.1127800000000434,-0.3447999999999922,0.3627759203695918,-0.49448000000001,0.0347500000000025,0.4956995389346353,-0.0445600000000467,-0.1133499999999969,0.1217941546216544,0.1106300000000146,-0.3532199999999932,0.3701396564811699,0.6249400000000378,-0.5122599999999977,0.8080595963170322,-0.6785300000000234,0.1162999999999954,0.6884247605221872,-0.3311900000000491,0.0012899999999831,0.3311925122946358,-0.72199999999998,-0.0229800000000182,0.7223656140763982,-0.3997999999999706,-0.0497000000000298,0.4028773138313691,-0.8080199999999991,0.1299099999999953,0.8183965594380253,-0.5728799999999978,0.1318300000000078,0.5878525693573173,-0.7227699999999686,-0.0059799999999938,0.7227947380134657,-0.306319999999971,0.1019900000000006,0.3228527566863606,-1.1225000000000025,0.223479999999995,1.144530279372286,-0.9553400000000352,0.2770699999999806,0.9947071430828556,-0.832209999999975,0.0386900000000025,0.8331088765581355,-0.2454799999999295,0.2555700000000058,0.3543676837692291,0.0466599999999743,-0.0242050000000517,136.127785,0.0690603683984793,107.288109375,0.0764445360434411,97.27256,0.1250276254806638,-0.03856633,0.1391581425,0.0418129114315577,0,0
4,133.33333333333334,492.33563,97.15371,0.9540288,494.31015,94.88534,0.92649776,490.1013,95.1068,0.9064314,497.82315,95.3212,0.7641532,486.79733,95.845856,0.67710996,502.47012,106.69635,0.99428684,483.57898,107.546524,0.99542576,508.8218,121.21843,0.964262,478.6478,122.85661,0.9591622,510.8507,136.06616,0.93592304,474.01022,137.30997,0.9236839,499.0897,136.15793,0.99519926,487.51633,136.43185,0.99565387,499.1327,159.83281,0.9859772,487.7303,159.94397,0.9851762,498.46085,183.02463,0.9669025,489.4941,183.22069,0.96563387,1.05724453,-0.30288083,1.00960276,0.08204558,164.15746373109445,179.93633949340636,178.23657947033837,176.18807665882144,0.5470859388390247,136.29489,107.121437,97.15371,36.840480000000014,88.33534999999999,0.4170525116269705,177.42320812030286,0.935029868235294,-0.2184700000000248,-0.0301499999999919,0.2205406162139082,-0.0410000000000536,-0.0320399999999807,0.0520342348843832,-0.1446499999999559,-0.0126400000000046,0.1452012124604591,-0.0430499999999369,-0.020620000000008,0.0477334987193994,-0.1610000000000013,-0.0652299999999996,0.1737122704359148,-0.0203799999999887,-0.0194500000000061,0.0281717393854156,-0.0418700000000171,-0.0004550000000023,0.0418724721625251,-0.0385700000000497,0.0258059999999886,0.0464068371687109,-0.0607899999999972,-0.1324740000000019,0.1457559082027215,0.0357400000000325,0.0252200000000044,0.0437423821939609,-0.0810000000000172,0.0488659999999896,0.0945985515534027,0.0062799999999469,0.0933219999999863,0.0935330641217146,-0.1183500000000208,-0.2019359999999892,0.2340616811782752,0.0553799999999569,0.0700140000000146,0.0892687212633702,-0.2880600000000299,0.2182200000000023,0.3613841889181349,-0.0304900000000429,0.1609100000000012,0.1637732218648794,-0.0674999999999954,-0.3064899999999966,0.3138349408526675,0.1059599999999818,0.0499999999999971,0.1171645065708718,-0.5021999999999593,0.2018699999999853,0.5412544105131646,-0.0077199999999493,0.1671199999999828,0.1672982151727671,0.2958600000000047,-0.4351200000000119,0.5261773028172283,0.18522999999999,-0.0819000000000187,0.2025284249185762,-0.5898300000000063,0.1602499999999906,0.6112114948199228,0.0887000000000171,0.0439499999999952,0.0989913758870065,-0.5771700000000237,0.0151600000000087,0.5773690626453999,0.1448299999999562,0.0381400000000269,0.1497677819158359,-0.8134000000000015,0.1905700000000081,0.8354259302296078,-0.0053800000000023,0.0606600000000128,0.0608981116291924,-0.4951300000000174,0.0435200000000008,0.4970389394202604,0.2276399999999512,0.0494999999999947,0.2329596952264002,-1.042250000000024,0.3016700000000014,1.085029885026238,0.0802499999999781,0.0781900000000064,0.1120434674579357,-0.3789199999999937,0.0914199999999993,0.3897922302971098,0.4532899999999813,0.0527299999999968,0.4563466631848892,0.0877050000000281,0.0410450000000537,136.161206,0.0957173812194088,107.2547749,0.099693336967929,97.24879,0.1206192142653881,-0.0103171099999999,0.12773563,0.0443126238317113,0,0
5,166.66666666666666,492.20535,96.95912,0.953013,494.2317,94.69861,0.9264255,490.0036,94.88483,0.90338516,497.80026,95.14156,0.76880556,486.73224,95.57566,0.66779345,502.48764,106.56082,0.9942246,483.30783,107.28321,0.99517655,508.77246,121.20094,0.9642433,478.33545,122.63484,0.95649254,510.48328,135.98093,0.9354587,474.15475,137.08978,0.9195115,498.73,136.19115,0.99503726,486.98657,136.38986,0.9954014,498.59952,159.97946,0.98548955,487.24716,160.01738,0.98430717,497.606,183.28876,0.9656722,489.10458,183.38257,0.96375585,1.0437334,-0.38296124,0.96587787,0.09899511,163.3694999358238,178.1839786034909,177.87360446912666,176.0867130405584,0.0784029353473623,136.290505,106.922015,96.95912,36.32853,88.68395999999998,0.40964036326704,177.84302643608325,0.933776075882353,-0.1302799999999706,-0.1945900000000051,0.2341754609261917,0.0881900000000541,-0.1644400000000132,0.1865957922891454,-0.0784500000000321,-0.1867299999999971,0.2025401081267707,0.0661999999999238,-0.1740899999999925,0.1862518942185214,-0.0976999999999748,-0.2219700000000131,0.2425200422645536,0.0633000000000265,-0.1567400000000134,0.1690393965914679,-0.022890000000018,-0.1796400000000062,0.181092467264663,0.0189799999999991,-0.1791850000000039,0.1801874152792069,-0.0650899999999978,-0.2701959999999985,0.2779255053355106,-0.0043000000000006,-0.1377219999999965,0.1377891116307782,0.0175199999999904,-0.1355299999999886,0.1366577158450871,0.0985200000000077,-0.1843959999999782,0.2090647632098568,-0.2711499999999773,-0.2633140000000082,0.377963735159859,-0.1527999999999565,-0.061378000000019,0.1646666295397736,-0.0493399999999724,-0.0174899999999951,0.0523482158243918,0.2387200000000575,-0.2357099999999974,0.335479421872678,-0.3123500000000376,-0.2217700000000064,0.38307238924259,-0.2448500000000422,0.0847199999999901,0.2590926492589456,-0.3674200000000382,-0.0852299999999957,0.3771758333987311,0.134779999999921,-0.287099999999981,0.3171625110254486,0.1445299999999747,-0.2201900000000023,0.2633867061945111,-0.1513300000000299,0.2149300000000096,0.2628605596129119,-0.3596999999999752,0.03322,0.3612307550582899,0.230130000000031,-0.1270299999999906,0.2628620128508718,-0.5297600000000102,-0.0419899999999984,0.5314215066216371,0.0474100000000135,-0.0571500000000071,0.0742551722104399,-0.5331800000000158,0.1466499999999939,0.5529802301167873,0.2802199999999857,-0.0439200000000141,0.2836409963316185,-0.4831399999999917,0.0734099999999955,0.4886852644596431,0.0119900000000257,0.0298899999999946,0.0322051579719816,-0.854849999999999,0.2641299999999944,0.8947251977003863,0.1874000000000251,-0.037540000000007,0.191123027393378,-0.3895200000000045,0.1618799999999964,0.4218186397019486,-0.0106000000000108,0.070459999999997,0.0712528708193559,-0.0043850000000134,-0.0920900000000415,136.208553,0.0874847322822744,107.1698304,0.1627492216503713,97.150998,0.1168030477770113,0.0169495299999999,0.11962933,0.0453124273943225,0,0
6,200.0,492.05673,96.83536,0.953247,494.1048,94.584816,0.9260123,489.86545,94.75275,0.90447944,497.69547,95.053764,0.7666864,486.60315,95.432304,0.67284966,502.37186,106.47774,0.9942697,483.04086,107.14569,0.9953185,508.4571,121.17848,0.96418077,478.04758,122.60466,0.9579386,510.29404,135.81284,0.93550795,474.2013,137.10231,0.92162126,498.62488,136.04446,0.9951231,486.8101,136.22815,0.99553776,498.56406,159.86154,0.98572785,487.29803,159.87375,0.98477083,497.4475,183.27776,0.96615744,489.28937,183.3224,0.9646127,0.98096611,-0.34267539,0.91478362,0.08966059,164.66781211049664,176.95791334880835,177.41633201385744,176.32802867317653,0.0263969118896971,136.136305,106.811715,96.83536,36.09273999999999,88.73758399999998,0.406735657726092,178.02102860890884,0.934355368235294,-0.1486199999999939,-0.1237600000000043,0.1934022802347461,-0.0183400000000233,0.0708300000000008,0.0731658697754695,-0.1268999999999778,-0.1137939999999986,0.1704484802982826,-0.0484499999999457,0.0729359999999985,0.0875617644636888,-0.138149999999996,-0.1320799999999877,0.1911296651490701,-0.0404500000000211,0.0898900000000253,0.0985718752992265,-0.1047899999999799,-0.0877959999999973,0.1367080162828622,-0.0818999999999618,0.0918440000000089,0.1230566143528879,-0.1290899999999624,-0.1433559999999971,0.1929123397711755,-0.0639999999999645,0.1268400000000014,0.1420717621485558,-0.1157799999999724,-0.0830800000000095,0.1425036659177412,-0.1332999999999629,0.052449999999979,0.1432476614119333,-0.2669700000000148,-0.1375199999999949,0.3003077276728098,0.0041799999999625,0.1257940000000132,0.1258634293033645,-0.3153599999999983,-0.0224600000000094,0.3161587911161089,-0.2660200000000259,-0.0049700000000143,0.2660664227218721,-0.287869999999998,-0.0301800000000014,0.2894476970024101,0.0244800000000395,0.191590000000005,0.1931476080618237,-0.1892399999999838,-0.1680900000000065,0.2531126739221015,0.1781800000000544,-0.0828600000000108,0.1965041780726842,0.0465500000000247,0.0125299999999981,0.0482068812515625,-0.09797999999995,0.2327200000000004,0.2525048094591278,-0.1051199999999994,-0.1466900000000066,0.1804665356790611,0.2545799999999758,-0.1799100000000066,0.3117347983462707,-0.1764699999999948,-0.1617099999999993,0.239357024129224,0.3532900000000154,-0.1197200000000009,0.3730237291379881,-0.0354600000000004,-0.117919999999998,0.1231362578609548,0.4977200000000152,-0.264569999999992,0.5636687709107282,0.0508699999999748,-0.1436300000000017,0.1523723524790436,0.5340099999999666,-0.2170399999999972,0.5764312983348173,-0.1585000000000036,-0.0109999999999956,0.1588812449598789,0.6963499999999954,-0.2751299999999901,0.74873215464543,0.1847900000000208,-0.0601699999999993,0.1943393243787979,0.5743100000000254,-0.2220499999999958,0.6157419740443454,-0.154200000000003,-0.1498149999999896,136.217882,0.0729098593812964,107.0818628,0.2172704534151047,97.062804,0.1577974465255989,-0.0093345199999999,0.098798598,0.0189604215997764,0,0
7,233.3333333333333,492.10712,96.63192,0.95259535,494.19437,94.402916,0.923871,489.9303,94.517,0.9048895,497.75354,94.96409,0.75959486,486.6144,95.19195,0.6789479,502.28723,106.55227,0.9939737,482.7894,107.07173,0.9951816,508.18698,121.34924,0.96152604,477.8009,122.712555,0.9568613,510.04044,135.78552,0.93111205,474.43918,137.3698,0.91914076,498.41357,136.47537,0.994669,486.55798,136.61302,0.99518013,498.2245,160.41904,0.9839702,487.52768,160.38019,0.9831859,496.81274,183.74435,0.9618514,489.77356,183.70686,0.9606314,0.97715354,-0.27610547,0.93517219,0.06362217,165.5782931409555,175.2280724994955,176.9888308609765,176.8369111718183,0.1023324307947689,136.544195,106.812,96.63192,35.60125999999997,89.34143399999999,0.3984854284017262,178.4738903355134,0.9327754170588236,0.050389999999993,-0.2034400000000005,0.209587656363631,0.199009999999987,-0.0796799999999962,0.2143685669588576,0.0895699999999806,-0.1818999999999988,0.2027569848365183,0.2164699999999584,-0.0681060000000002,0.2269310206560179,0.0648499999999785,-0.2357500000000101,0.244506819945788,0.2029999999999745,-0.1036700000000223,0.2279396167847842,0.0580699999999865,-0.0896740000000022,0.1068342228688861,0.1628599999999664,-0.0018780000000049,0.162870827602702,0.0112499999999613,-0.2403539999999964,0.240617139489267,0.1403399999999237,-0.0969979999999992,0.1705987327150423,-0.0846300000000042,0.0745299999999957,0.1127694896680839,0.0311499999999682,0.1576100000000053,0.1606587520180575,-0.2514600000000087,-0.0739599999999995,0.262111070349965,0.0155100000000061,0.0635599999999954,0.0654250235001838,-0.2701200000000199,0.1707600000000013,0.319568133580323,0.0452399999999784,0.1932200000000108,0.1984455240110046,-0.2466799999999693,0.1078949999999991,0.2692440406489709,0.0411900000000287,0.1380750000000006,0.144087895830991,-0.2536000000000058,-0.0273200000000031,0.2550673291505659,-0.0643600000000219,0.1407700000000034,0.1547850202700628,0.2378800000000183,0.2674900000000093,0.357963398268613,0.1913299999999935,0.2549600000000112,0.3187660121468461,-0.2113100000000258,0.4309100000000114,0.4799326454826977,-0.1061900000000264,0.5776000000000181,0.5872802364289357,-0.2521199999999908,0.3848700000000065,0.4600971759313464,-0.075649999999996,0.5465800000000058,0.551790375867508,-0.3395600000000058,0.5575000000000045,0.6527689052030657,-0.3041000000000053,0.6754200000000026,0.7407219359516813,0.2296499999999923,0.5064399999999978,0.5560760704256156,0.1787800000000174,0.6500699999999995,0.6742056758141433,-0.6347599999999716,0.4665899999999965,0.7877985057741355,-0.4762599999999679,0.4775899999999922,0.6744744588937093,0.4841899999999555,0.3844600000000184,0.6182632511317255,0.2993999999999346,0.4446300000000178,0.5360374957966809,0.4078900000000089,0.562090000000012,136.294616,0.1541210604687064,106.9730278,0.1783110073290679,96.952794,0.2294284321525983,-0.0260384199999999,0.085337228,0.0135735497063376,0,0
8,266.6666666666667,492.19592,96.507996,0.95213205,494.28915,94.28966,0.9213073,490.02432,94.37304,0.9057635,497.7958,94.89894,0.7503314,486.6472,95.03218,0.6870622,502.22638,106.63129,0.99372417,482.64462,107.021835,0.995181,507.87207,121.64107,0.9588853,477.64276,122.81352,0.9571099,509.60736,136.05301,0.9269283,474.5021,137.56036,0.9187705,498.32938,136.9032,0.9943973,486.47583,137.00485,0.99504566,497.9724,161.01865,0.9829032,487.77856,160.94267,0.98251814,496.4587,184.41618,0.9593192,490.35034,184.32364,0.9587916,0.94990787,-0.29133549,0.90176441,0.06534169,166.25273481927016,174.4476717118946,177.1464989298389,176.8380509084916,0.0642771814766581,136.954025,106.8265625,96.507996,35.105260000000044,90.12652,0.3895108743851329,178.8574257900537,0.931774748235294,0.088799999999992,-0.1239239999999881,0.1524552320387714,0.0384099999999989,0.0795160000000123,0.0883069779575877,0.0947800000000143,-0.1132560000000069,0.147682666335641,0.0052100000000336,0.0686439999999919,0.0688414325533631,0.0940200000000004,-0.1439599999999927,0.1719425543604549,0.0291700000000219,0.0917900000000173,0.0963135141088957,0.0422599999999988,-0.0651500000000027,0.0776558439526624,-0.0158099999999876,0.0245239999999995,0.0291784625365968,0.0328000000000088,-0.1597700000000088,0.1631020934874945,0.0215500000000474,0.0805839999999875,0.083415727270102,-0.0608500000000162,0.079020000000014,0.0997340608819484,0.0237799999999879,0.0044900000000183,0.024200175619189,-0.1447800000000256,-0.0498950000000064,0.1531364079016093,0.106679999999983,0.0240649999999931,0.1093606264841055,-0.3149099999999976,0.2918300000000045,0.429340257837535,-0.0447899999999776,0.1210700000000031,0.1290894612274711,-0.158140000000003,0.1009650000000021,0.1876224688703392,0.0885399999999663,-0.0069299999999969,0.0888107904479742,-0.4330799999999613,0.2674900000000093,0.5090276873608856,-0.1794799999999554,0.2948100000000124,0.3451463551886233,0.0629199999999627,0.1905600000000049,0.2006789475754674,-0.1749600000000555,-0.0769300000000043,0.191126205686243,-0.0841899999999782,0.4278300000000001,0.4360349355269557,0.1271200000000476,-0.0030800000000112,0.1271573073008869,-0.0821500000000128,0.3918299999999988,0.4003490619446999,0.1699699999999779,0.0069599999999923,0.1701124407560846,-0.2520999999999844,0.5996100000000126,0.6504510451217734,0.0874600000000214,0.042110000000008,0.097069581744254,0.2508800000000519,0.5624799999999937,0.6158932738713899,0.0212300000000595,0.0560399999999958,0.0599265759075392,-0.3540399999999977,0.6718299999999999,0.7594075786427196,0.2807199999999739,0.2052400000000034,0.3477458497235973,0.576780000000042,0.6167800000000057,0.8444481847929187,0.0925900000000865,0.2323199999999872,0.2500909644509574,0.4098299999999995,0.0019399999999905,136.443984,0.3204041422640925,106.8987459,0.1327049820007154,96.8176212,0.2567318431110542,0.0017195199999999,0.0799330279999999,0.0153411419222761,0,0
9,300.0,492.14233,96.44174,0.95217234,494.2733,94.21124,0.9209174,489.9474,94.28228,0.9065182,497.7968,94.8652,0.74745816,486.5192,94.96232,0.6899321,502.09998,106.72108,0.9935214,482.51807,107.053,0.9951013,507.5514,121.91464,0.9572342,477.6453,122.930756,0.95658463,509.24075,136.40717,0.92443246,474.80942,137.58383,0.91770947,498.23035,137.24153,0.99402136,486.39297,137.33221,0.9947635,497.69803,161.4729,0.98138934,487.88348,161.38617,0.98118263,496.0348,184.81854,0.9556616,490.55267,184.70624,0.9554722,0.96845025,-0.31442616,0.91232716,0.08179993,166.91089874787474,173.89243479302962,177.18340304185568,177.01621505636035,0.01551255431626,137.28687000000002,106.88704,96.44174,34.43133,90.6073,0.3800061321769202,179.02891014677695,0.930827781764706,-0.0535899999999855,-0.0662560000000098,0.0852158766662631,-0.1423899999999776,0.0576679999999782,0.1536245759115094,-0.0158500000000003,-0.0784199999999941,0.0800057429188623,-0.1106300000000146,0.0348360000000127,0.1159851016122507,-0.0769199999999727,-0.090760000000003,0.1189708535734545,-0.1709399999999732,0.0531999999999897,0.1790271588334846,0.0010000000000331,-0.0337399999999945,0.0337548159526859,-0.0412599999999656,0.0314100000000081,0.0518553343446716,-0.1279999999999859,-0.0698599999999913,0.1458232478036173,-0.1607999999999947,0.0899100000000174,0.1842293356118982,-0.1263999999999896,0.0897899999999936,0.1550458129070122,-0.0655499999999733,0.0107699999999795,0.0664288747458216,-0.1265499999999519,0.0311650000000014,0.1303309622652573,0.0182300000000736,0.0810600000000079,0.0830846345602119,-0.3206700000000069,0.2735700000000065,0.4215089486594655,-0.0057600000000093,-0.0182599999999979,0.0191469370918701,0.0025400000000104,0.1172360000000054,0.1172635122107526,0.1606800000000134,0.0162710000000032,0.1615017270526988,-0.3666100000000369,0.3541600000000073,0.5097373811091671,0.0664699999999243,0.086669999999998,0.1092243095651769,0.3073200000000042,0.0234700000000032,0.3082148979202705,0.2444000000000414,-0.1670900000000017,0.2960581498625242,-0.0990300000000274,0.3383300000000133,0.3525253605061832,-0.0148400000000492,-0.0894999999999868,0.0907219686735197,-0.0828599999999823,0.3273599999999987,0.3376838006182652,-0.0007099999999695,-0.06447,0.0644739094518081,-0.2743699999999762,0.4542500000000018,0.5306806567041883,-0.0222699999999917,-0.1453600000000108,0.1470560522386031,0.1049199999999928,0.4435000000000002,0.4557416553267857,-0.1459600000000591,-0.1189799999999934,0.1883097501459117,-0.4239000000000033,0.4023600000000158,0.5844525469189227,-0.0698600000000055,-0.2694699999999841,0.2783783405726678,0.2023299999999608,0.3825999999999965,0.4328050241159192,-0.3744500000000812,-0.2341800000000091,0.4416481347181997,0.3328450000000202,-0.0769849999999792,136.64238,0.474883717766765,106.8518665,0.0499994008590247,96.6752272,0.2182863348430191,0.01645824,0.079883898,0.0153330763405299,0,0
10,333.3333333333333,492.0548,96.43885,0.9509771,494.21884,94.20574,0.91924894,489.86166,94.26155,0.90461284,497.76785,94.89182,0.7446818,486.42615,94.94555,0.6869456,501.9686,106.80282,0.99322516,482.41013,107.08662,0.99484706,507.25436,122.04059,0.95516926,477.62405,122.9807,0.9543102,508.98706,136.41223,0.92120713,475.06406,137.43904,0.9140317,498.09988,137.39432,0.993686,486.2959,137.47496,0.99445575,497.43945,161.66093,0.98056525,487.92676,161.56538,0.98032814,495.69003,185.0189,0.9542733,490.6737,184.87949,0.9540433,0.94013686,-0.30828503,0.88407794,0.08499332,167.7437030736704,173.28243187946794,177.27571978714897,177.1530833678919,0.0217249953905151,137.43464,106.94472,96.43885,33.923,90.81316,0.3735471778148985,179.16867724563917,0.9292122664705884,-0.0875300000000152,-0.0028899999999936,0.0875776969325103,-0.0339400000000296,0.0633660000000162,0.0718830547208733,-0.0544600000000059,-0.0054999999999978,0.0547370222061871,-0.0386100000000055,0.0729199999999963,0.0825109598780664,-0.0857400000000438,-0.0207300000000003,0.0882104330564562,-0.0088200000000711,0.0700300000000027,0.0705832366784184,-0.0289500000000089,0.026619999999994,0.0393284489905234,-0.0299500000000421,0.0603599999999886,0.0673819864652352,-0.0930500000000051,-0.0167700000000081,0.0945491163364377,0.0349499999999807,0.0530899999999832,0.0635613923698723,-0.1313800000000355,0.0817399999999963,0.1547324529631995,-0.0049800000000459,-0.0080499999999972,0.0094658808359503,-0.1079400000000418,0.033619999999999,0.1130546239656255,0.01860999999991,0.0024549999999976,0.0187712313127466,-0.2970399999999813,0.1259499999999889,0.3226393715899938,0.0236300000000255,-0.1476200000000176,0.149499302005081,-0.021250000000009,0.0499439999999964,0.0542767504185726,-0.0237900000000195,-0.067292000000009,0.0713735060369192,-0.2536900000000059,0.005059999999986,0.2537404573575189,0.112920000000031,-0.3491000000000213,0.3669083487739436,0.2546399999999948,-0.1447900000000004,0.2929260550036434,-0.0526800000000093,-0.1682600000000036,0.1763139529362387,-0.1304700000000025,0.1527899999999817,0.2009159152481333,-0.031439999999975,-0.1855400000000315,0.1881849228817498,-0.0970699999999737,0.1427500000000066,0.1726271919484204,-0.0142099999999913,-0.1846099999999921,0.1851560860463324,-0.2585799999999949,0.1880299999999977,0.3197169018053261,0.0157899999999813,-0.2662200000000041,0.2666878559289897,0.0432799999999815,0.1792100000000118,0.1843620961586265,-0.0616400000000112,-0.2642899999999883,0.271382928166079,-0.3447700000000395,0.2003599999999892,0.398761184796142,0.0791299999999637,-0.2020000000000266,0.2169459769159248,0.1210300000000188,0.1732499999999959,0.2113381730781335,-0.0812999999999419,-0.2093500000000006,0.2245820841028749,0.1477699999999799,-0.1850750000000403,136.871207,0.5348151769372905,106.8564075,0.0583044109610159,96.5711732,0.1671366058982835,0.0031933899999999,0.0770835399999999,0.0118540147701358,0,0
11,366.6666666666666,491.95526,96.512215,0.950663,494.14212,94.27092,0.9196219,489.76822,94.315796,0.90337974,497.7369,94.92753,0.7472201,486.34833,94.95546,0.6816971,501.97922,106.840675,0.99314743,482.34512,107.056244,0.9947049,507.24847,122.20906,0.9549605,477.57782,122.95813,0.9529264,508.7156,136.57639,0.92072654,474.97028,137.3565,0.91195303,498.0261,137.42383,0.9935515,486.151,137.4638,0.99428976,497.37128,161.6994,0.98025954,487.6573,161.56155,0.97983253,495.75897,185.06354,0.9537631,490.48312,184.86375,0.9531961,0.92156354,-0.30189825,0.86688276,0.08155429,166.90564465977442,173.57654053261646,177.59754219646126,176.6623804077941,0.139095740623772,137.443815,106.9484595,96.512215,33.74531999999999,90.79262,0.3716746981012917,179.37095677232088,0.9285819511764706,-0.0995399999999904,0.0733649999999954,0.1236553064975273,-0.0120099999999752,0.076254999999989,0.0771949812163831,-0.0767200000000229,0.065179999999998,0.1006697114329989,-0.022260000000017,0.0706799999999958,0.0741024291099838,-0.0934399999999868,0.0542460000000062,0.1080447227586716,-0.0076999999999429,0.0749760000000065,0.0753703560824818,-0.0309500000000184,0.0357100000000087,0.0472557573212171,-0.0020000000000095,0.0090900000000146,0.0093074217697655,-0.077820000000031,0.0099100000000049,0.0784484576011851,0.015229999999974,0.0266800000000131,0.0307209260928102,0.0106200000000171,0.0378550000000075,0.0393164777796909,0.1420000000000527,-0.0438849999999888,0.1486266908230618,-0.0650099999999724,-0.0303759999999897,0.0717565430883888,0.0429300000000694,-0.0639959999999888,0.0770614878911933,-0.0058900000000221,0.1684699999999992,0.1685729308044444,0.2911499999999591,0.0425200000000103,0.2942384626454826,-0.0462300000000368,-0.0225700000000017,0.0514452893859436,-0.0249800000000277,-0.0725139999999981,0.0766960272504458,-0.2714599999999905,0.1641600000000096,0.3172365634664422,-0.0177699999999845,0.1591000000000235,0.1600892966441134,-0.0937799999999811,-0.0825399999999945,0.1249301404785712,-0.3484199999999759,0.0622500000000059,0.3539372245186765,-0.0737799999999992,0.0295100000000161,0.0794627491344268,0.0566900000000032,-0.1232799999999656,0.1356897730117929,-0.1449000000000069,-0.011160000000018,0.1453291285324535,-0.0478300000000331,-0.1539100000000246,0.1611707076363777,-0.0681700000000091,0.0384699999999895,0.0782757293163113,0.1904099999999857,-0.1495600000000081,0.2421242691264075,-0.2694599999999809,-0.0038299999999935,0.2694872176931397,-0.3127399999999625,-0.1830400000000054,0.3623671469655858,0.0689399999999977,0.0446399999999869,0.0821307080208038,0.4137100000000373,-0.1557200000000023,0.4420460185320433,-0.1905800000000113,-0.0157399999999938,0.1912288785722598,-0.3116100000000301,-0.1889899999999897,0.364442056025392,0.009174999999999,-0.1385949999999809,137.13270900000003,0.3840545488500871,106.8837564,0.0639021847078486,96.5065442,0.0783189727537299,-0.0034390299999999,0.07546228,0.0101332825827122,0,0
12,400.0,491.80075,96.60422,0.9506714,494.00208,94.35411,0.92066735,489.6208,94.394936,0.902077,497.65982,94.94848,0.7513262,486.2305,94.97363,0.6744816,501.90726,106.81211,0.99320203,482.34277,107.00013,0.99461335,507.16608,122.290405,0.95585376,477.618,122.91612,0.9518671,508.4947,136.64749,0.92198586,474.91937,137.17279,0.91066986,497.95273,137.68309,0.9936504,486.0858,137.70445,0.99429977,497.41614,162.31114,0.9805382,487.53873,162.15916,0.97981745,496.02307,186.04596,0.9542734,490.30786,185.81628,0.95320195,0.97786439,-0.374118,0.8995536,0.08401074,166.5217307533993,174.18475858318251,177.88913353622965,176.7238752034674,0.1973409055911709,137.69377,106.90612,96.60422,33.57533000000001,91.69185,0.3661757248198644,179.4493891312715,0.9284233341176472,-0.1545100000000161,0.0920050000000003,0.1798284185689376,-0.0549700000000257,0.0186400000000048,0.05804438387995,-0.140039999999999,0.0831900000000018,0.1628857811474041,-0.063319999999976,0.0180100000000038,0.0658314704377557,-0.147420000000011,0.0791399999999953,0.1673194429825849,-0.0539800000000241,0.024893999999989,0.0594436845762614,-0.0770799999999667,0.0209499999999991,0.0798763350435836,-0.0461299999999482,-0.0147600000000096,0.0484338156662833,-0.1178299999999694,0.0181699999999978,0.1192227235051805,-0.0400099999999383,0.0082599999999928,0.0408537354472629,-0.07195999999999,-0.0285650000000003,0.0774222243609584,-0.0825800000000072,-0.0664200000000079,0.1059767559420566,-0.0023500000000353,-0.0561140000000079,0.0561631863056314,0.0626599999999371,-0.0257380000000182,0.0677400933273128,-0.0823899999999753,0.0813450000000131,0.1157804868058433,-0.0764999999999531,-0.0871249999999861,0.1159440193584404,0.0401800000000207,-0.0420099999999905,0.0581315103880922,0.0864100000000576,-0.0194399999999888,0.0885697561248167,-0.2208999999999719,0.0711000000000012,0.2320603800737811,0.0505600000000185,-0.0930600000000083,0.105907871284449,-0.0509099999999875,-0.1837100000000191,0.1906336596721727,0.0428699999999935,-0.1011700000000246,0.1098781406832333,-0.0733700000000112,0.2592599999999834,0.2694418388075487,0.000409999999988,0.2297499999999672,0.2297503658321025,-0.0652000000000043,0.2406500000000164,0.2493260164924801,0.0797000000000025,0.2518100000000345,0.2641218773597102,0.0448599999999714,0.6117399999999975,0.6133826270770916,0.1130299999999806,0.5732700000000079,0.5843066607527291,-0.1185700000000338,0.5976100000000031,0.6092590229122682,0.1508899999999471,0.6014399999999966,0.620078918928857,0.2641000000000417,0.982420000000019,1.0172993003045168,0.1951600000000439,0.937780000000032,0.9578719924917304,-0.1752599999999802,0.952529999999996,0.968519214316363,0.015320000000031,0.9682699999999896,0.9683911891895656,0.2499549999999999,0.2407800000000008,137.362624,0.2711677374659914,106.9025804,0.0497830082099841,96.5010042,0.0674600968217495,0.0024564499999999,0.079539994,0.0080697408544964,0,0
13,433.33333333333337,491.87238,96.61007,0.9509829,494.06586,94.35266,0.91984445,489.67377,94.39522,0.9037927,497.6897,94.9252,0.74623984,486.2328,94.94857,0.6815059,501.89297,106.76976,0.9932079,482.29224,106.9639,0.99478215,507.14432,122.27243,0.9553578,477.53293,122.94829,0.95367867,508.58456,136.72461,0.92144614,474.8313,137.37625,0.91322917,497.93176,137.6915,0.99375993,486.06897,137.72107,0.99449253,497.271,162.35593,0.9808648,487.5735,162.21227,0.9804993,495.77316,186.16946,0.95499116,490.39468,185.9626,0.9545172,0.93613501,-0.4146495,0.83322933,0.10071463,166.977836111851,174.0250324831202,177.93549543264717,176.74121320194263,0.1719896961257827,137.70628499999998,106.86683,96.61007,33.75326000000001,91.8168,0.3676152908006457,179.43251915071784,0.9290113258823528,0.0716300000000274,0.0058499999999952,0.0718684868353569,0.2261400000000435,-0.086155000000005,0.2419958339001326,0.0637800000000083,-0.0014500000000055,0.0637964803104457,0.2038200000000074,-0.0846400000000073,0.2206955414139675,0.0529700000000161,0.0002839999999935,0.0529707613311505,0.2003900000000271,-0.0788560000000018,0.2153472099564124,0.0298799999999914,-0.0232799999999997,0.0378783948973485,0.1069599999999582,-0.0442299999999988,0.1157442633567251,0.002299999999991,-0.0250599999999963,0.0251653253505646,0.1201299999999605,-0.0432299999999941,0.127671648379701,-0.0142900000000167,-0.042349999999999,0.0446959349382065,0.0576699999999732,-0.0137849999999986,0.059294646680766,-0.0505299999999806,-0.0362300000000033,0.0621763122097015,-0.0481799999999452,0.0198840000000046,0.0521218366521644,-0.0217600000000288,-0.0179750000000069,0.0282240717296691,0.0606299999999464,-0.09932000000002,0.1163634792363888,-0.0850699999999733,0.0321699999999935,0.0909495123680993,-0.1252499999999941,0.0741799999999841,0.1455686604321004,0.0898599999999874,0.0771200000000078,0.1184158519793652,0.3107599999999593,0.0060200000000065,0.310818303836783,-0.088070000000016,0.2034600000000068,0.2217031720567065,-0.0371600000000285,0.387170000000026,0.388949192697481,-0.020969999999977,0.0084099999999978,0.0225935610296164,0.0524000000000342,-0.2508499999999856,0.2562644776397937,-0.0168300000000272,0.0166199999999889,0.0236531879458256,0.0483699999999771,-0.2240300000000274,0.2291922725573663,-0.1451399999999694,0.0447900000000061,0.1518939225248715,-0.1899999999999408,-0.5669499999999914,0.5979400492524044,0.0347700000000372,0.0531099999999753,0.0634793273436319,0.153340000000071,-0.5445000000000277,0.5656795962380577,-0.2499099999999998,0.1234999999999786,0.2787602161356506,-0.5140100000000416,-0.8589200000000403,1.0009744484751406,0.0868199999999888,0.1463200000000029,0.1701389279383142,0.262079999999969,-0.806209999999993,0.8477384564238976,0.0125149999999791,-0.2374400000000207,137.513076,0.181726777037414,106.9106339,0.0356667467476351,96.521419,0.0836153422225784,0.01670389,0.086614582,0.0080157230840747,0,0
14,466.6666666666667,491.91287,96.5808,0.95202875,494.08307,94.32266,0.92036563,489.6909,94.375,0.9062601,497.66327,94.89221,0.7441052,486.19522,94.93517,0.68840194,501.80887,106.709564,0.99337775,482.27023,106.91669,0.99502784,507.08765,122.206024,0.95627904,477.46045,122.86229,0.9561307,508.67194,136.74416,0.92320234,474.71487,137.2601,0.9171884,497.9096,137.66669,0.9939785,486.0982,137.71152,0.99475205,497.18512,162.40515,0.9812856,487.66046,162.28497,0.9811607,495.63544,186.29431,0.95549047,490.4481,186.1349,0.95542777,1.07686551,-0.21051814,1.03097391,0.22894155,167.40813719410062,174.01110871884168,177.96590425133564,176.97106214616483,0.0677428947671975,137.68910499999998,106.813127,96.5808,33.95706999999999,91.97165,0.3692123565336452,179.39263934892406,0.9302625164705882,0.040489999999977,-0.0292699999999968,0.0499617153428297,-0.0311400000000503,-0.035119999999992,0.0469373412114765,0.0172100000000341,-0.0300000000000011,0.0345858945236529,-0.0465699999999742,-0.0285499999999956,0.0546247874137497,0.0171300000000087,-0.0202199999999947,0.0265006660293678,-0.0358400000000074,-0.0205039999999883,0.0412906722638425,-0.0264300000000048,-0.032989999999998,0.0422715625450506,-0.0563099999999963,-0.0097099999999983,0.0571410552930163,-0.0375799999999912,-0.0134000000000042,0.039897573861069,-0.0398799999999823,0.011659999999992,0.041549608903074,-0.084099999999978,-0.0601960000000048,0.1034232489143369,-0.0698099999999612,-0.0178460000000058,0.0720549499756595,-0.0220099999999661,-0.0472099999999926,0.0520886187184668,0.0285200000000145,-0.0109799999999893,0.0305606086326924,-0.0566699999999968,-0.0664060000000006,0.0872997464830209,-0.034909999999968,-0.0484309999999936,0.0597015063545062,-0.0724800000000414,-0.0859999999999985,0.1124693309307286,0.0125899999999319,-0.1181699999999921,0.1188387857561512,0.087379999999996,0.019549999999981,0.0895403087999955,-0.0024799999999913,-0.0575700000000267,0.0576233919515593,-0.1164299999999798,-0.1161500000000046,0.1644590143470292,-0.0283599999999637,-0.3196100000000115,0.3208657689751359,-0.0221599999999853,-0.0248100000000022,0.0332656233971266,-0.0011900000000082,-0.03322,0.0332413071343474,0.0292300000000409,-0.0095499999999901,0.0307505349547321,0.0460600000000681,-0.0261699999999791,0.0529753952321753,-0.0858800000000314,0.0492199999999911,0.0989847604432345,0.0592599999999379,0.004429999999985,0.0594253523337683,0.0869599999999763,0.0726999999999975,0.113346070068598,0.0521899999999391,0.0195900000000222,0.055745530762515,-0.1377200000000016,0.1248500000000092,0.1858879256433907,0.1121899999999982,0.0013500000000306,0.1121981220876699,0.0534200000000169,0.1722999999999785,0.1803912037766654,-0.0333999999999719,0.0259799999999756,0.0423145412358075,-0.0171799999999962,-0.0296949999999753,137.593523,0.1410292002827775,106.8958513,0.0568919247583579,96.549231,0.0729313465184769,0.12822692,0.116042906,0.0635622941396653,0,0
15,500.0,491.84875,96.7317,0.9535566,494.203,94.58336,0.9241377,489.72815,94.41794,0.8986125,497.9261,95.37541,0.7635866,486.36813,95.00609,0.6337593,502.5886,107.54083,0.99305445,481.80063,107.36409,0.9939839,507.52927,123.07539,0.96784896,476.39792,122.535645,0.9626459,508.10962,136.3852,0.9486843,474.62994,136.3069,0.939558,498.36853,138.0705,0.9943446,485.85556,138.05064,0.9947655,496.6862,162.62732,0.9857795,488.0126,162.44919,0.98465216,495.6787,185.10376,0.9633353,490.782,184.62112,0.9607293,1.04033616,-0.33702554,0.9508935,0.25399738,164.85375415662477,167.71450894605033,178.64746886639875,177.9326018598777,0.1552559970036497,138.06056999999998,107.45246,96.7317,33.47968000000003,90.68582,0.3691831824514224,-179.51288114778637,0.9331196805882352,-0.0641200000000026,0.1509000000000071,0.1639578738578982,-0.1046099999999796,0.1801700000000039,0.2083374210265577,0.1199299999999539,0.2606999999999999,0.2869628807006036,0.1027199999999197,0.290700000000001,0.3083145932322765,0.0372500000000286,0.0429400000000015,0.0568454580419778,0.0201200000000199,0.0631599999999963,0.0662872536767087,0.2628300000000081,0.4831999999999965,0.5500562233990276,0.2892600000000129,0.5161899999999946,0.5917123149808544,0.1729100000000016,0.0709200000000009,0.1868890432850484,0.2104899999999929,0.0843200000000052,0.226750749723122,0.7797299999999723,0.8312659999999994,1.1397289307795762,0.8638299999999504,0.8914620000000042,1.2413326574065155,-0.469600000000014,0.4474000000000018,0.6486069071479387,-0.4475900000000479,0.4946099999999944,0.667065109415893,0.4416200000000003,0.8693659999999994,0.9751027978403094,0.4982899999999972,0.935772,1.060170816464968,-1.062529999999981,-0.3266449999999992,1.1116055761487342,-0.9900499999999396,-0.2406450000000006,1.0188763509498495,-0.5623199999999997,-0.3589599999999961,0.6671252236274663,-0.6496999999999957,-0.3785099999999772,0.751917488890887,-0.0849300000000425,-0.9531999999999812,0.956976146463417,0.0314999999999372,-0.8370499999999765,0.8376424968326026,0.4589300000000094,0.4038100000000213,0.6112931056375704,0.4810899999999947,0.4286200000000235,0.6443311978323066,-0.2426399999999944,0.3391199999999799,0.4169850644807121,-0.2718700000000353,0.34866999999997,0.4421358001790834,-0.4989199999999982,0.2221700000000055,0.5461507807373351,-0.4130399999999667,0.1729500000000143,0.447787610480658,0.3521400000000199,0.1642200000000002,0.3885495952899888,0.2651800000000435,0.0915200000000027,0.2805286844513829,0.0432599999999752,-1.1905500000000018,1.1913356916083735,0.1809799999999768,-1.315400000000011,1.3277917458698183,0.3338999999999714,-1.513779999999997,1.550167442052623,0.2804799999999545,-1.6860799999999756,1.709249776012825,0.3714650000000006,0.3886449999999968,137.718709,0.220277303000977,106.9973993,0.2592353554045085,96.607801,0.0794271230751647,0.02505583,0.149843718,0.0844327344572854,0,0
16,533.3333333333334,491.8759,96.64507,0.953664,494.24878,94.49681,0.92516196,489.75644,94.317856,0.89786255,498.0065,95.294495,0.7671146,486.4051,94.88938,0.62833464,502.6729,107.527596,0.99297595,481.87912,107.20309,0.9938258,507.56543,123.32388,0.96775,476.3775,122.27614,0.96158785,507.95496,136.915,0.948463,474.53235,135.95445,0.938248,498.4018,138.04868,0.9941326,485.90128,137.9627,0.9945262,496.57755,162.68665,0.9851562,488.07913,162.44783,0.98383176,495.7103,185.23347,0.96159935,491.0825,184.66792,0.9585783,1.02423427,-0.31196971,0.89267553,0.39352399,164.4325365416285,167.63066018782845,177.9681795602594,177.3851312654726,0.2332106980981408,138.00569000000002,107.365343,96.64507,33.42261000000002,90.915614,0.3676223275836611,-179.10591941181545,0.9325183976470588,0.027150000000006,-0.0866299999999995,0.0907847971854332,0.0912700000000086,-0.2375300000000066,0.2544616155729676,0.0457800000000361,-0.0865500000000025,0.0979117505716436,-0.0741499999999177,-0.3472500000000025,0.3550785617296397,0.0282899999999699,-0.1000839999999954,0.1040054381078094,-0.0089600000000586,-0.1430239999999969,0.1433043829615834,0.0803999999999973,-0.0809150000000045,0.114067511698118,-0.1824300000000107,-0.564115000000001,0.5928797838727553,0.0369699999999966,-0.1167099999999976,0.1224255079630025,-0.135940000000005,-0.1876299999999986,0.2316995910656746,0.0843000000000415,-0.013233999999997,0.0853324601544273,-0.6954299999999307,-0.8444999999999965,1.093984979284404,0.0784899999999879,-0.1610000000000013,0.1791135955197107,0.548090000000002,-0.6084000000000032,0.8188731330920597,0.0361599999999953,0.2484900000000038,0.2511071996180149,-0.405460000000005,-0.6208759999999955,0.7415421896129704,-0.0204200000000014,-0.2595050000000043,0.2603071674483864,1.0421099999999797,0.0671399999999948,1.044270573989307,-0.1546599999999784,0.5297999999999945,0.5519128152163052,0.4076600000000212,0.8887599999999907,0.9777939523232902,-0.0975899999999683,-0.3524500000000046,0.3657113760877518,-0.0126599999999257,0.6007499999999766,0.6008833814476566,0.033269999999959,-0.0218200000000194,0.039786999132859,-0.4256600000000503,-0.4256300000000408,0.6019529321301439,0.0457199999999602,-0.0879399999999748,0.099114892927309,0.2883599999999546,-0.4270599999999547,0.515297713171653,-0.1086500000000114,0.0593299999999885,0.1237936646198065,0.3902699999999868,-0.1628400000000169,0.4228800521424429,0.0665300000000002,-0.0013599999999769,0.0665438990441645,-0.2856100000000197,-0.1655799999999772,0.3301360454418809,0.0316000000000258,0.1297100000000171,0.1335037231690789,-0.0116599999999493,1.3202600000000189,1.3203114871877957,0.3004999999999995,0.0468000000000188,0.3041224917693551,-0.0333999999999719,1.5605800000000158,1.5609373774754858,-0.0548799999999687,-0.4263449999999693,137.83108399999998,0.1855660535156534,107.080776,0.3029195313106983,96.634372,0.0590696120691216,0.13952661,0.212237658,0.1262607983832934,0,0
17,566.6666666666666,491.9449,96.32648,0.9540591,494.29373,94.172554,0.9254653,489.80594,94.01013,0.89940333,498.01337,94.9984,0.76514983,486.39136,94.618576,0.63083464,502.7196,107.31338,0.9928981,481.80603,106.97088,0.9938046,507.68256,123.243835,0.96733975,476.16077,122.10341,0.9616462,508.43787,137.01144,0.94783664,474.30334,135.81564,0.9381417,498.4149,137.90762,0.9940316,485.84286,137.79842,0.9944581,496.38705,162.67969,0.9848797,487.5864,162.41342,0.98359805,495.77435,185.52235,0.960853,490.77444,184.95033,0.95789146,0.92522559,-0.1129969,0.90201005,0.17219745,165.83632260007397,167.2559498625209,176.85663560667635,176.00007057826528,0.2503016999772879,137.85302,107.14213,96.32648,34.134529999999984,91.51222,0.3730051530494488,-179.06175510096938,0.932487711764706,0.0690000000000168,-0.3185900000000004,0.3259763612595284,0.0418500000000108,-0.2319600000000008,0.2357050362211238,0.0449499999999716,-0.3242559999999912,0.3273567717888111,-0.0008300000000645,-0.2377059999999886,0.2377074490544936,0.0495000000000231,-0.3077260000000024,0.3116817945854453,0.0212100000000532,-0.207642000000007,0.2087224574980017,0.0068699999999921,-0.296094999999994,0.2961746881909329,-0.0735300000000052,-0.2151799999999895,0.2273963352826871,-0.0137399999999843,-0.2708039999999982,0.2711523446625506,-0.0507099999999809,-0.1540940000000006,0.1622235030320769,0.046699999999987,-0.2142160000000075,0.219247313908294,-0.0376000000000544,-0.2009820000000104,0.2044688835104458,-0.0730899999999792,-0.2322100000000091,0.243441229457956,-0.1515799999999671,-0.0712100000000077,0.1674734620768053,0.1171300000000314,-0.0800449999999983,0.1418683859251493,0.0809700000000361,-0.3285350000000022,0.3383657593862111,-0.2167299999999841,-0.1727300000000013,0.277141743156807,-0.1963099999999826,0.0867750000000029,0.2146334473584993,0.4829099999999471,0.0964400000000011,0.4924456738564662,0.6375699999999256,-0.4333599999999933,0.770906216410206,-0.2290100000000166,-0.1388100000000065,0.2677943169673498,-0.1314200000000482,0.213639999999998,0.2508251701883442,0.0131000000000085,-0.1410599999999817,0.1416669813329664,-0.0201699999999505,-0.1192399999999622,0.1209338930986222,-0.0584200000000123,-0.1642800000000193,0.1743582943252422,-0.1041399999999725,-0.0763400000000444,0.1291237205164143,-0.1904999999999859,-0.0069599999999923,0.1906271009064412,-0.0818499999999744,-0.0662899999999808,0.105327045909364,-0.4927299999999945,-0.0344100000000082,0.4939300567894155,-0.5592599999999948,-0.0330500000000313,0.5602357094116692,0.0640500000000088,0.2888799999999776,0.2958953478850051,0.0324499999999829,0.1591699999999605,0.1624441177758872,-0.3080599999999549,0.2824099999999987,0.4179190970749859,-0.6085599999999545,0.2356099999999799,0.6525774633711581,-0.1526700000000005,-0.0977900000000318,137.862934,0.1690362253109421,107.127978,0.2868625196666312,96.578824,0.1520010816737802,-0.22132654,0.229875,0.1088265287353299,0,0
18,600.0,492.08893,95.710175,0.95429564,494.37897,93.550026,0.92384565,489.91803,93.41379,0.90220916,497.96164,94.5009,0.7568048,486.36765,94.16574,0.6435216,502.69528,107.091415,0.992857,481.71384,106.80157,0.9939892,507.74338,123.18103,0.96644753,476.1607,122.15364,0.96308917,508.804,137.172,0.94649273,474.14908,136.04755,0.9395564,498.41415,138.0173,0.9940474,485.7892,137.92026,0.9945844,496.16888,162.85048,0.9847473,487.05945,162.59853,0.9838172,495.7502,185.80699,0.96041363,490.33005,185.30356,0.95809954,1.06108608,-0.13387676,1.04694086,0.10906658,166.91596009084336,168.35224616568274,175.87854103092857,174.74962767619957,0.190576061592766,137.96878,106.9464925,95.710175,34.65491999999995,92.3932,0.3750808460462361,-179.2085462706898,0.9328716676470588,0.1440299999999865,-0.616304999999997,0.6329111264032198,0.0750299999999697,-0.2977149999999966,0.3070239764659976,0.0852399999999988,-0.6225280000000026,0.6283366680243985,0.0402900000000272,-0.2982720000000114,0.3009808467062464,0.1120899999999665,-0.5963399999999979,0.6067829625986461,0.0625899999999433,-0.2886139999999955,0.2953227879727372,-0.0517300000000204,-0.4975000000000023,0.5001822096996298,-0.0586000000000126,-0.2014050000000082,0.2097568450015513,-0.0237099999999941,-0.4528360000000049,0.4534562900611306,-0.0099700000000098,-0.1820320000000066,0.1823048269355548,-0.0243199999999887,-0.2219649999999973,0.2232933577717847,-0.0710199999999758,-0.0077489999999897,0.0714414963518851,-0.0921900000000164,-0.1693099999999958,0.192781929132379,-0.0191000000000372,0.0629000000000132,0.065735987099937,0.0608199999999783,-0.0628049999999973,0.0874273436917594,-0.0563100000000531,0.017240000000001,0.0588900135846989,-6.999999999379725e-05,0.0502299999999991,0.0502300487756075,0.2166599999999903,0.2229600000000005,0.3108902011964932,0.3661299999999983,0.1605600000000038,0.3997883071076491,-0.1167799999999488,0.0641200000000026,0.1332251582847188,-0.1542599999999652,0.2319099999999991,0.2785289853857025,0.0747500000000513,0.3707200000000057,0.3781810160492088,-0.0007499999999822,0.1096799999999973,0.1096825642479213,-0.0138499999999908,0.2507399999999791,0.2511222214380664,-0.0536599999999793,0.1218400000000201,0.1331329455844897,0.0047600000000329,0.2861200000000394,0.2861595918364836,-0.2181699999999864,0.1707900000000108,0.2770692566850349,-0.0276700000000005,0.1777500000000031,0.1798907763060717,-0.5269499999999994,0.1851100000000087,0.5585176940796079,-0.0342200000000048,0.219520000000017,0.2221711925520673,-0.0241500000000201,0.2846400000000244,0.2856626543670258,-0.0882000000000289,-0.0042399999999531,0.0883018550201789,-0.4443899999999985,0.3532299999999964,0.5676741186631605,-0.1363300000000435,0.0708199999999976,0.1536272804550401,0.1157599999999945,0.268429999999995,137.915433,0.1476285231412411,107.1439105,0.2704763884255619,96.398845,0.4135304963965919,-0.06313087,0.23154539,0.1063851206430267,0,0
19,633.3333333333333,492.2608,95.0083,0.9549236,494.56067,92.85368,0.92419547,490.10486,92.69993,0.90371794,498.0829,93.919716,0.7564385,486.48413,93.537506,0.6479011,502.73013,106.7675,0.9930455,481.7233,106.42292,0.99416566,507.85806,122.992325,0.96724886,476.3185,121.867096,0.96411276,508.75443,137.01552,0.94762206,473.89575,135.80588,0.9409539,498.19946,138.03078,0.9942399,485.53226,137.90428,0.9947654,495.87195,162.77022,0.98508644,486.5987,162.49954,0.9841797,495.99112,185.62717,0.96111625,490.24866,185.12701,0.95881313,1.12025907,-0.31000454,1.04964296,0.23901301,166.11802102445262,170.57241443376356,174.3266556260962,173.3195092019252,0.6591650561522436,137.96753,106.59521,95.0083,34.85867999999999,92.92724,0.3751179915047729,-179.06024805895015,0.93367801,0.1718700000000126,-0.7018750000000011,0.7226117993258938,0.027840000000026,-0.0855700000000041,0.0899849459632118,0.1817000000000348,-0.6963460000000055,0.7196614771654936,0.0964600000000359,-0.0738180000000028,0.1214645163165249,0.1868299999999862,-0.713860000000011,0.7379034818321504,0.0747400000000197,-0.1175200000000131,0.1392731776043257,0.1212600000000065,-0.5811840000000075,0.5936992752699048,0.172990000000027,-0.0836840000000052,0.1921680305253978,0.1164799999999672,-0.6282340000000062,0.6389409590533386,0.1401899999999614,-0.1753980000000012,0.2245388485407138,0.0348499999999489,-0.3239149999999995,0.325784360774111,0.0591699999999377,-0.1019500000000022,0.117876593944655,0.00945999999999,-0.3786499999999932,0.3787681534923372,0.1016500000000064,-0.2093399999999974,0.232714327234058,0.1146800000000212,-0.188705000000013,0.2208191101897881,0.0538600000000428,-0.1259000000000156,0.1369368818105939,0.1577999999999519,-0.2865439999999921,0.3271212373661795,0.1578699999999457,-0.3367739999999912,0.3719404037960611,-0.0495699999999601,-0.1564799999999877,0.1641437641215535,-0.4156999999999584,-0.3170399999999915,0.5228009674818517,-0.2533300000000054,-0.2416699999999991,0.3501149494094794,-0.0990700000000401,-0.4735799999999983,0.4838314596013847,-0.2146900000000187,0.013479999999987,0.2151127762361122,-0.2139400000000364,-0.0962000000000102,0.2345735782223086,-0.2569399999999859,-0.0159800000000132,0.2574364465261148,-0.2032800000000065,-0.1378200000000333,0.2455954209671098,-0.2969299999999748,-0.0802600000000097,0.307585910763134,-0.0787599999999884,-0.2510500000000206,0.263114499980538,-0.4607500000000186,-0.0989900000000147,0.4712638142272543,0.0661999999999807,-0.2841000000000235,0.2917109014075594,0.2409200000000169,-0.1798200000000065,0.3006288056723947,0.265070000000037,-0.4644600000000309,0.534775837618014,-0.0813900000000558,-0.1765499999999917,0.1944073933779427,0.3629999999999427,-0.5297799999999881,0.642211685038466,-0.0012499999999988,-0.1170099999999934,137.971118,0.076095928076713,107.1003271,0.3445238953371584,96.084345,0.7228392647747074,0.12994643,0.233559682,0.1064188353644901,0,0
20,666.6666666666666,492.04645,95.02443,0.9541706,494.33957,92.82808,0.9229528,489.85904,92.69774,0.9025875,497.9084,93.70587,0.7517157,486.1955,93.38808,0.6436423,502.73077,106.356415,0.99283034,481.52777,106.128784,0.9940706,508.01337,122.532196,0.96661705,476.32242,121.74356,0.9641974,508.93024,136.23639,0.94696105,473.6524,135.65685,0.9411008,498.30768,137.82448,0.99424875,485.50458,137.71451,0.9948179,495.60513,162.51483,0.9854167,485.7344,162.23128,0.98462415,496.27472,185.56412,0.96227914,489.68497,185.05815,0.96020705,0.94375207,-0.24269769,0.90176441,0.13633322,165.7419054858123,172.42688320135608,172.08940555465833,170.71834447122316,0.4057760515653034,137.769495,106.2425995,95.02443,35.277840000000026,92.86638,0.3798774068734306,-179.38490805319873,0.9330846958823528,-0.2143500000000244,0.0161299999999897,0.2149560406222866,-0.3862200000000371,0.7180049999999909,0.8152895610916502,-0.2211000000000353,-0.0255999999999971,0.2225771102337693,-0.4028000000000702,0.6707460000000083,0.7823988985907813,-0.2458199999999806,-0.0021899999999988,0.2458297551151822,-0.4326499999999669,0.7116700000000122,0.8328626605869595,-0.1745000000000232,-0.2138459999999895,0.276007901546321,-0.2957600000000298,0.3673380000000179,0.4716049022688704,-0.2886300000000119,-0.1494259999999911,0.3250160094149275,-0.4051099999999792,0.478808000000015,0.6271931225420105,0.0006400000000326,-0.4110849999999999,0.4110854981935023,-0.0342099999999163,-0.0871700000000004,0.0936425811262929,-0.1955300000000193,-0.2941360000000088,0.3531967828222855,-0.2049900000000093,0.0845139999999844,0.2217284742562425,0.1553099999999858,-0.4601289999999949,0.4856334963127964,0.0406299999999646,-0.2714239999999819,0.2744481456960264,0.0039200000000505,-0.1235360000000014,0.1235981783684563,-0.1538799999999014,0.1630079999999907,0.2241665953347345,0.1758100000000126,-0.7791300000000092,0.7987194206979187,0.2253799999999728,-0.6226500000000215,0.662185145484263,-0.2433500000000208,-0.1490300000000104,0.2853579566089111,0.0099799999999845,0.0926399999999887,0.0931760162273404,0.108220000000017,-0.2062999999999988,0.2329619247860113,0.3229100000000358,-0.2197799999999858,0.3906073687221183,-0.0276800000000321,-0.18977000000001,0.1917780886858704,0.2292599999999538,-0.1737899999999967,0.2876857864058941,-0.2668200000000524,-0.2553900000000055,0.369346672517881,0.0301099999999223,-0.1751299999999958,0.177699546988713,-0.8643000000000143,-0.2682599999999979,0.9049739872504754,-0.4035499999999956,-0.1692699999999831,0.4376127687807918,0.2835999999999785,-0.063050000000004,0.2905241168990766,0.0426799999999616,0.1167700000000024,0.1243254410810486,-0.5636899999999514,-0.0688600000000008,0.5678803709408745,-0.4822999999998956,0.1076899999999909,0.4941765131002255,-0.1980350000000044,-0.1967850000000055,137.912903,0.0985743422238468,106.858355,0.4454585919253793,95.742891,0.743536070312044,-0.1026797899999999,0.21002685,0.1135409492046096,0,0
21,700.0,491.71097,94.68243,0.95518625,493.99985,92.45061,0.9247338,489.4823,92.35181,0.90399265,497.6404,93.22142,0.7536907,485.83136,92.98456,0.64219177,502.6577,105.847015,0.99294454,481.22638,105.69507,0.9941579,508.1615,122.186035,0.96734303,476.04895,121.48578,0.96483094,509.35248,136.18279,0.9480643,473.4763,135.51466,0.9421187,498.2084,137.66116,0.9944147,485.2585,137.56819,0.99497014,495.53732,162.83047,0.9858832,485.31665,162.55403,0.98511755,496.21347,186.4161,0.9629818,489.17816,185.92401,0.96096385,0.91615241,-0.23262623,0.88432358,0.05649845,166.24746401032218,172.23838628338308,172.3000895252604,170.75092078367342,0.3755821255958111,137.61467499999998,105.7710425,94.68243,35.87618000000003,94.06429,0.3814006316169441,-179.59378790697022,0.9337403423529412,-0.3354800000000182,-0.3419999999999987,0.4790728863127315,-0.1211299999999937,-0.3581299999999885,0.3780602779980862,-0.3397199999999998,-0.3774700000000024,0.5078319400155938,-0.1186199999999644,-0.3518700000000052,0.3713262733769255,-0.3767399999999838,-0.3459299999999956,0.5114690533160191,-0.1309200000000032,-0.3437399999999968,0.3678277232618535,-0.2679999999999722,-0.4844500000000096,0.5536386931022744,-0.093499999999949,-0.27060400000002,0.2863018945379184,-0.3641399999999635,-0.4035200000000003,0.5435313514416382,-0.0755099999999515,-0.2540940000000091,0.2650764435705243,-0.0730700000000297,-0.5093999999999994,0.5146140154523619,-0.0737100000000623,-0.0983149999999994,0.1228780017944997,-0.3013899999999694,-0.4337139999999948,0.5281512717924449,-0.1058599999999501,-0.139577999999986,0.1751809284254011,0.1481299999999805,-0.346160999999995,0.3765234850855797,-0.0071800000000052,0.1139679999999998,0.1141939465295776,-0.2734700000000316,-0.2577799999999968,0.375814275008302,-0.2773900000000822,-0.1342439999999953,0.3081666166800751,0.4222399999999879,-0.0535999999999887,0.4256284501768986,0.2464299999999752,0.7255300000000204,0.7662385567171737,-0.1761000000000194,-0.1421899999999993,0.2263386977518574,0.0672500000000013,0.006840000000011,0.0675969533337142,-0.0992800000000215,-0.1633199999999988,0.1911280743376124,-0.2075000000000386,0.04298,0.2119045313343158,-0.2460799999999494,-0.1463200000000029,0.2862951428158989,-0.2183999999999173,0.043450000000007,0.2226801798543474,-0.0678099999999517,0.3156400000000019,0.3228417657305118,0.1990100000001007,0.5710300000000075,0.6047150080823599,-0.4177500000000123,0.3227500000000134,0.5279039922183,0.446550000000002,0.5910100000000114,0.740742683122834,-0.0612500000000295,0.8519799999999975,0.8541788354320186,-0.3448500000000081,0.9150300000000016,0.9778555227639758,-0.50681000000003,0.8658599999999979,1.0032795800274352,0.0568799999999214,0.9347199999999988,0.9364490444225936,-0.1548200000000292,0.0432149999999751,137.8347,0.1488451967225591,106.5394949,0.5501332229862401,95.350363,0.661748249332872,-0.07983477,0.142621742,0.0684629733524937,0,0
22,733.3333333333333,491.51376,94.49405,0.95990115,493.86044,92.15755,0.9337245,489.15543,92.151184,0.9184627,497.4263,92.756546,0.76549774,485.39545,92.79086,0.6820474,502.54105,105.1709,0.99367046,481.02206,105.465195,0.9952577,508.83517,121.31525,0.9711585,476.66977,121.746155,0.9713117,509.06622,134.88902,0.955188,474.24496,135.48445,0.95137453,498.06424,137.43309,0.9951449,484.82288,137.41951,0.9957581,496.24713,162.72333,0.98688483,484.7701,162.47658,0.98648596,496.20834,186.18419,0.96448696,487.74844,185.8677,0.9636679,0.917914,-0.23385446,0.88727133,0.02505583,159.67610372579023,175.04304603185216,175.98507726014404,172.62301199315098,0.6032845774951471,137.4263,105.3180475,94.49405,34.821259999999995,94.033006,0.3703089065310864,179.2164683240641,0.94058959,-0.1972099999999841,-0.1883799999999951,0.2727247852689445,0.1382700000000341,0.1536200000000036,0.2066826003804155,-0.139409999999998,-0.293059999999997,0.3245293695491945,0.2003100000000017,0.0844100000000054,0.2173686826569127,-0.3268699999999853,-0.2006259999999997,0.3835293845013577,0.0498699999999985,0.1453039999999958,0.1536237915037858,-0.2140999999999735,-0.4648739999999947,0.5118072350758474,0.0538999999999987,0.0195760000000149,0.0573448321647247,-0.4359100000000353,-0.1937000000000068,0.4770086142828381,-0.0717700000000718,0.2098199999999934,0.2217551922729377,-0.1166499999999928,-0.6761149999999958,0.6861040123224704,-0.043579999999963,-0.1667149999999964,0.1723168814277799,-0.2043199999999956,-0.2298750000000069,0.3075535368435899,0.0970699999999737,0.2038389999999879,0.225771837971413,0.6736700000000155,-0.8707849999999979,1.1009531257619545,0.525540000000035,-0.5246240000000029,0.7425783682386928,0.6208200000000375,0.2603749999999962,0.6732106750676525,0.8942900000000691,0.518154999999993,1.0335565819659398,-0.286260000000027,-1.2937700000000234,1.3250606025763787,-0.708500000000015,-1.2401700000000346,1.4282835428933949,0.7686600000000112,-0.0302099999999825,0.7692534300866107,0.9447600000000308,0.1119800000000168,0.9513732064758088,-0.1441599999999994,-0.2280700000000024,0.2698111015136348,-0.0448799999999778,-0.0647500000000036,0.0787831003451786,-0.4356200000000285,-0.1486799999999846,0.4602939569449291,-0.1895400000000791,-0.0023599999999817,0.1895546918438841,0.7098100000000045,-0.1071399999999869,0.7178504131781241,0.7776199999999562,-0.4227799999999888,0.8851190839654981,-0.5465499999999679,-0.0774499999999989,0.5520103305192438,-0.1287999999999556,-0.4002000000000123,0.4204158417567045,-0.0051299999999514,-0.2319099999999991,0.2319667325286087,0.0561200000000781,-1.0838899999999967,1.08534187540148,-1.4297199999999748,-0.0563099999999963,1.4308284643869535,-0.9229099999999448,-0.9221699999999942,1.3046686847624906,-0.1883749999999793,-0.03355499999995,137.74935599999998,0.2338036121778083,106.1746784,0.6468955761918863,94.983877,0.4638293321041286,-0.03144262,0.113193418,0.0827127631845633,0,0
23,766.6666666666667,491.154,94.16493,0.9589267,493.48154,91.82378,0.93373644,488.784,91.83576,0.9153184,497.1207,92.4288,0.7691429,485.10965,92.53341,0.66806835,502.53506,104.972115,0.9933948,480.87076,105.37094,0.99476504,509.11102,121.209595,0.97019243,476.58923,121.97496,0.96794003,509.4037,134.59949,0.9532836,474.24792,135.78079,0.9462917,497.84628,137.79745,0.9948264,484.48798,137.78549,0.99534273,496.35516,163.92606,0.9862277,484.43472,163.67384,0.9854424,495.98117,188.16118,0.9623246,486.7202,187.82028,0.96077144,0.95199778,-0.22501122,0.92485508,0.01768647,159.20490445803648,175.16576235475418,177.6178609053434,174.47514140513024,0.9411009944889032,137.79147,105.1715275,94.16493,35.15577999999999,96.3374,0.3649234838710252,178.9453428744027,0.93858798,-0.3597599999999943,-0.3291200000000032,0.4875933059425631,-0.1625500000000102,-0.140740000000008,0.2150122091882356,-0.3788999999999873,-0.3337700000000012,0.5049431877944204,-0.2394899999999893,-0.0407100000000042,0.2429254292987772,-0.3714300000000321,-0.3154240000000072,0.4872910266730021,-0.0445600000000467,-0.1147980000000075,0.123142902369588,-0.3056000000000267,-0.3277460000000047,0.4481169495968875,-0.0915000000000532,0.1371279999999899,0.1648524746068647,-0.2857999999999947,-0.2574499999999915,0.384658475143851,0.1501100000000406,-0.0637499999999846,0.1630860956673199,-0.005989999999997,-0.1987850000000008,0.1988752280325539,0.1106599999999957,0.4773299999999949,0.4899893514148998,-0.151299999999992,-0.0942549999999897,0.1782573842088895,0.0530200000000036,0.1356200000000171,0.1456156063064843,0.2758499999999912,-0.1056550000000129,0.2953916070659387,-0.3978200000000242,0.765129999999985,0.8623715378536077,-0.0805400000000418,0.2288049999999941,0.2425663200549574,-0.7013600000000793,-0.031570000000002,0.7020701635165187,0.3374800000000277,-0.2895299999999849,0.4446575888253904,0.6237400000000548,1.0042400000000384,1.1821800054137888,0.00296000000003,0.2963399999999865,0.2963547826507819,-0.7656999999999812,0.326549999999969,0.8324250071327453,-0.217960000000005,0.3643600000000049,0.4245759899005191,-0.0738000000000056,0.5924300000000073,0.5970089990109106,-0.3349000000000046,0.3659800000000075,0.4960840356230067,0.1007200000000239,0.5146599999999921,0.5244229533496763,0.1080299999999852,1.2027300000000023,1.2075719166161505,-0.6017800000000193,1.3098699999999894,1.4414917916172798,-0.3353799999999864,1.19726,1.2433467947439245,0.2111699999999814,1.274709999999999,1.2920829512844711,-0.2271700000000009,1.9769900000000007,1.9899989118087484,-0.2220400000000495,2.2089,2.220031750133322,-1.0282400000000391,1.9525799999999836,2.206772791657541,0.4014799999999354,2.00888999999998,2.048615440364508,0.3651700000000062,0.5535449999999855,137.71389399999998,0.2037126936825379,105.8196854,0.6029946349167705,94.674828,0.3626842908373549,-0.00736936,0.094917396,0.0932739060484987,0,0
24,800.0,490.87152,93.600555,0.96210986,493.2398,91.30348,0.92956746,488.49683,91.280785,0.92282563,496.94275,91.95157,0.757082,485.03836,91.89036,0.718674,502.17554,104.54597,0.99479204,480.3647,104.9588,0.99653184,509.01093,120.53691,0.966023,475.83765,121.667694,0.9737231,511.29688,135.44716,0.9427591,473.18613,137.45343,0.9494964,497.57486,137.13066,0.9955194,484.19662,137.26434,0.9964766,496.26532,163.20926,0.98564607,484.67468,163.18575,0.9869257,494.57446,188.16867,0.9598571,485.7423,188.0681,0.9621336,0.95304713,-0.24245205,0.92043346,0.04814651,165.57189797444866,174.37534905049569,178.99914856760589,178.59969675488975,0.6789051871720054,137.1975,104.752385,93.600555,38.11075,96.887885,0.3933489683116834,178.91564962301598,0.9411848764705882,-0.2824800000000209,-0.5643749999999983,0.631121296602333,0.0772799999999733,-0.2352549999999951,0.2476229258873127,-0.2417399999999929,-0.520300000000006,0.5737162343877005,0.1371599999999944,-0.1865300000000047,0.2315303576207669,-0.2871700000000032,-0.5549749999999989,0.6248710743225363,0.0842600000000288,-0.2395509999999916,0.2539378451531021,-0.1779500000000098,-0.4772299999999916,0.5093276699728726,0.1276500000000169,-0.1494839999999868,0.1965705694044772,-0.0712899999999763,-0.6430500000000023,0.6469896186184131,0.2145100000000184,-0.3856000000000108,0.4412503825494276,-0.3595199999999749,-0.4261450000000053,0.5575429951357891,-0.3535299999999779,-0.2273600000000044,0.4203284792873145,-0.5060599999999909,-0.4121400000000079,0.6526531262470113,-0.3547599999999988,-0.3178850000000182,0.4763460200579099,-0.1000900000000228,-0.6726849999999871,0.6800905214197499,-0.3759400000000141,-0.5670299999999742,0.680333671443639,-0.7515799999999899,-0.3072659999999985,0.8119636021127942,-0.6710399999999481,-0.5360709999999926,0.8588753102988363,1.8931799999999728,0.8476699999999937,2.074289020676696,1.5556999999999448,1.137199999999979,1.9270252541157264,-1.0617900000000304,1.6726400000000012,1.9811922101855917,-1.0647500000000605,1.3763000000000147,1.7400845532617573,-0.2714199999999778,-0.6667899999999918,0.7199150786724619,-0.0534599999999727,-1.031149999999997,1.0325348875945983,-0.2913599999999974,-0.5211500000000058,0.597066137123857,0.0435400000000072,-0.8871300000000133,0.8881978205895488,-0.0898400000000378,-0.7168000000000063,0.7224081018371928,-0.197870000000023,-1.9195300000000088,1.929701520391183,0.2399599999999964,-0.4880899999999997,0.5438866147461233,0.5753399999999829,-1.6853499999999997,1.7808483197903124,-1.4067100000000323,0.00748999999999,1.4067299400382758,-1.1795400000000311,-1.969500000000011,2.2957013877244825,-0.9778999999999768,0.2478199999999901,1.0088127489281398,0.0503400000000624,-1.7047599999999932,1.7055030850748945,-0.593970000000013,-0.9591400000000192,137.559888,0.249868840008943,105.4511204,0.572909473971173,94.393279,0.5414492787927846,0.0304600399999999,0.056744096,0.0472706352742235,0,0
25,833.3333333333334,490.46625,93.3423,0.96221626,492.89023,91.02147,0.93223006,488.09018,91.001175,0.9209011,496.74573,91.630936,0.7682532,484.71396,91.59541,0.70381594,502.1353,104.244576,0.99490356,480.148,104.69729,0.99640745,509.09973,120.299805,0.96750647,475.6116,121.54048,0.9723098,511.3507,135.05676,0.94473106,472.9223,137.29977,0.94756156,497.4151,137.00247,0.99567884,483.8267,137.11389,0.9964946,496.2253,163.34909,0.9864911,483.59833,163.29033,0.98725057,494.77145,188.73503,0.962448,484.26083,188.57007,0.96363884,0.91365232,-0.2692274,0.87105873,-0.0594462,165.22261440914895,174.61029051037104,179.30794184901427,177.99895412027178,0.9156288212546818,137.05818,104.470933,93.3423,38.42840000000001,97.733855,0.3931943501748259,178.82045831042143,0.9413434358823528,-0.4052699999999731,-0.2582550000000054,0.4805615651765974,-0.1227899999999522,0.3061199999999928,0.3298284986170599,-0.3495700000000283,-0.2820099999999996,0.449142321541869,-0.1078300000000354,0.2382900000000063,0.2615519699792197,-0.4066500000000133,-0.279609999999991,0.493503773643126,-0.11948000000001,0.2753650000000078,0.3001688751769689,-0.197020000000009,-0.3206339999999983,0.3763283703841666,-0.0190699999999992,0.1565959999999933,0.1577528830671499,-0.3244000000000255,-0.29495,0.4384414014438151,-0.2531100000000492,0.3481000000000023,0.4303931715304351,-0.0402400000000398,-0.3013940000000019,0.3040684147293243,0.3192799999999351,0.1247510000000033,0.3427864209693252,-0.216700000000003,-0.2615100000000012,0.3396268100430264,0.2893599999999878,0.1506300000000067,0.3262186483020169,0.0888000000000488,-0.2371049999999996,0.2531881139094182,0.1888900000000717,0.4355799999999874,0.4747729652160242,-0.2260499999999865,-0.127213999999995,0.259387748931966,0.5255300000000034,0.1800520000000034,0.5555182297674891,0.0538200000000301,-0.3903999999999996,0.3940923145660201,-1.8393599999999424,-1.2380699999999931,2.217219550360264,-0.2638299999999844,-0.1536600000000021,0.3053156800755448,0.797960000000046,-1.8263000000000036,1.9930157680259544,-0.1597600000000056,-0.1281900000000178,0.2048314763409334,0.1116599999999721,0.538599999999974,0.550052648025592,-0.3699199999999791,-0.1504500000000064,0.3993444739820328,-0.0785599999999817,0.3706999999999993,0.3789329275742564,-0.0400199999999699,0.1398299999999892,0.1454442480815057,0.0498200000000679,0.8566299999999956,0.8580774960922815,-1.0763500000000477,0.1045799999999985,1.0814186510783428,-1.316310000000044,0.5926699999999983,1.4435822612515417,0.1969900000000279,0.5663600000000031,0.5996404837067077,1.6037000000000603,0.5588700000000131,1.6982901303664837,-1.4814700000000016,0.50197,1.5642017906267736,-0.5035700000000247,0.2541500000000098,0.5640700022160635,-0.1393199999999979,0.4546500000000151,137.417625,0.2984626299052062,105.0967871,0.5048437375567982,94.056853,0.5729228334342008,-0.10759271,0.017588212,0.045928999018288,0,0
26,866.6666666666667,490.02847,93.1246,0.962219,492.49652,90.79785,0.933345,487.67035,90.79387,0.920274,496.47626,91.45851,0.7738127,484.4066,91.47926,0.6986366,501.92368,104.1496,0.9949379,479.9673,104.67085,0.99637324,508.91776,120.03075,0.96785754,475.50366,121.36853,0.9719274,511.29266,134.5742,0.945156,472.8705,136.8687,0.94701034,497.16843,136.84262,0.99571204,483.48773,136.95502,0.996496,496.2094,162.82498,0.98675764,482.54526,162.74936,0.9873956,495.14258,187.89177,0.96364945,482.84467,187.69322,0.96457213,0.94964103,-0.18423408,0.92780283,-0.08401074,165.50560519853275,174.67491728356194,179.67687240545587,177.21975527914748,1.0888049757078406,136.89882,104.410225,93.1246,38.42216000000002,97.0979,0.3957053613342272,178.64003919343276,0.9415372105882353,-0.4377799999999752,-0.2176999999999935,0.4889218939666902,-0.032510000000002,0.0405550000000118,0.051976996113676,-0.3937099999999986,-0.2236199999999968,0.4527841301326687,-0.0441399999999703,0.0583900000000028,0.0731965279231037,-0.4198299999999904,-0.2073050000000051,0.468222801585948,-0.013179999999977,0.0723049999999858,0.0734964313759338,-0.2694699999999557,-0.1724260000000015,0.3199137483384805,-0.0724499999999466,0.1482079999999968,0.1649685235552264,-0.3073599999999601,-0.1161500000000046,0.3285741805132846,0.0170400000000654,0.1787999999999954,0.1796101377985123,-0.2116199999999821,-0.0949759999999884,0.2319557392607267,-0.1713799999999423,0.2064180000000135,0.2682899459987009,-0.1807000000000016,-0.0264399999999938,0.1826241046521522,0.0360000000000013,0.2350700000000074,0.2378106492569321,-0.1819700000000352,-0.2690550000000087,0.3248132908687967,-0.2707700000000841,-0.031950000000009,0.2726484832161113,-0.107939999999985,-0.1719499999999953,0.2030217872544599,0.1181100000000014,-0.0447360000000003,0.1262983839801617,-0.0580400000000054,-0.4825600000000065,0.4860378536698628,-0.1118600000000356,-0.0921600000000069,0.144934899868904,-0.0518000000000142,-0.4310700000000054,0.4341711470146376,0.2120299999999702,-0.2774100000000032,0.3491604631111449,-0.2466699999999946,-0.1598499999999774,0.2939355565425696,-0.0869099999999889,-0.0316599999999596,0.0924970469798659,-0.3389700000000175,-0.1588700000000074,0.374353225977838,0.0309499999999616,-0.0084200000000009,0.0320748951673679,-0.0158999999999878,-0.524109999999979,0.5243511248199794,0.0241199999999821,-0.6639399999999682,0.664377978262342,-1.053069999999991,-0.5409700000000157,1.183893984189462,0.0232800000000565,-0.6455500000000143,0.6459696284656277,0.3711299999999937,-0.8432599999999866,0.921316940308802,0.1741399999999657,-1.4096199999999897,1.4203356237171407,-1.4161599999999908,-0.8768499999999904,1.665645540954004,0.0653100000000108,-1.3788199999999904,1.380365889356867,-0.1593599999999924,-0.0200399999999945,137.27445400000002,0.3479080392574301,104.8246236,0.4079985038169005,93.745287,0.5712583705253774,-0.02456454,-0.010513626,0.0576577525894784,0,0
27,900.0,489.87268,92.91673,0.96161366,492.31305,90.56745,0.93072945,487.4775,90.58542,0.9214222,496.2515,91.24818,0.76353097,484.1437,91.322685,0.70836663,501.7633,104.055786,0.9946779,479.64624,104.75312,0.996349,508.76358,119.888214,0.96508837,475.3569,121.81616,0.97191757,510.9355,134.29213,0.94079584,473.08655,137.6619,0.9461829,497.1893,137.11053,0.9954905,483.29773,137.29547,0.9964049,496.32733,163.09377,0.9859964,481.71304,163.08014,0.98704857,495.15222,188.03183,0.9620487,481.38705,187.92944,0.96380746,0.93308465,-0.27119257,0.89267553,0.01523002,164.7223133168075,174.04300386622992,179.2021841659868,177.23470449087066,0.8058374092349798,137.203,104.404453,92.91673,37.84895,97.46438000000002,0.3883362271597456,178.1941061073399,0.940674765882353,-0.1557900000000245,-0.2078699999999997,0.2597700155907289,0.2819899999999506,0.0098299999999937,0.2821612818938347,-0.1834699999999998,-0.230400000000003,0.2945257219666923,0.2102399999999988,-0.0067800000000062,0.210349295221067,-0.1928499999999644,-0.2084499999999991,0.2839762754174826,0.2269800000000259,-0.0011449999999939,0.226982887956365,-0.2247600000000034,-0.210329999999999,0.3078242461210635,0.0447099999999522,-0.0379039999999974,0.0586148216409087,-0.2629000000000019,-0.1565749999999894,0.3059936937667142,0.0444599999999582,-0.0404249999999848,0.0600905335722279,-0.1603799999999751,-0.0938140000000089,0.1858031512003865,0.051240000000007,0.0011619999999794,0.0512531739895265,-0.3210600000000454,0.082269999999994,0.3314330648864536,-0.1403600000000437,0.1087099999999878,0.1775353308499738,-0.1541799999999966,-0.1425359999999926,0.2099713878031882,0.0277900000000386,0.126519000000016,0.1295350974099537,-0.1467600000000288,0.4476299999999895,0.471074425648431,-0.0388200000000438,0.6195799999999849,0.6207949490773783,-0.3571600000000217,-0.2820700000000045,0.4551118000008547,-0.2991200000000162,0.200490000000002,0.3600958407146777,0.2160499999999956,0.793200000000013,0.8220972220485961,0.2678500000000099,1.2242700000000184,1.2532280939238676,0.0208700000000021,0.2679100000000005,0.2687216496674586,0.2675399999999968,0.4277599999999779,0.5045356966558258,-0.1899999999999977,0.3404500000000041,0.3898797282496257,0.1489700000000198,0.4993200000000115,0.5210686358820855,0.1179300000000012,0.2687899999999956,0.2935226550029792,0.133829999999989,0.7928999999999746,0.8041149662206001,-0.8322200000000066,0.3307800000000043,0.8955476183877739,0.2208499999999844,0.87175000000002,0.8992901561787653,0.0096399999999903,0.1400600000000054,0.1403913572838489,-0.3614900000000034,0.983319999999992,1.0476608432598724,-1.45762000000002,0.2362200000000029,1.4766367030519252,-0.0414600000000291,1.1130699999999931,1.1138418902609055,0.3041800000000023,0.4635399999999947,137.229794,0.3377261847709692,104.64190469999998,0.3286321356754527,93.429823,0.4831194208426609,0.09924076,-0.012478788,0.0562936620222121,0,0
28,933.3333333333334,489.57104,92.84586,0.9617272,492.0191,90.505844,0.9303888,487.18735,90.51207,0.9223577,495.95435,91.2249,0.76138544,483.85748,91.279045,0.7126222,501.4624,104.06743,0.9945931,479.3238,104.84469,0.9963432,508.56653,119.70257,0.96416813,475.22833,122.02524,0.9719615,510.463,133.86537,0.93939084,473.24237,138.12401,0.9459702,497.0013,137.40921,0.99531096,483.02402,137.62654,0.9962935,496.1982,163.40164,0.98507524,481.14362,163.40833,0.98633677,495.1157,188.17905,0.9594566,480.6475,188.10583,0.9616413,1.05466519,-0.27487725,1.01820035,-0.0054042,163.19122641360636,173.62468765722045,179.2681200594175,176.97930053638373,0.6594200199686536,137.517875,104.45606,92.84586,37.22063000000003,97.673206,0.3810730817920214,177.9892390098428,0.940295451764706,-0.3016400000000203,-0.0708699999999993,0.3098535888125425,-0.1458499999999958,0.1370000000000004,0.2001030297121932,-0.2939499999999952,-0.0616059999999976,0.3003363143810567,-0.1104799999999954,0.1687940000000054,0.2017355814822978,-0.2901500000000396,-0.0733500000000049,0.2992778725532907,-0.0973000000000752,0.1350999999999942,0.166491140905494,-0.2971500000000446,-0.0232799999999997,0.29806053227495,-0.0723900000000412,0.1870499999999992,0.2005692264531269,-0.2862200000000143,-0.0436400000000105,0.2895277845043704,-0.0233200000000124,0.1129349999999789,0.1153175469085074,-0.3009000000000128,0.0116440000000039,0.3011252110601299,-0.1405200000000377,0.1054580000000129,0.1756908084221065,-0.3224399999999718,0.0915700000000043,0.3351904212533267,-0.0013799999999264,0.0093000000000103,0.0094018296091765,-0.1970499999999901,-0.1856440000000105,0.2707256863247373,-0.0428699999999935,-0.0431080000000179,0.0607958597603569,-0.1285699999999678,0.2090800000000001,0.2454479401013416,0.0181900000000609,-0.2385499999999893,0.2392425100185942,-0.4724999999999681,-0.4267599999999731,0.6366948622377496,-0.1153399999999464,-0.1446899999999686,0.1850365145045123,0.1558200000000056,0.4621099999999956,0.4876735839677987,-0.06022999999999,-0.3310900000000174,0.3365237599338423,-0.1879999999999881,0.2986799999999903,0.3529217227658136,-0.2088699999999903,0.0307699999999897,0.2111242994067602,-0.2737099999999941,0.3310700000000111,0.4295631606644174,-0.0837099999999964,-0.009379999999993,0.0842338916351326,-0.1291300000000319,0.3078699999999799,0.3338540007248615,-0.2470600000000331,0.0390799999999842,0.2501317452863893,-0.5694199999999796,0.3281900000000064,0.6572273674307705,0.262800000000027,-0.0025899999999978,0.2628127624374702,-0.0365199999999958,0.1472199999999759,0.1516820318956487,-0.0461599999999862,0.0071599999999705,0.046712002740177,-0.7395500000000084,0.1763899999999978,0.7602944394114767,0.7180700000000115,-0.0598300000000051,0.7205582237404672,0.3148750000000007,0.0106949999999983,137.17507500000002,0.2284599485138758,104.4988112,0.1446163164389312,93.166009,0.3107486323869866,-0.02063422,-0.017096922,0.0541049367720673,0,0
29,966.6666666666666,489.0752,92.88339,0.9604719,491.56897,90.53554,0.9296942,486.70322,90.510185,0.91879624,495.57187,91.25206,0.76379305,483.37173,91.21756,0.69981545,501.18243,104.15012,0.99438596,478.681,104.808495,0.99600804,508.36652,119.89892,0.9632062,474.25412,122.039566,0.9690169,510.06625,133.8987,0.9373546,472.6379,138.11588,0.94114244,496.80466,137.74875,0.9950487,482.59756,137.92484,0.9959751,496.07062,163.87993,0.98432446,480.84427,163.83865,0.98523533,495.13937,188.75082,0.9576584,480.67807,188.57254,0.9590647,1.22735851,-0.081063,1.21422541,0.15966954,162.40153884766198,171.33249657267086,179.464693649547,176.51434460743107,0.3963358425044945,137.836795,104.4793075,92.88339,37.42835000000002,98.240635,0.3809864382392641,178.32404653025517,0.9382936276470588,-0.4958399999999869,0.0375300000000038,0.4972582895236512,-0.1941999999999666,0.1084000000000031,0.2224054855438321,-0.4501300000000015,0.0296960000000012,0.4511084895188755,-0.1561800000000062,0.0913019999999988,0.1809095011435323,-0.4841299999999933,-0.0018849999999872,0.484133669687405,-0.1939799999999536,0.0714650000000176,0.2067256312724296,-0.3824799999999868,0.0271599999999949,0.3834431066012136,-0.0853299999999421,0.0504399999999947,0.0991231683310698,-0.4857499999999959,-0.0614849999999904,0.4896258446252555,-0.1995299999999815,-0.0178449999999799,0.2003263959766458,-0.2799699999999916,0.0826899999999994,0.2919260813973209,0.0209300000000212,0.0710459999999955,0.0740648298182089,-0.6428000000000225,-0.0361950000000064,0.6438182336848105,-0.3203600000000506,-0.1277650000000108,0.3448977019712297,-0.2000100000000202,0.1963500000000095,0.2802807924207648,-0.00296000000003,0.3819940000000201,0.3820054680708321,-0.9742100000000278,0.0143259999999969,0.9743153280001572,-0.8456400000000599,-0.1947540000000032,0.8677765438844857,-0.3967499999999972,0.0333299999999781,0.3981475246689302,0.0757499999999709,0.4600899999999512,0.4662841093152872,-0.6044699999999921,-0.0081299999999941,0.604524670960574,-0.7602899999999977,-0.4702399999999898,0.8939611522320121,-0.1966400000000021,0.3395399999999995,0.3923706171465959,-0.0086400000000139,0.0408600000000092,0.0417634912333846,-0.42646000000002,0.2982999999999833,0.5204334939259839,-0.1527500000000259,-0.0327700000000277,0.1562255913735318,-0.1275799999999662,0.4782900000000154,0.4950131114425214,0.0015500000000656,0.1704200000000355,0.1704270486161522,-0.299350000000004,0.4303199999999947,0.5242000809805335,0.2700699999999756,0.1021299999999882,0.2887357646707183,0.0236699999999814,0.571770000000015,0.5722597328137078,0.0601899999999773,0.424550000000039,0.428795450768814,0.0305700000000115,0.4667100000000062,0.4677101121421328,0.7701200000000199,0.2903200000000083,0.823025222456782,0.3189199999999914,0.0040449999999907,137.302934,0.3756350125686414,104.4441957,0.0347202174081249,93.022576,0.2088282761754217,0.16507374,0.005207684,0.0951466974692504,0,0
30,1000.0,488.54428,93.12897,0.9608671,491.04822,90.76141,0.9311284,486.1649,90.72999,0.91798675,495.11487,91.34407,0.7683657,482.85532,91.301956,0.6925111,500.78577,104.12134,0.99448,478.23987,104.76417,0.99595743,508.19858,119.90578,0.96446335,473.84448,121.99095,0.96848565,509.71686,134.04959,0.9393339,472.4217,138.15411,0.94078076,496.5067,137.97662,0.9951141,482.27292,138.16205,0.9959643,495.9816,164.38327,0.9844114,480.87915,164.35362,0.98506343,495.12518,189.38861,0.9574522,480.86954,189.20416,0.95834476,1.40109427,-0.40899966,1.28030403,0.3957348,160.9709545083928,170.71700687502104,179.1775944241188,176.9760650000103,0.2100590535261376,138.069335,104.442755,93.12897,37.29516000000001,98.65862,0.3780223119072383,178.3668218941786,0.938277078235294,-0.5309199999999805,0.2455799999999897,0.5849663091152979,-0.0350799999999935,0.2080499999999858,0.2109867505318608,-0.5207499999999641,0.2258700000000004,0.5676247170446005,-0.0706199999999626,0.1961739999999991,0.2084980160001394,-0.5383199999999988,0.2198049999999938,0.5814659580964272,-0.0541900000000055,0.221689999999981,0.228217028724835,-0.4569999999999936,0.0920100000000019,0.4661703981378424,-0.0745200000000068,0.0648500000000069,0.098786400379819,-0.5164100000000076,0.0843959999999981,0.5232609032939567,-0.0306600000000116,0.1458809999999886,0.1490681111472114,-0.3966599999999971,-0.0287799999999975,0.3977027080621875,-0.1166900000000055,-0.111469999999997,0.1613757013927457,-0.4411299999999869,-0.0443250000000006,0.4433513082477467,0.2016700000000355,-0.0081299999999941,0.2018338073763021,-0.1679399999999873,0.0068599999999889,0.1680800499761812,0.0320700000000329,-0.1894900000000206,0.1921846638002364,-0.4096400000000244,-0.0486159999999955,0.4125147816212403,0.5645700000000033,-0.0629419999999925,0.5680677602751303,-0.349390000000028,0.1508900000000039,0.380580036523227,0.0473599999999692,0.1175600000000258,0.1267411661616034,-0.2162000000000148,0.0382299999999986,0.2195540318463915,0.3882699999999772,0.0463599999999928,0.3910279305880613,-0.2979599999999891,0.2278699999999958,0.3751065162057193,-0.1013199999999869,-0.1116700000000037,0.1507843867911999,-0.324639999999988,0.2372100000000045,0.4020692896752926,0.101820000000032,-0.0610899999999787,0.1187404754075202,-0.0890200000000049,0.5033400000000086,0.5111513631009992,0.0385599999999612,0.0250499999999931,0.0459823455251759,0.0348799999999869,0.5149700000000053,0.5161498961542126,0.3342299999999909,0.0846500000000105,0.3447829975506271,-0.014189999999985,0.6377899999999954,0.6379478350147398,-0.0378599999999664,0.0660199999999804,0.0761053217586975,0.1914699999999811,0.6316199999999981,0.6600034737029725,0.1608999999999696,0.1649099999999919,0.2303999090711356,0.2325400000000002,-0.0863799999999912,137.505165,0.471005768581886,104.4385601,0.031425970374322,92.97991,0.1364105063783701,0.23606526,0.0962438839999999,0.1891460620922441,0,0
31,1033.3333333333337,488.57715,93.10567,0.96122205,490.956,90.721466,0.9279439,486.13068,90.708916,0.9214572,494.76666,91.21263,0.75030464,482.50806,91.18256,0.7107558,500.3078,103.85485,0.99450964,477.62408,104.58133,0.99624735,507.83557,119.64667,0.9639915,473.09253,121.97371,0.9713397,509.39108,133.78539,0.9393284,471.65363,138.16849,0.9452866,496.43735,137.81062,0.99545455,482.1403,138.10822,0.9963798,495.93054,164.44719,0.98564714,481.0435,164.56525,0.98673475,495.34396,189.82587,0.960702,481.40875,189.88275,0.9624882,1.07979912,-0.15672179,1.03220214,0.27561418,160.79172779293842,170.47375142212152,179.76595847945472,176.79957337633618,0.5484481268085463,137.95942,104.21809,93.10567,37.73744999999997,99.173834,0.3805182082552316,178.16564411051354,0.9393996011764706,0.0328700000000026,-0.0232999999999918,0.0402905311456649,0.5637899999999831,-0.2688799999999816,0.6246243819288285,-0.0922199999999975,-0.0399439999999913,0.1004990126120592,0.4285299999999665,-0.2658139999999918,0.5042767528807639,-0.0342200000000048,-0.0210739999999987,0.0401885789248671,0.504099999999994,-0.2408789999999925,0.5586944626904676,-0.3482099999999946,-0.1314399999999977,0.3721917216972936,0.108789999999999,-0.2234499999999997,0.2485259877759258,-0.3472600000000057,-0.1193960000000089,0.3672123532998394,0.1691500000000019,-0.203792000000007,0.2648450523683679,-0.4779700000000275,-0.2664900000000045,0.5472405695852864,-0.0813100000000304,-0.2377100000000069,0.2512316862977444,-0.6157900000000041,-0.1828399999999987,0.6423611053760996,-0.1746600000000171,-0.1385149999999981,0.2229181931225118,-0.3630099999999743,-0.2591099999999926,0.4459980405786302,-0.1950699999999869,-0.2659699999999816,0.329836847244187,-0.7519499999999653,-0.017240000000001,0.7521476052610603,-0.3423099999999408,0.0313759999999945,0.3437449482915481,-0.3257800000000088,-0.2641999999999882,0.4194451673341815,0.0236100000000192,-0.4150899999999922,0.4157609171146254,-0.7680699999999661,0.0143799999999885,0.7682046011968084,-0.5518699999999512,-0.0238500000000101,0.5523851187350604,-0.0693500000000426,-0.1659999999999968,0.1799039257492867,0.2286099999999464,-0.3938699999999926,0.4554076294924907,-0.1326199999999744,-0.0538300000000049,0.1431283804840736,0.1920200000000136,-0.2910400000000095,0.3486774469334241,-0.0510600000000067,0.0639199999999959,0.0818100849528967,0.0379599999999982,-0.4394200000000126,0.4410565700678439,0.1643500000000131,0.2116299999999853,0.2679518229085185,0.1294700000000261,-0.3033400000000199,0.3298145486482045,0.2187799999999811,0.4372600000000091,0.4889386423673216,0.2329699999999661,-0.2005299999999863,0.3073878686610432,0.5392100000000255,0.6785899999999856,0.866736299112947,0.3477400000000443,0.0469699999999875,0.3508978319967646,-0.1099150000000008,-0.342455000000001,137.717285,0.3539437137983683,104.4001331,0.1053225781977487,92.976124,0.1315674898309007,-0.12012062,0.168168868,0.1709684826340495,0,0
32,1066.6666666666667,488.207,93.05852,0.96277285,490.56723,90.69391,0.9301718,485.7855,90.68582,0.9239838,494.37695,91.23248,0.7540095,482.21017,91.2192,0.7158264,499.90732,103.91527,0.99476504,477.30508,104.631615,0.9964773,507.52145,119.794205,0.9657669,472.60284,121.95598,0.97321486,508.83344,133.84204,0.94229215,471.02988,137.96405,0.94860214,496.06232,137.7752,0.9955811,481.85373,138.09328,0.99651045,495.73627,164.4909,0.9856178,481.378,164.64565,0.98679906,495.25928,189.94975,0.9597782,482.17163,190.05731,0.96177113,1.0618552,-0.1886557,0.99289887,0.32572585,159.7173825181503,170.4263251375284,179.6258625924352,177.18473908181826,0.5990004940560019,137.93424,104.2734425,93.05852,37.80356,99.37149,0.3804266155169193,178.1847015618035,0.9408200282352942,-0.3701500000000237,-0.047150000000002,0.3731409184209335,-0.4030200000000263,-0.0238500000000101,0.4037250833178708,-0.3887700000000222,-0.0275560000000041,0.3897453605060842,-0.2965500000000247,0.0123879999999871,0.2968086337086816,-0.3451799999999707,-0.0230959999999953,0.3459518140088003,-0.3109599999999659,-0.0020219999999966,0.3109665739014063,-0.3897099999999796,0.019849999999991,0.3902152054956133,-0.0414999999999849,0.1512899999999888,0.1568786604353676,-0.2978899999999953,0.0366400000000055,0.3001348725156702,0.0493700000000103,0.1560360000000145,0.1636601056947157,-0.4004799999999591,0.0604200000000076,0.4050121069794928,0.0774900000000684,0.3269100000000122,0.3359685226327291,-0.3190000000000168,0.0502850000000023,0.3229389744595888,0.2967899999999872,0.2331250000000011,0.3774010727660865,-0.3141200000000026,0.1475350000000048,0.3470417130908085,0.0488899999999716,0.4066449999999975,0.4095734221418611,-0.4896899999999959,-0.0177300000000002,0.4900108662060424,0.2622599999999693,-0.0004899999999992,0.2622604577514191,-0.5576399999999921,0.0566499999999905,0.5605101177498852,-0.2318599999999833,0.3208499999999787,0.3958582853749288,-0.6237500000000296,-0.2044400000000052,0.6563990981864913,0.1443199999999365,-0.2188199999999938,0.2621267914578343,-0.3750299999999811,-0.0354199999999877,0.3766989212885868,-0.3056799999999384,0.130580000000009,0.3324024650930927,-0.2865700000000402,-0.0149399999999957,0.2869591756679387,-0.1539500000000657,0.0388900000000091,0.1587861284874121,-0.1942700000000172,0.0437100000000043,0.1991265853672158,-0.1432100000000105,-0.0202099999999916,0.14462900193254,0.3344999999999913,0.0803999999999973,0.3440267576802621,0.1701499999999782,-0.1312299999999879,0.2148774892816589,-0.0846799999999916,0.1238799999999855,0.1500565120212882,-0.3034599999999727,-0.3133800000000235,0.436228146730582,0.7628799999999956,0.1745600000000138,0.7825963761735663,0.22366999999997,-0.5040299999999718,0.5514295148067051,-0.0251800000000059,0.0847349999999949,137.863533,0.2102038495303028,104.373931,0.1193424466432496,93.004482,0.1308439817890042,0.05011167,0.230268034,0.1573795312903338,0,0
33,1100.0,487.6356,92.089874,0.9635102,489.9984,89.75998,0.9319894,485.29205,89.74243,0.9244404,493.8416,90.504326,0.7592003,481.86783,90.45822,0.7127999,499.3568,103.56865,0.9949321,476.87976,104.21175,0.9965581,506.92685,119.735695,0.96727115,471.8299,121.69255,0.97388214,508.89093,134.03214,0.94441736,469.71994,137.86023,0.94976807,495.4434,137.64499,0.995688,481.36115,137.93329,0.9965783,495.02826,164.44951,0.9857308,480.8645,164.59053,0.9867937,494.8397,190.09662,0.9596296,481.77832,190.18112,0.9613658,1.03926155,-0.33776248,0.8941494,0.40801708,162.73161050288076,171.32238398377703,179.53391808038683,176.88752791012746,0.4801970694932886,137.78914,103.8902,92.089874,39.17099000000002,100.43869,0.3899990094454738,178.36113357086683,0.9414444305882352,-0.5713999999999828,-0.9686460000000068,1.1246212843957708,-0.201249999999959,-0.9214960000000048,0.9432160094676044,-0.5688299999999913,-0.9339300000000036,1.093523119920195,-0.180059999999969,-0.9063739999999996,0.9240862684165304,-0.4934499999999957,-0.943390000000008,1.064649047620863,-0.148270000000025,-0.9202940000000126,0.9321614877992068,-0.535349999999994,-0.7281539999999893,0.9037742363090342,-0.1456400000000144,-0.7480039999999804,0.7620505190707338,-0.3423399999999788,-0.7609800000000035,0.8344382757280439,-0.0444499999999834,-0.7976200000000091,0.7988576011405368,-0.5505200000000059,-0.3466200000000015,0.6505518386723748,-0.1500400000000468,-0.4070400000000092,0.4338128204652572,-0.4253199999999992,-0.4198650000000015,0.5976484925313545,-0.1063199999999824,-0.4701500000000038,0.4820217473309683,-0.594600000000014,-0.0585099999999982,0.5974718236871229,-0.2804800000000114,-0.2060450000000031,0.3480281201641725,-0.7729400000000055,-0.2634299999999996,0.8165975805131976,-0.2832500000000095,-0.2456999999999993,0.3749654017372871,0.0574900000000297,0.190100000000001,0.1986028954975325,0.6151300000000219,0.1334500000000105,0.6294392896856931,-1.3099399999999832,-0.1038199999999847,1.3140477145065748,-0.6861899999999537,0.1006200000000205,0.6935280098885268,-0.6189200000000028,-0.1302100000000052,0.6324686636506229,-0.2438900000000217,-0.0947900000000174,0.2616629056630188,-0.4925799999999753,-0.1599899999999934,0.5179110507606239,-0.2060099999999352,-0.1450499999999976,0.2519516275001466,-0.7080100000000016,-0.0413900000000069,0.7092187900782119,-0.5137399999999843,-0.0851000000000112,0.5207406241114532,-0.513499999999965,-0.055119999999988,0.516449866298717,-0.8479999999999563,-0.1355199999999854,0.8587605431084512,-0.4195799999999963,0.1468700000000069,0.4445426563334489,-0.3349000000000046,0.0229900000000213,0.3356881739054924,-0.3933099999999854,0.1238099999999917,0.4123368431270561,-1.156189999999981,-0.050750000000022,1.15730327857479,-0.1450999999999851,-0.1199199999999791,137.91778599999998,0.1096363977762316,104.260759,0.2346174961949777,92.8532848,0.437471278663661,0.0822912299999999,0.31295229,0.1011720786589022,0,0
34,1133.3333333333333,486.995,91.24394,0.9645145,489.25317,88.925964,0.9331773,484.68262,88.97057,0.92629254,493.0354,89.632065,0.75991327,481.40228,89.74655,0.7160284,498.58948,102.760025,0.995048,476.73935,103.54896,0.99674714,506.10376,118.981,0.9682349,471.6745,121.02295,0.97583777,508.80865,134.15775,0.9461128,468.49942,137.89868,0.95300126,494.96054,136.99847,0.99582505,481.31815,137.3355,0.9967525,494.42743,163.8203,0.9859869,480.33423,164.00198,0.98725235,494.73508,189.48987,0.95986897,481.1937,189.6536,0.96206516,1.05296808,-0.46205907,0.88088455,0.34537749,165.24980563147884,174.49106264604956,178.174680388892,175.96789515789868,0.8001124531346822,137.166985,103.1544925,91.24394,40.309230000000014,100.72763600000002,0.4001804390586469,177.93213963733987,0.942509341764706,-0.6406000000000063,-0.8459339999999997,1.0611186042832383,-0.0692000000000234,0.122712000000007,0.1408789371907844,-0.7452299999999923,-0.8340160000000054,1.1184589581902402,-0.176400000000001,0.0999139999999982,0.2027307756508616,-0.6094300000000317,-0.7718600000000038,0.98344943159272,-0.1159800000000359,0.1715300000000041,0.2070601393315714,-0.8062000000000467,-0.8722610000000088,1.187770050186942,-0.2708500000000526,-0.1441070000000195,0.3068005051316476,-0.4655500000000074,-0.711669999999998,0.8504181273938157,-0.1232100000000286,0.0493100000000055,0.1327108895306169,-0.7673200000000406,-0.8086250000000064,1.1147440840951222,-0.2168000000000347,-0.4620050000000049,0.5103438644923828,-0.1404099999999744,-0.6627900000000011,0.6774994850182502,0.2849100000000248,-0.2429249999999996,0.374414561315414,-0.8230899999999792,-0.7546950000000123,1.1167102091075305,-0.2284899999999652,-0.696185000000014,0.7327217987237746,-0.155399999999986,-0.6696000000000026,0.6873960430494193,0.6175400000000195,-0.406170000000003,0.7391412047099164,-0.0822800000000256,0.1256099999999946,0.1501594835500005,-0.1397700000000554,-0.0644900000000063,0.1539305460264996,-1.2205200000000218,0.0384500000000116,1.221125494328922,0.0894199999999614,0.1422699999999963,0.1680377615299372,-0.4828600000000165,-0.6465200000000095,0.8069336341980227,0.1360599999999863,-0.5163100000000043,0.5339366439007541,-0.0430000000000063,-0.5977900000000034,0.5993345343795938,0.449579999999969,-0.4378000000000099,0.6275277016992802,-0.6008299999999736,-0.6292100000000005,0.8700010994245747,0.107180000000028,-0.5878199999999936,0.5975114265016179,-0.53027000000003,-0.5885499999999979,0.7921978133017216,-0.016770000000065,-0.5334300000000098,0.5336935429626376,-0.1046200000000112,-0.6067500000000052,0.6157035868825264,0.314959999999985,-0.7536200000000122,0.8167881647036819,-0.5846200000000294,-0.5275199999999813,0.7874375497777679,-0.191310000000044,-0.6513299999999731,0.6788448165818031,-0.6221549999999922,-0.4770550000000071,137.783824,0.3589895789467504,103.995796,0.5111791866381633,92.5253948,0.8392034289048449,-0.0626395899999999,0.35009388,0.0538550406403369,0,0
35,1166.6666666666667,486.15732,90.85302,0.9667472,488.36377,88.50343,0.9385359,483.83054,88.58804,0.92852515,492.2347,88.9274,0.7726362,480.64005,89.14963,0.7089707,498.00027,101.86992,0.99532557,476.23413,102.69246,0.9968713,505.75247,118.28724,0.9711368,470.88943,120.20271,0.9769957,508.5593,134.07303,0.95072466,467.30093,137.60321,0.95546055,494.64938,136.57709,0.9959073,481.06802,136.91069,0.9967853,494.01855,163.73505,0.9855664,479.60825,163.89664,0.9866498,494.887,189.48053,0.9569775,480.6711,189.61823,0.9588278,1.06040704,-0.37853962,0.94450672,0.29845921,164.80572732010205,174.67882292346195,176.73738472351974,174.53748489090995,1.2326639702267757,136.74389,102.28119,90.85302,41.25837000000001,101.11480000000002,0.4080349226024784,177.8358286984471,0.9436849311764708,-0.8376799999999776,-0.3909199999999941,0.9244058788216124,-0.1970799999999712,0.4550140000000056,0.4958611364041285,-0.8894000000000233,-0.4225339999999988,0.9846661064320434,-0.144170000000031,0.4114820000000065,0.4360073683139017,-0.8520800000000008,-0.3825299999999885,0.9340072415672122,-0.2426499999999691,0.3893300000000153,0.4587557862305356,-0.8007000000000062,-0.7046649999999914,1.066617669188448,0.0055000000000404,0.1675960000000174,0.167686222499066,-0.762230000000045,-0.5969199999999972,0.9681467137268324,-0.2966800000000376,0.1147500000000008,0.3180983887101952,-0.58920999999998,-0.8901050000000055,1.0674527320331266,0.1781100000000606,-0.0814799999999991,0.19586261128664,-0.5052200000000084,-0.8564999999999969,0.9944040921074306,-0.364810000000034,-0.1937099999999958,0.4130495130126935,-0.3512900000000059,-0.6937599999999975,0.7776294758430912,0.4717999999999733,0.0609350000000148,0.4757187343640953,-0.7850700000000188,-0.8202399999999983,1.1353979753813317,-0.6296700000000328,-0.1506399999999956,0.6474385828015194,-0.2493499999999926,-0.0847200000000043,0.2633493894050204,-0.1670699999999669,-0.210329999999999,0.268609556419701,-1.1984899999999925,-0.295470000000023,1.2343746598986856,0.0220300000000293,-0.3339200000000346,0.3346459133173815,-0.3111599999999725,-0.4213799999999992,0.5238145186991119,0.1717000000000439,0.2251400000000103,0.2831411478397651,-0.2501300000000128,-0.4248100000000079,0.4929792622413372,-0.2071300000000064,0.1729799999999954,0.2698609221432423,-0.4088800000000105,-0.085250000000002,0.4176726192845408,0.1919499999999629,0.5439599999999984,0.5768338444474146,-0.7259799999999927,-0.1053400000000124,0.7335826306558737,-0.1957099999999627,0.4832099999999855,0.5213389571094523,0.1519200000000182,-0.0093400000000087,0.1522068395309675,0.2565400000000295,0.5974099999999964,0.6501626563407121,-0.5225999999999544,-0.0353700000000003,0.523795567850619,0.062020000000075,0.492149999999981,0.4960424406237743,-0.4230950000000177,0.1990599999999744,137.518735,0.5394625507854238,103.563483,0.8442223316636243,92.0702048,1.0263520776837174,-0.04691828,0.330638762,0.0507247451819185,0,0
36,1200.0,486.17847,90.21223,0.97017336,488.43326,87.85292,0.942491,483.7621,87.90314,0.9370735,492.2455,88.39319,0.7707021,480.28513,88.50933,0.7325622,497.6767,101.54719,0.9955479,475.62906,102.198006,0.9971922,505.4921,118.23324,0.9717819,470.1059,119.74698,0.9794714,508.40677,134.01038,0.9522812,466.8479,136.89865,0.9596225,494.09714,136.56812,0.9958566,480.34592,136.86731,0.9968502,493.5011,164.21542,0.98432237,479.47073,164.36612,0.98598844,494.24646,190.26416,0.95172834,480.77756,190.43579,0.9549446,1.12260538,-0.25006706,1.08329639,0.15549356,165.36939900479052,173.2850625690956,177.12594970384802,175.3073502929596,0.9350481839987352,136.717715,101.872598,90.21223,41.55887000000001,102.58287,0.4051248477925717,178.30919839421918,0.9457994005882352,0.0211499999999773,-0.6407899999999955,0.6411389448473656,0.8588299999999549,-0.2498700000000013,0.8944405993691941,0.0694900000000302,-0.650509999999997,0.6542110670112516,0.9588900000000536,-0.2279759999999981,0.9856181251763292,-0.0684400000000096,-0.6849000000000132,0.6883110079026917,0.7836399999999912,-0.3023700000000247,0.8399519429705494,0.0108000000000174,-0.5342100000000016,0.5343191593982028,0.8115000000000236,0.1704549999999898,0.8292087535868365,-0.3549199999999928,-0.6402999999999963,0.7320876289078994,0.4073100000000522,-0.043379999999999,0.4096135501909604,-0.3235700000000179,-0.3227299999999928,0.4570034986737049,0.2656399999999621,0.5673750000000126,0.6264814444378973,-0.605070000000012,-0.4944539999999904,0.7814054408666509,-0.0998500000000035,0.3620460000000065,0.3755626826722876,-0.2603700000000231,-0.054000000000002,0.2659107686800447,0.0909199999999827,0.6397599999999954,0.6461882883494493,-0.7835299999999847,-0.4557300000000026,0.9064265517955542,0.001540000000034,0.3645099999999956,0.3645132531198241,-0.1525300000000129,-0.0626499999999907,0.1648951891354104,0.0968199999999797,0.0220700000000135,0.0993035613661296,-0.4530300000000125,-0.7045599999999865,0.8376401223078992,0.74545999999998,-0.4090899999999635,0.8503324289358488,-0.5522399999999834,-0.008970000000005,0.5523128447718573,-0.2410800000000108,0.4124099999999941,0.4777044844880571,-0.7221000000000117,-0.0433799999999848,0.7234018484908755,-0.4719699999999989,0.381430000000023,0.6068315464772877,-0.5174499999999966,0.4803699999999935,0.7060522922560271,-0.108569999999986,0.5656199999999956,0.5759456825951488,-0.1375199999999949,0.4694800000000043,0.4892067260371659,0.5884599999999978,0.5748200000000168,0.8226197201623705,-0.6405399999999872,0.7836300000000165,1.0121104033157695,-0.7924600000000055,0.7929700000000253,1.1210683620993187,0.10645999999997,0.8175599999999861,0.8244623006541723,0.6290599999999245,0.8529299999999864,1.0598141669650778,-0.0261749999999949,0.3969200000000228,137.27039399999998,0.5707764195746569,103.0943846,1.02239432161489,91.4915168,1.108949674215073,-0.1429656499999999,0.306614638,0.0936140261720852,0,0
37,1233.3333333333337,486.15308,89.842545,0.97102195,488.40936,87.48964,0.94314235,483.7128,87.520325,0.93921626,492.1997,88.01071,0.7689295,480.16333,88.064926,0.73966295,497.50644,101.13329,0.99562484,475.43158,101.625946,0.99734855,505.05402,117.91936,0.9720891,469.46588,119.07586,0.98084396,507.92072,133.86902,0.95313936,466.31952,136.47075,0.9620155,493.87518,136.19814,0.9959836,480.14746,136.42305,0.9970113,493.00732,164.05873,0.98464775,479.33585,164.13263,0.9865368,493.4107,190.50119,0.95216703,480.53513,190.58846,0.9559609,1.09124588,-0.2264851,1.06045136,0.12233143,165.97894124237746,171.378407603258,177.3418264222401,175.72677126763202,0.8895619478425779,136.31059499999998,101.379618,89.842545,41.601200000000006,103.09882,0.4035080090780088,178.7215128621677,0.946784805882353,-0.0253900000000157,-0.369685000000004,0.3705558680212793,-0.0465399999999931,0.2711049999999915,0.2750707047742357,-0.023900000000026,-0.3632800000000031,0.3640653353451871,-0.0933900000000562,0.2872299999999939,0.3020310662829355,-0.0492999999999597,-0.3828149999999937,0.3859764425777708,0.0191400000000498,0.3020850000000195,0.3026907445314667,-0.0457999999999856,-0.382480000000001,0.3852123964775789,-0.056600000000003,0.1517300000000006,0.1619430544975626,-0.1218000000000074,-0.4444040000000058,0.460792963505311,0.2331199999999853,0.1958959999999905,0.3044998804860019,-0.1702599999999847,-0.4138999999999981,0.4475507542167629,0.1533100000000331,-0.0911700000000053,0.178370190895259,-0.1974799999999845,-0.5720600000000076,0.6051867430801856,0.4075900000000274,-0.0776060000000171,0.4149123995930044,-0.4380800000000135,-0.3138799999999975,0.538919976248803,-0.1777099999999905,-0.2598799999999954,0.314830841087709,-0.6400199999999927,-0.6711199999999877,0.9273767598985724,0.143509999999992,-0.2153899999999851,0.2588203473453957,-0.4860499999999774,-0.1413599999999917,0.5061889490101258,-0.3335199999999645,-0.0787100000000009,0.3426818560997598,-0.5283799999999701,-0.4278999999999939,0.6799145787523336,-0.0753499999999576,0.2766599999999926,0.2867374724377501,-0.2219600000000241,-0.3699799999999982,0.4314527111978894,0.3302799999999593,-0.3610099999999931,0.4892985780686146,-0.1984599999999545,-0.4442600000000141,0.4865730358332595,0.5236400000000572,-0.4008800000000292,0.6594722314093925,-0.4937800000000152,-0.1566899999999975,0.5180448286586926,0.0236699999999814,-0.6370599999999911,0.6374995784312235,-0.1348800000000096,-0.2334899999999891,0.2696482792453857,0.0026399999999853,-0.7029699999999934,0.7029749572353133,-0.8357599999999934,0.2370300000000043,0.8687220490467541,-0.1952200000000061,-0.5466000000000122,0.5804157203246788,-0.242430000000013,0.1526700000000005,0.28649683034897,-0.348889999999983,-0.6648899999999855,0.7508681270369445,-0.4071200000000203,-0.3809450000000254,136.94566500000002,0.560450906871007,102.5156197,1.0070456182622365,90.8483218,0.8823530257253926,-0.03316213,0.265935754,0.122857181204261,0,0
38,1266.6666666666663,485.2283,90.13806,0.96267074,487.84454,87.484245,0.9273213,482.5617,87.53009,0.9352124,491.82077,88.17834,0.68912816,478.4093,88.334595,0.74305904,497.3834,101.97183,0.9915454,473.13248,102.929855,0.9956441,505.538,118.534615,0.95463,468.21567,121.009155,0.9751346,506.77737,134.00081,0.9364407,465.8967,137.04591,0.9551955,492.93555,138.12433,0.9948716,477.90598,138.47192,0.9963231,492.17587,166.29965,0.98765475,478.37012,166.40808,0.9896814,490.87067,192.51355,0.9682414,479.77838,192.74536,0.9724258,1.05153034,-0.18497102,1.02458713,0.14738726,158.36847022815178,173.01404606780778,178.69404121206,177.89113720846117,0.2605979027588781,138.298125,102.4508425,90.13806,40.88067000000001,105.261115,0.3883738986768866,177.73772453513814,0.93971647,-0.9247799999999984,0.2955149999999946,0.97084868214619,-0.8993899999999826,0.6651999999999987,1.1186569680201195,-0.5648199999999974,-0.0053949999999929,0.5648457651651441,-0.5409199999999714,0.3578850000000102,0.648595497690954,-1.1511000000000422,0.0097650000000015,1.1511414184300282,-1.1018000000000825,0.3925799999999952,1.1696505018167511,-0.3789300000000253,0.1676300000000026,0.414352219494502,-0.3331300000000396,0.5501100000000037,0.6431147712500704,-1.7540300000000002,0.2696689999999933,1.7746387267444033,-1.6322299999999927,0.7140729999999991,1.7815933941921134,-0.1230400000000031,0.8385399999999947,0.8475188335370442,0.0472199999999816,1.252439999999993,1.2533298376724222,-2.29910000000001,1.3039090000000044,2.643111705978591,-2.1016200000000254,1.875969000000012,2.817102467671553,0.4839800000000309,0.6152550000000048,0.7827996904860373,0.9220600000000444,0.9291350000000024,1.3090020977160757,-1.2502100000000382,1.933295000000001,2.3023150525341007,-0.6101900000000455,2.604414999999989,2.67494099529784,-1.143349999999998,0.1317899999999952,1.1509204258331651,-0.6573000000000206,0.2731499999999869,0.7117964684514949,-0.4228200000000015,0.5751599999999826,0.7138527705346399,0.1055599999999685,1.0030599999999763,1.008599165773969,-0.9396300000000224,1.9261899999999912,2.143154789790044,-0.7176699999999983,2.2961699999999894,2.4057113080750043,-2.241480000000024,2.048870000000022,3.0367912123325502,-2.0430200000000696,2.4931300000000363,3.2232945750117947,-0.831450000000018,2.240920000000017,2.390194876762166,-0.3376700000000028,2.3976100000000145,2.421271306772554,-0.9657300000000076,2.2754500000000064,2.471903544922424,-0.8308499999999981,2.5089399999999955,2.6429323952950394,-2.5400300000000016,2.012360000000001,3.2405779068709357,-1.7042700000000082,1.7753299999999967,2.4609617717063417,-0.7567499999999541,2.156900000000008,2.2858014289303354,-0.514319999999941,2.004230000000007,2.0691696294165847,1.987530000000021,2.394650000000041,137.047462,0.7619556591396969,102.2277482,0.6627478010101667,90.457959,0.5734308653016382,0.0250558299999999,0.21380979,0.10081742100318,0,0
39,1300.0,485.2629,89.62915,0.9655943,487.67834,87.13138,0.93834394,482.70422,87.17318,0.9220018,491.76248,87.574104,0.7724251,478.8751,87.66931,0.6691084,497.46588,100.79678,0.99504083,474.09805,101.20828,0.9963213,504.48438,118.20726,0.97516465,467.5153,118.75209,0.9762889,507.12387,133.16315,0.9595989,464.752,134.48508,0.95821744,493.41183,136.58174,0.9963433,479.29327,136.73119,0.9969399,490.55365,165.56575,0.9893713,479.3212,165.52834,0.98934525,490.81122,193.48935,0.9662229,482.82175,193.34749,0.9655794,0.9330623,-0.10243415,0.90741425,0.19160344,168.05346528610588,169.39468508046818,173.83965204311778,172.88359991882004,0.9169507216366396,136.656465,101.00253,89.62915,42.37187,106.35797,0.39838922839173,178.99114395223614,0.9430533888235296,0.0346000000000117,-0.5089100000000002,0.5100848440210717,0.95938000000001,-0.8044249999999948,1.2520022224521052,-0.1662000000000034,-0.3528650000000084,0.3900463411250092,0.398619999999994,-0.3474700000000155,0.5288036547717934,0.1425200000000472,-0.3569099999999992,0.3843132817116953,1.2936200000000897,-0.3666750000000007,1.3445829316279574,-0.0582899999999995,-0.6042360000000002,0.6070410758721358,0.3206400000000258,-0.7718660000000028,0.8358152496551022,0.4658000000000015,-0.6652849999999972,0.8121414724202907,2.2198300000000017,-0.9349539999999904,2.4086893139248966,0.0824800000000323,-1.1750499999999988,1.1779411924625112,0.2055200000000354,-2.0135899999999936,2.0240511748718184,0.9655700000000138,-1.7215750000000014,1.9738657263160104,3.264670000000024,-3.025484000000006,4.4510250103943685,-1.0536200000000235,-0.3273549999999972,1.1033024972440912,-1.5376000000000545,-0.942610000000002,1.8035319160192789,-0.700369999999964,-2.2570650000000114,2.363230955942521,0.5498400000000743,-4.1903600000000125,4.226279800865081,0.3464999999999918,-0.8376599999999996,0.9064968425758546,1.48984999999999,-0.9694499999999948,1.777494395209155,-1.1447000000000005,-2.560829999999981,2.805029122647376,-0.7218799999999987,-3.135989999999964,3.218003109771613,0.4762800000000311,-1.54258999999999,1.6144431072354326,1.4159100000000535,-3.468779999999981,3.7466299278818576,1.3872900000000072,-1.7407300000000134,2.225918793891652,3.628770000000032,-3.789600000000036,5.246812353505745,-1.6222199999999702,-0.7339000000000055,1.7805074946205397,-0.7907699999999522,-2.9748200000000224,3.0781278766971423,0.9510799999999904,-0.8797400000000266,1.2955676879268132,1.916809999999998,-3.155190000000033,3.691799630559628,-0.0594500000000266,0.9757999999999925,0.97760929951591,2.480579999999975,-1.0365600000000086,2.6884444889191768,3.0433699999999817,0.6021299999999883,3.102363855804131,3.800119999999936,-1.554770000000019,4.105876491968502,-1.6416600000000017,-3.629190000000023,136.945358,0.7760110305885023,101.7973557,0.606847326500406,90.135001,0.4644730095555787,0.04421618,0.18305498,0.0691201492281407,0,0
