frame_id,timestamp_ms,nose_x,nose_y,nose_conf,left_eye_x,left_eye_y,left_eye_conf,right_eye_x,right_eye_y,right_eye_conf,left_ear_x,left_ear_y,left_ear_conf,right_ear_x,right_ear_y,right_ear_conf,left_shoulder_x,left_shoulder_y,left_shoulder_conf,right_shoulder_x,right_shoulder_y,right_shoulder_conf,left_elbow_x,left_elbow_y,left_elbow_conf,right_elbow_x,right_elbow_y,right_elbow_conf,left_wrist_x,left_wrist_y,left_wrist_conf,right_wrist_x,right_wrist_y,right_wrist_conf,left_hip_x,left_hip_y,left_hip_conf,right_hip_x,right_hip_y,right_hip_conf,left_knee_x,left_knee_y,left_knee_conf,right_knee_x,right_knee_y,right_knee_conf,left_ankle_x,left_ankle_y,left_ankle_conf,right_ankle_x,right_ankle_y,right_ankle_conf,acc_x,acc_y,acc_z,acc_mag,left_elbow_angle,right_elbow_angle,left_knee_angle,right_knee_angle,spine_angle,hip_height,shoulder_height,head_height,bbox_width,bbox_height,bbox_aspect_ratio,shoulder_tilt,avg_confidence,nose_vx,nose_vy,nose_speed,nose_ax,nose_ay,nose_accel,left_eye_vx,left_eye_vy,left_eye_speed,left_eye_ax,left_eye_ay,left_eye_accel,right_eye_vx,right_eye_vy,right_eye_speed,right_eye_ax,right_eye_ay,right_eye_accel,left_ear_vx,left_ear_vy,left_ear_speed,left_ear_ax,left_ear_ay,left_ear_accel,right_ear_vx,right_ear_vy,right_ear_speed,right_ear_ax,right_ear_ay,right_ear_accel,left_shoulder_vx,left_shoulder_vy,left_shoulder_speed,left_shoulder_ax,left_shoulder_ay,left_shoulder_accel,right_shoulder_vx,right_shoulder_vy,right_shoulder_speed,right_shoulder_ax,right_shoulder_ay,right_shoulder_accel,left_elbow_vx,left_elbow_vy,left_elbow_speed,left_elbow_ax,left_elbow_ay,left_elbow_accel,right_elbow_vx,right_elbow_vy,right_elbow_speed,right_elbow_ax,right_elbow_ay,right_elbow_accel,left_wrist_vx,left_wrist_vy,left_wrist_speed,left_wrist_ax,left_wrist_ay,left_wrist_accel,right_wrist_vx,right_wrist_vy,right_wrist_speed,right_wrist_ax,right_wrist_ay,right_wrist_accel,left_hip_vx,left_hip_vy,left_hip_speed,left_hip_ax,left_hip_ay,left_hip_accel,right_hip_vx,right_hip_vy,right_hip_speed,right_hip_ax,right_hip_ay,right_hip_accel,left_knee_vx,left_knee_vy,left_knee_speed,left_knee_ax,left_knee_ay,left_knee_accel,right_knee_vx,right_knee_vy,right_knee_speed,right_knee_ax,right_knee_ay,right_knee_accel,left_ankle_vx,left_ankle_vy,left_ankle_speed,left_ankle_ax,left_ankle_ay,left_ankle_accel,right_ankle_vx,right_ankle_vy,right_ankle_speed,right_ankle_ax,right_ankle_ay,right_ankle_accel,hip_velocity,hip_acceleration,hip_height_mean_5,hip_height_std_5,shoulder_height_mean_5,shoulder_height_std_5,head_height_mean_5,head_height_std_5,acc_mag_diff,acc_mag_mean_5,acc_mag_std_5,label_binary,label_3class
0,0.0,568.91516,81.29099,0.9349055,573.6809,77.25067,0.94251186,569.1115,78.21872,0.5659192,587.9166,78.61852,0.9368613,574.7685,79.65659,0.17462508,596.07416,99.874916,0.997689,577.1313,98.307785,0.9666987,584.06445,129.21059,0.99528944,561.522,121.82741,0.826179,552.18823,136.96793,0.9883017,545.22003,134.4863,0.8175915,581.2998,150.15872,0.9969567,569.28345,145.24832,0.98814964,531.88354,159.21103,0.9922099,522.70264,154.45062,0.9687353,539.58545,207.18283,0.96261376,534.0204,199.49783,0.91458046,1.0160361,0.59053164,0.6357304,-0.52862899,125.94119224939952,161.40132635901628,91.25958253258256,87.07199255485023,13.09855007107773,147.70352,99.0913505,81.29099,73.37152000000003,129.93216,0.5646909851672522,-175.27072554174313,0.8805775317647059,0.0,0.0,0.0,0.0,0.0,0.0,0.0,0.0,0.0,0.0,0.0,0.0,0.0,0.0,0.0,0.0,0.0,0.0,0.0,0.0,0.0,0.0,0.0,0.0,0.0,0.0,0.0,0.0,0.0,0.0,0.0,0.0,0.0,0.0,0.0,0.0,0.0,0.0,0.0,0.0,0.0,0.0,0.0,0.0,0.0,0.0,0.0,0.0,0.0,0.0,0.0,0.0,0.0,0.0,0.0,0.0,0.0,0.0,0.0,0.0,0.0,0.0,0.0,0.0,0.0,0.0,0.0,0.0,0.0,0.0,0.0,0.0,0.0,0.0,0.0,0.0,0.0,0.0,0.0,0.0,0.0,0.0,0.0,0.0,0.0,0.0,0.0,0.0,0.0,0.0,0.0,0.0,0.0,0.0,0.0,0.0,0.0,0.0,0.0,0.0,0.0,0.0,0.0,0.0,147.70352,0.0,99.0913505,0.0,81.29099,0.0,0.0,-0.52862899,0.0,0,0
1,33.333333333333336,568.64233,80.49289,0.93662465,573.50635,76.55606,0.94447494,568.8924,77.42494,0.5706227,587.8009,78.31478,0.9383576,574.4983,79.117874,0.17420584,595.73126,99.86891,0.997735,576.7498,98.31794,0.96635187,583.7362,129.0903,0.9953571,561.32184,122.02487,0.8219843,552.20325,137.02866,0.9884179,545.1606,134.67523,0.8142004,581.21204,150.09201,0.9969042,569.15845,145.24304,0.98774827,532.03125,159.0823,0.99204105,522.6671,154.45721,0.9675413,539.8109,207.14671,0.9616579,534.2771,199.71426,0.91157484,0.99827807,0.43921405,0.63720427,-0.63057184,126.4480833186854,161.1076036620774,91.16524547698464,86.82215949672779,12.821898171189956,147.667525,99.093425,80.49289,73.06416000000002,130.59065,0.5594899745158634,-175.3287546217066,0.8803411682352942,-0.272829999999999,-0.7980999999999909,0.8434452080010799,-0.272829999999999,-0.7980999999999909,0.8434452080010799,-0.1745499999999538,-0.6946099999999973,0.7162058046399653,-0.1745499999999538,-0.6946099999999973,0.7162058046399653,-0.2191000000000258,-0.7937799999999982,0.8234631129564993,-0.2191000000000258,-0.7937799999999982,0.8234631129564993,-0.1157000000000607,-0.3037400000000048,0.3250299641571788,-0.1157000000000607,-0.3037400000000048,0.3250299641571788,-0.2702000000000453,-0.5387159999999938,0.6026798226720534,-0.2702000000000453,-0.5387159999999938,0.6026798226720534,-0.342899999999986,-0.0060059999999992,0.3429525944441744,-0.342899999999986,-0.0060059999999992,0.3429525944441744,-0.38149999999996,0.0101549999999974,0.381635132063296,-0.38149999999996,0.0101549999999974,0.381635132063296,-0.3282499999999118,-0.1202899999999829,0.3495965483238328,-0.3282499999999118,-0.1202899999999829,0.3495965483238328,-0.2001600000000962,0.1974600000000066,0.2811662803396615,-0.2001600000000962,0.1974600000000066,0.2811662803396615,0.0150200000000495,0.0607300000000066,0.0625598377555624,0.0150200000000495,0.0607300000000066,0.0625598377555624,-0.0594299999999066,0.1889299999999991,0.1980567337910745,-0.0594299999999066,0.1889299999999991,0.1980567337910745,-0.0877600000000029,-0.0667100000000004,0.1102362993754805,-0.0877600000000029,-0.0667100000000004,0.1102362993754805,-0.125,-0.005279999999999,0.1251114639031931,-0.125,-0.005279999999999,0.1251114639031931,0.1477099999999609,-0.1287299999999902,0.1959327869448754,0.1477099999999609,-0.1287299999999902,0.1959327869448754,-0.035539999999969,0.0065900000000169,0.0361458116522235,-0.035539999999969,0.0065900000000169,0.0361458116522235,0.2254499999999097,-0.0361199999999826,0.2283251122850004,0.2254499999999097,-0.0361199999999826,0.2283251122850004,0.2567000000000234,0.2164300000000025,0.3357630636326949,0.2567000000000234,0.2164300000000025,0.3357630636326949,-0.0359949999999855,-0.0359949999999855,147.6855225,0.0254523085887895,99.09238775,0.0014668930175658,80.89194,0.5643419220649822,-0.10194285,-0.579600415,0.072084480528483,0,0
2,66.66666666666667,568.49146,80.22168,0.93898934,573.43207,76.30133,0.94681996,568.77295,77.15123,0.57908595,587.81635,78.182106,0.94015443,574.3977,78.898575,0.17669602,595.41437,99.89632,0.9978036,576.6861,98.306145,0.96683,583.31445,129.0911,0.99544203,561.2706,122.01108,0.82102275,552.0596,136.99078,0.98855734,544.8315,134.64737,0.813243,580.94366,150.0502,0.9969221,569.0381,145.24585,0.9877116,531.81915,159.0258,0.99208015,522.51086,154.56871,0.9673969,540.27875,206.98602,0.96177274,534.6801,199.82237,0.91130626,1.02406864,0.59716406,0.63229136,-0.54066561,126.6962731104748,160.58476011429818,90.35098734218286,86.27910559451296,12.833438463696602,147.648025,99.1012325,80.22168,72.90350999999998,130.68469,0.5578580738274844,-175.14678555467097,0.8812843629411764,-0.1508700000000544,-0.2712099999999964,0.3103491920402154,0.1219599999999445,0.5268899999999945,0.540820962703907,-0.0742800000000443,-0.2547300000000092,0.2653392004586041,0.1002699999999094,0.439879999999988,0.4511634817889978,-0.1194499999999152,-0.2737100000000083,0.298639358758996,0.0996500000001106,0.5200699999999898,0.5295308559470463,0.0154500000001007,-0.1326739999999944,0.1335705535513034,0.1311500000001615,0.1710660000000103,0.2155548627520286,-0.1005999999999858,-0.2192990000000065,0.2412724837212068,0.1696000000000594,0.3194169999999872,0.361650908873477,-0.3168900000000576,0.0274100000000032,0.3180732308762193,0.0260099999999283,0.0334160000000025,0.0423455919311142,-0.0637000000000398,-0.0117949999999922,0.0647828065539375,0.3177999999999201,-0.0219499999999897,0.3185571259600839,-0.4217500000000882,0.0007999999999981,0.4217507587427371,-0.0935000000001764,0.121089999999981,0.1529870520665994,-0.051240000000007,-0.0137900000000001,0.0530631859201907,0.1489200000000892,-0.2112500000000068,0.2584641733394194,-0.1436499999999796,-0.0378800000000012,0.1485604822959128,-0.1586700000000291,-0.0986100000000078,0.1868156872428298,-0.3291000000000394,-0.0278600000000039,0.330277140595631,-0.2696700000001328,-0.2167900000000031,0.3460055100718383,-0.2683799999999792,-0.0418099999999981,0.2716171947796911,-0.1806199999999762,0.0249000000000023,0.1823282600147095,-0.1203500000000303,0.0028099999999824,0.1203828002665132,0.0046499999999696,0.0080899999999815,0.0093311628428303,-0.2120999999999639,-0.0564999999999997,0.2194963781022017,-0.3598099999999249,0.0722299999999904,0.3669882954536079,-0.1562400000000252,0.1115000000000066,0.1919457933897207,-0.1207000000000562,0.1049099999999896,0.1599205993610935,0.4678499999999985,-0.1606900000000166,0.4946765595821212,0.2424000000000887,-0.124570000000034,0.2725352177243365,0.40300000000002,0.1081100000000105,0.4172490528449626,0.1462999999999965,-0.1083199999999919,0.1820354701699568,-0.019500000000022,0.0164949999999635,147.67302333333333,0.0281531083245351,99.09533600000002,0.0052107985712405,80.66852,0.5558690418614777,0.0899062299999999,-0.5666221466666667,0.055708100966795,0,0
3,100.0,568.23584,80.101944,0.9424712,573.2533,76.17207,0.95034295,568.3959,76.997635,0.59369224,587.68384,78.109634,0.942313,573.7789,78.81011,0.17953648,595.0806,99.94025,0.9978637,576.29675,98.43979,0.9667685,583.0919,129.20502,0.99549246,561.12366,122.36493,0.8171338,552.3644,137.01604,0.98867023,544.8253,134.81018,0.81052095,580.8659,150.03589,0.996852,568.9125,145.30722,0.9872464,531.9745,158.55568,0.9919517,522.6298,154.23257,0.96639645,540.0956,206.82587,0.96129584,534.57056,199.82344,0.9094036,0.96541899,0.48293893,0.5195401,-0.65489074,126.53977041127686,159.74742950369355,90.33492148385083,86.2384281920919,12.55786598530721,147.671555,99.19002,80.101944,72.45079999999996,130.6538,0.5545250076574502,-175.4328922019602,0.8822324411764706,-0.255619999999908,-0.1197360000000031,0.2822734385236304,-0.1047499999998535,0.1514739999999932,0.1841655102780302,-0.1787699999999858,-0.1292599999999879,0.2206056674249141,-0.1044899999999415,0.1254700000000213,0.1632816003106079,-0.3770500000000538,-0.1535949999999957,0.4071340399979339,-0.2576000000001386,0.1201150000000126,0.2842276784992525,-0.1325100000000247,-0.0724720000000047,0.1510334098271215,-0.1479600000001255,0.0602019999999896,0.1597386690943552,-0.6187999999999647,-0.0884649999999993,0.625091590268943,-0.5181999999999789,0.1308340000000072,0.5344612011699071,-0.3337699999999586,0.0439300000000031,0.3366485672032077,-0.0168799999999009,0.0165199999999998,0.0236187383235568,-0.3893500000000358,0.1336450000000013,0.411648404011273,-0.325649999999996,0.1454399999999935,0.3566520939234698,-0.2225499999999556,0.1139199999999789,0.2500125374855738,0.1992000000001326,0.1131199999999807,0.2290780967269644,-0.1469399999999723,0.3538499999999942,0.3831464290581184,-0.0956999999999652,0.3676399999999944,0.3798916419190994,0.3048000000000002,0.0252600000000029,0.305844907755549,0.4484499999999798,0.0631400000000041,0.452873119206674,-0.0062000000000352,0.1628100000000074,0.1629280089487466,0.3229000000000042,0.1906700000000114,0.3749926117938953,-0.077760000000012,-0.0143099999999947,0.0790657555456325,0.1906199999999671,0.0275000000000034,0.1925934432943854,-0.125599999999963,0.0613700000000108,0.139791404957501,-0.0052499999999326,0.0585600000000283,0.0587948645716836,0.1553499999999985,-0.4701200000000085,0.4951226483408001,0.3674499999999625,-0.4136200000000087,0.5532639577091388,0.1189400000000659,-0.3361400000000003,0.3565625095267531,0.2751800000000912,-0.4476400000000069,0.525457516836572,-0.183149999999955,-0.1601499999999873,0.243293947725749,-0.6509999999999536,0.0005400000000292,0.6510002239630488,-0.1095400000000381,0.0010699999999985,0.1095452258202444,-0.5125400000000582,-0.107040000000012,0.523597949957849,0.0235300000000222,0.0430300000000443,147.67265625,0.0229986377766836,99.119007,0.0475327947684527,80.526876,0.5350193318102292,-0.11422513,-0.588689295,0.063377949513053,0,0
4,133.33333333333334,567.879,80.277695,0.9444927,572.89246,76.26678,0.95222956,568.00366,77.146,0.6018727,587.35254,77.97891,0.94372976,573.3768,78.80376,0.18166359,594.8411,99.780975,0.9979233,576.03894,98.416115,0.9672833,583.0708,129.26628,0.99557245,560.9314,122.54028,0.81751823,552.3594,136.9192,0.9888425,544.6432,134.83621,0.8110746,580.82477,150.19676,0.99687344,568.8701,145.5452,0.9872644,531.94714,158.40492,0.992011,522.68494,154.21356,0.9664596,540.3786,206.78519,0.96159005,534.83057,199.89018,0.90975696,0.96541899,0.48293893,0.5195401,-0.65489074,125.75395352067932,159.10556627893257,89.64697207423845,85.73935958183986,12.253428417591572,147.87098,99.098545,80.277695,72.15616,130.51841000000002,0.5528427709712156,-175.84814758213787,0.8833034199999998,-0.3568400000000338,0.1757509999999911,0.3977727989707453,-0.1012200000001257,0.2954869999999943,0.3123428493963357,-0.3608399999999392,0.094709999999992,0.3730623134276024,-0.1820699999999533,0.22396999999998,0.2886382611504823,-0.3922400000000152,0.1483649999999983,0.4193618852793032,-0.0151899999999614,0.301959999999994,0.3023418226114197,-0.3313000000000556,-0.1307240000000007,0.3561579062382823,-0.1987900000000309,-0.0582519999999959,0.2071491240725188,-0.4021000000000185,-0.0063499999999976,0.402150136764884,0.2166999999999461,0.0821150000000017,0.2317364089325994,-0.2395000000000209,-0.159275000000008,0.2876261038657872,0.0942699999999376,-0.2032050000000111,0.2240069305289298,-0.2578099999999494,-0.0236749999999972,0.2588947695975602,0.1315400000000863,-0.1573199999999985,0.2050667062202499,-0.0211000000000467,0.0612600000000043,0.0647919562909046,0.2014499999999088,-0.0526599999999746,0.208219062767943,-0.1922599999999192,0.1753499999999945,0.2602143925688336,-0.0453199999999469,-0.1784999999999996,0.184163385068789,-0.0049999999999954,-0.0968400000000144,0.0969689929823072,-0.3097999999999956,-0.1221000000000174,0.3329931680980881,-0.1820999999999912,0.0260299999999915,0.1839510013563296,-0.1758999999999559,-0.1367800000000159,0.2228218535063131,-0.0411300000000665,0.1608700000000169,0.1660446741091412,0.0366299999999455,0.1751800000000116,0.1789686824558981,-0.0424000000000432,0.2379799999999932,0.2417276161302229,0.0831999999999197,0.1766099999999824,0.1952263611810158,-0.0273600000000442,-0.1507599999999911,0.1532225414225979,-0.1827100000000427,0.3193600000000174,0.3679317242370203,0.0551399999999375,-0.0190100000000086,0.0583249492069512,-0.0638000000001284,0.3171299999999917,0.3234839669906549,0.2830000000000154,-0.0406800000000089,0.285908835820108,0.4661499999999705,0.1194699999999784,0.4812160672712076,0.2600099999999656,0.0667399999999815,0.2684388714399978,0.3695500000000038,0.065669999999983,0.3753395148395657,0.1994249999999908,0.1758949999999686,147.712321,0.0909019524955344,99.1149146,0.0421694631537436,80.4770398,0.4765527234317299,0.0,-0.601929584,0.0623626460902432,0,0
5,166.66666666666666,567.6408,80.23648,0.9457674,572.5752,76.158005,0.9537769,567.6117,77.12189,0.6068409,586.8667,77.780876,0.9453577,572.9122,78.83323,0.1838375,594.5102,99.67915,0.9979674,576.02405,98.53456,0.9671891,583.19336,129.27975,0.99563193,561.1936,122.775696,0.8146969,552.6467,136.71745,0.988943,544.8321,134.85342,0.8089754,581.00726,150.21439,0.99681795,569.2962,145.68428,0.98689145,531.9433,158.31552,0.9918051,523.07104,154.36874,0.9652112,540.30945,206.6445,0.9604256,534.8452,199.91632,0.90645576,0.98685707,0.33014747,0.6757706,-0.63892379,124.60721793650455,157.89180167775683,89.55467570478747,86.1464845472574,11.700684546595593,147.94933500000002,99.106855,80.23648,71.43916000000002,130.486495,0.5474831663806806,-176.45699262660565,0.8833288935294118,-0.2382000000000061,-0.041214999999994,0.2417393559704386,0.1186400000000276,-0.2169659999999851,0.2472846431867537,-0.3172600000000329,-0.1087749999999942,0.3353891891892457,0.0435799999999062,-0.2034849999999863,0.2080994032307307,-0.3919599999999263,-0.0241100000000074,0.3927008195814501,0.0002800000000888,-0.1724750000000057,0.1724752272791719,-0.4858399999999392,-0.1980339999999927,0.5246503318934793,-0.1545399999998835,-0.0673099999999919,0.1685622961992477,-0.4646000000000185,0.0294700000000034,0.4655337161796312,-0.0625,0.035820000000001,0.0720369516290082,-0.3308999999999287,-0.1018249999999909,0.3462125656658795,-0.0913999999999077,0.0574500000000171,0.107955835877386,-0.0148900000000367,0.1184449999999941,0.1193772596644759,0.2429199999999127,0.1421199999999913,0.2814395508807445,0.1225600000000213,0.0134700000000123,0.1232979906568049,0.143660000000068,-0.047789999999992,0.1514003953099819,0.2621999999998934,0.2354160000000007,0.3523769757744459,0.4544599999998127,0.0600660000000061,0.4584122772743226,0.2872999999999592,-0.2017499999999756,0.3510617502661985,0.2922999999999547,-0.1049099999999612,0.3105565940371664,0.1888999999999896,0.0172100000000057,0.189682350523174,0.3709999999999809,-0.0088199999999858,0.3711048266999306,0.1824900000000298,0.0176299999999969,0.1833396220133847,0.2236200000000963,-0.14324000000002,0.2655628023651821,0.4261000000000194,0.1390800000000069,0.4482236678266985,0.4685000000000627,-0.0988999999999862,0.478825082885239,-0.0038399999999683,-0.0894000000000119,0.0894824317953076,0.0235200000000759,0.0613599999999792,0.0657133167630505,0.3861000000000558,0.1551800000000014,0.4161178227377957,0.3309600000001182,0.17419000000001,0.3740009060150547,-0.069150000000036,-0.1406900000000064,0.156765425397333,-0.3521500000000515,-0.1000099999999974,0.366075979272112,0.014630000000011,0.0261400000000264,0.0299555754410044,-0.2453799999999546,-0.0405999999999551,0.2487161120634811,0.0783550000000161,-0.1210699999999747,147.761484,0.1388036703585322,99.1180155,0.0405421599387596,80.2661378,0.1426234676664417,0.01596695,-0.623988544,0.0477467384355133,0,0
6,200.0,567.3256,80.301865,0.95075035,572.1608,76.20671,0.9572793,566.8324,76.97706,0.6068088,585.3904,77.974594,0.9465551,571.1529,79.044464,0.16717087,592.5668,100.34271,0.99803776,574.3156,99.039734,0.9668315,583.49133,130.43864,0.9964612,559.2856,123.843704,0.8239409,552.29266,136.19469,0.99194616,545.28076,134.7543,0.8341868,580.2804,150.70447,0.99707747,568.43414,146.20737,0.9874406,531.487,158.5929,0.9934476,522.5719,155.15552,0.96985,539.8856,207.88184,0.9714011,533.36285,202.1243,0.9271765,1.08501374,0.35151862,0.75093811,-0.69984386,117.23408889583771,159.1345183270132,89.51349676532413,88.10123035470751,10.55216747976119,148.45592,99.691222,80.301865,69.99489999999992,131.67513000000002,0.5315726627224688,-175.91651067516776,0.8874330594117648,-0.3152000000000043,0.0653850000000062,0.3219102953075647,-0.0769999999999981,0.1066000000000002,0.1315011787019408,-0.4144000000000005,0.0487049999999982,0.4172523661107271,-0.0971399999999675,0.1574799999999925,0.1850300786358567,-0.7793000000000347,-0.1448299999999989,0.792643815909803,-0.3873400000001084,-0.1207199999999915,0.4057161495431035,-1.4763000000000377,0.1937179999999898,1.488955457199478,-0.9904600000000984,0.3917519999999825,1.0651200125357616,-1.7592999999999392,0.2112340000000045,1.7719357473553572,-1.2946999999999207,0.1817640000000011,1.3073967422690769,-1.9434000000001104,0.6635599999999897,2.053561645921645,-1.612500000000182,0.7653849999999807,1.7849286955577686,-1.7084499999999707,0.5051739999999967,1.781572949046964,-1.693559999999934,0.3867290000000025,1.737154222583815,0.2979699999999639,1.158889999999985,1.1965835336490072,0.1754099999999425,1.145419999999973,1.1587733361188106,-1.9079999999999016,1.068008000000006,2.1865738240598325,-2.170199999999795,0.8325920000000053,2.324430570798603,-0.3540400000000545,-0.5227600000000052,0.6313654561345942,-0.6413400000000138,-0.3210100000000295,0.7171920354410224,0.448660000000018,-0.0991199999999992,0.4594785849199242,0.2597600000000284,-0.1163300000000049,0.2846189145155604,-0.7268599999999878,0.4900799999999776,0.8766435227616528,-0.9093500000000176,0.4724499999999807,1.0247567638225248,-0.8620600000000422,0.5230899999999963,1.0083504310010825,-1.2881600000000617,0.3840099999999893,1.3441799975078303,-0.4563000000000556,0.2773799999999937,0.5339937774918798,-0.4524600000000873,0.3667800000000056,0.5824496716456137,-0.4991400000000112,0.7867799999999932,0.9317529221848464,-0.8852400000000671,0.6315999999999917,1.087459616537602,-0.4238500000000158,1.2373400000000174,1.3079216712403143,-0.3546999999999798,1.3780300000000238,1.4229472129703375,-1.4823499999999967,2.207979999999992,2.659424223943964,-1.4969800000000075,2.1818399999999656,2.646011131117908,0.5065849999999728,0.4282299999999566,147.919163,0.3264067879310842,99.2375749,0.256448540276699,80.22793279999999,0.0773427058726291,-0.0609200699999999,-0.637842948,0.0588854199976052,0,0
7,233.3333333333333,566.8215,80.78998,0.9459224,571.43964,76.6036,0.95290816,566.31824,77.537155,0.58367634,584.5369,78.05148,0.94361246,570.9221,79.4966,0.1612144,592.2194,100.17103,0.9979219,574.283,99.0216,0.96542424,583.3449,130.47437,0.9963482,559.3751,123.87799,0.82257795,552.2971,136.1719,0.9917196,545.5588,134.61536,0.8328543,580.0379,150.71399,0.99701536,568.4352,146.26633,0.98728985,531.1513,158.55496,0.99333245,522.7458,154.9947,0.96962255,539.9707,207.93173,0.97111255,533.546,201.70154,0.92696595,2.06114162,0.81529721,0.7487273,-1.73867842,116.7215180443866,158.80634688619037,88.9850630701154,87.79542055506492,10.446422674616326,148.49016,99.596315,80.78998,69.47359999999992,131.32813,0.5290077569138628,-176.33329114510698,0.8846775682352942,-0.504099999999994,0.4881149999999934,0.7016929978452027,-0.1888999999999896,0.4227299999999871,0.463016050369731,-0.7211599999999407,0.3968899999999991,0.8231606269130671,-0.3067599999999402,0.3481850000000008,0.4640414764058961,-0.5141600000000608,0.560095000000004,0.7603071186205395,0.2651399999999739,0.7049250000000029,0.7531390809306009,-0.8535000000000537,0.0768860000000017,0.8569560706337822,0.6227999999999838,-0.116831999999988,0.6336635986262561,-0.2308000000000447,0.4521359999999959,0.5076372745337137,1.5284999999998945,0.2409019999999913,1.5473674494455651,-0.3473999999999932,-0.1716799999999949,0.3875058482139251,1.596000000000117,-0.8352399999999847,1.8013444583422542,-0.0326000000000021,-0.0181339999999892,0.0373041814814338,1.6758499999999683,-0.5233079999999859,1.755655001805275,-0.1464299999998957,0.0357300000000009,0.1507261682653995,-0.4443999999998596,-1.1231599999999844,1.2078823393028977,0.0894999999999299,0.0342859999999944,0.0958424738619944,1.997499999999832,-1.0337220000000116,2.249130370450622,0.004440000000045,-0.0227900000000147,0.0232184775556252,0.3584800000000996,0.4999699999999905,0.6152055845813348,0.2780400000000327,-0.1389399999999909,0.3108224013806206,-0.1706199999999853,-0.0398199999999917,0.1752050707028604,-0.2424999999999499,0.009520000000009,0.2426867948611459,0.4843600000000378,-0.4805599999999685,0.6823067661983182,0.0010600000000522,0.0589600000000132,0.0589695277240853,0.8631200000000945,-0.464129999999983,0.9799963220850104,-0.3356999999999743,-0.0379399999999918,0.3378371406461731,0.1206000000000813,-0.3153199999999856,0.3375960047157113,0.1739000000000032,-0.160820000000001,0.2368634256275153,0.6730400000000145,-0.9475999999999942,1.162294541671778,0.0851000000000112,0.0498899999999764,0.0986459431502358,0.5089500000000271,-1.187450000000041,1.2919239935074065,0.1831500000000687,-0.4227600000000109,0.460727620292114,1.6655000000000657,-2.630740000000003,3.1136286222991068,0.0342400000000111,-0.4723449999999616,148.08759,0.3663499188446386,99.3365914,0.2846696718080471,80.3415928,0.2622939935105335,-1.0388345600000002,-0.87744551,0.481979857867799,0,0
8,266.6666666666667,566.15735,81.65755,0.9451434,570.6048,77.35468,0.95332426,565.7109,78.383194,0.57259977,583.7873,78.21098,0.94520146,570.72784,79.929085,0.1543231,591.9041,99.957375,0.9979887,574.4117,98.966225,0.9640418,582.9055,130.59854,0.9965042,559.2661,124.2027,0.81550735,551.9805,136.2785,0.9919675,545.6432,134.73616,0.8278855,579.807,150.8591,0.9970674,568.53876,146.43181,0.98707634,531.1669,158.48187,0.99348664,523.27606,154.74207,0.96936494,539.8129,208.1723,0.9717882,533.3703,201.36183,0.9272718,1.17571207,0.75511408,0.74700778,-0.50406444,116.77374786393766,158.68176832444877,89.03633013082577,88.18642582273147,10.3528129023713,148.64545500000003,99.4618,81.65755,68.62803999999994,130.81762,0.5246085311396997,-176.7569885058234,0.88297308,-0.6641500000000633,0.8675700000000006,1.092599161357945,-0.1600500000000693,0.3794550000000072,0.4118277546803125,-0.8348400000000993,0.7510800000000017,1.1229777344187053,-0.1136800000001585,0.3541900000000026,0.37198615364021,-0.6073399999999083,0.8460390000000046,1.0414623685572593,-0.0931799999998475,0.2859440000000006,0.3007432186034657,-0.7495999999999867,0.1595000000000084,0.7663813737298049,0.1039000000000669,0.0826140000000066,0.132741414019947,-0.1942599999999856,0.4324849999999998,0.4741099269420482,0.036540000000059,-0.019650999999996,0.0414889551688658,-0.3152999999999792,-0.2136550000000028,0.3808707773313518,0.032100000000014,-0.0419750000000078,0.0528423185051674,0.1286999999999807,-0.0553750000000121,0.1401073896159527,0.1612999999999829,-0.0372410000000229,0.1655432936756913,-0.4394000000000915,0.1241700000000207,0.4566076531335032,-0.2929700000001958,0.0884400000000198,0.3060278655614848,-0.1089999999999236,0.324709999999996,0.3425165457317073,-0.1984999999998535,0.2904240000000015,0.3517788364525967,-0.316599999999994,0.1066000000000144,0.3340645446616556,-0.321040000000039,0.1293900000000292,0.3461335778280296,0.0843999999999596,0.1208000000000026,0.1473634961582882,-0.1936400000000731,0.2597399999999936,0.3239773405657022,-0.2309000000000196,0.1451100000000167,0.2727117931076944,0.0115999999999303,0.1355900000000076,0.136085297148518,0.1035600000000158,0.1654800000000023,0.1952134831409041,0.1024999999999636,0.106519999999989,0.1478267918883117,0.0156000000000631,-0.0730900000000076,0.074736256930643,0.3513000000000374,-0.0351500000000157,0.3530541212052728,0.5302599999999984,-0.2526299999999821,0.5873649500097783,0.3563599999999951,-0.091809999999981,0.3679966381639825,-0.1577999999999519,0.2405700000000195,0.2877060390398405,-0.2428999999999632,0.190680000000043,0.3088029669546563,-0.1757000000000061,-0.3397099999999966,0.3824570225528613,-0.3588500000000749,0.0830500000000142,0.3683349358940259,0.1552950000000237,0.1210550000000125,148.28237,0.348310582365036,99.3909474,0.2754852231632424,80.652714,0.605293803778391,1.2346139800000002,-0.8472802500000001,0.503624715634397,0,0
9,300.0,565.6849,82.43251,0.9451679,570.0059,78.00891,0.95408106,565.17584,79.14019,0.5689771,583.23785,78.32741,0.9464219,570.41754,80.3139,0.15165417,591.73846,99.723755,0.99800485,574.709,98.82676,0.96325463,582.8203,130.62944,0.99653196,559.55365,124.2218,0.81115884,552.14,136.30022,0.99199706,545.6971,134.70348,0.82472616,580.0738,150.84335,0.9970306,569.15344,146.40018,0.98675144,530.9014,158.19395,0.99346817,523.5266,154.30823,0.96889853,539.3737,208.32375,0.97186285,533.1125,201.06578,0.92697823,1.81157385,0.90004489,1.05504716,-1.16558761,116.56810383156991,157.93347166384353,88.90922416237682,88.24699528304214,9.89748905638039,148.62176499999998,99.2752575,82.43251,68.21186,130.31484,0.5234389228161664,-176.98483824473166,0.8821744382352941,-0.4724499999999807,0.774959999999993,0.907618864997842,0.1917000000000825,-0.0926100000000076,0.2128978677677,-0.5988999999999578,0.6542299999999983,0.8869600345562066,0.2359400000001414,-0.0968500000000034,0.2550443218345929,-0.5350600000000441,0.7569960000000009,0.9270016977417294,0.0722799999998642,-0.0890430000000037,0.1146867657970222,-0.5494499999999789,0.116429999999994,0.5616504672836794,0.2001500000000078,-0.0430700000000143,0.2047316472849382,-0.3102999999999838,0.3848150000000032,0.4943366001268694,-0.1160399999999981,-0.0476699999999965,0.1254500318852061,-0.1656399999999394,-0.2336200000000019,0.2863824610551087,0.1496600000000398,-0.0199649999999991,0.1509858166352452,0.2972999999999501,-0.1394650000000012,0.3283866261359782,0.1685999999999694,-0.0840899999999891,0.1884067092754073,-0.0851999999999861,0.0308999999999741,0.0906302929488592,0.3542000000001053,-0.0932700000000466,0.3662743956381381,0.2875499999998965,0.0191000000000087,0.2881836437064755,0.3965499999998201,-0.3056099999999873,0.5006489534592573,0.15949999999998,0.0217199999999877,0.160972073354334,0.476099999999974,-0.0848800000000267,0.4836070971356601,0.0538999999999987,-0.0326799999999991,0.0630332642340519,-0.0304999999999608,-0.1534800000000018,0.1564811822552417,0.2667999999999892,-0.0157500000000254,0.2672644804308928,0.4977000000000089,-0.1608600000000422,0.5230499303126065,0.6146800000000212,-0.0316300000000069,0.6154932650322231,0.5111200000000053,-0.1971100000000092,0.5478101920373599,-0.2655000000000882,-0.2879199999999855,0.3916480261664017,-0.2811000000001513,-0.2148299999999778,0.3537925082588318,0.2505400000000009,-0.4338400000000035,0.5009864640886054,-0.2797199999999975,-0.1812100000000214,0.3332871772210962,-0.439200000000028,0.1514499999999827,0.4645791025218627,-0.281400000000076,-0.0891200000000367,0.2951750910901008,-0.2578000000000884,-0.2960500000000081,0.3925639342833857,-0.0821000000000822,0.0436599999999884,0.0929871259907117,-0.0236900000000446,-0.1789850000000683,148.432527,0.282175768728405,99.4262899,0.2372804040740655,81.083677,0.9439162264179034,-0.66152317,-0.949419624,0.5066297982891155,0,0
10,333.3333333333333,564.76044,83.28351,0.9352253,568.7527,78.79079,0.9469209,564.4706,80.014114,0.51407194,581.88995,78.57153,0.9439911,570.5426,80.77102,0.13375482,591.39197,99.387215,0.9979081,575.1577,98.64198,0.9591035,582.85675,130.47453,0.99660504,559.84106,124.25894,0.8013992,551.88904,136.3667,0.99211156,545.4614,134.50603,0.81823987,580.31946,151.12201,0.997024,570.00104,146.65495,0.98634493,530.7381,158.19073,0.993451,523.91565,154.0686,0.96799314,539.2112,208.66412,0.97164404,532.9285,200.74617,0.92538124,1.81157385,0.90004489,1.05504716,-1.16558761,116.1254137867351,156.3496842289509,88.58433428616428,88.21014329701451,9.241173957109922,148.88848000000002,99.0145975,83.28351,67.47631999999999,130.09259,0.5186791921147914,-177.3716794528419,0.8753629223529411,-0.9244599999999537,0.8510000000000133,1.256513944053124,-0.4520099999999729,0.0760400000000203,0.4583613440288989,-1.2531999999999923,0.781880000000001,1.4771075026550988,-0.6543000000000347,0.1276500000000027,0.666635591984141,-0.7052400000000034,0.8739240000000024,1.122990033515885,-0.1701799999999593,0.1169280000000014,0.2064785450936404,-1.3478999999999814,0.2441199999999952,1.369828085710009,-0.7984500000000025,0.1276900000000012,0.808595781957836,0.1250599999999622,0.4571199999999891,0.4739184507908302,0.435359999999946,0.0723049999999858,0.4413233991359975,-0.346490000000017,-0.3365399999999994,0.4830263882025613,-0.1808500000000776,-0.1029199999999974,0.2080847156809638,0.4487000000000307,-0.1847799999999893,0.4852580121955985,0.1514000000000805,-0.045314999999988,0.1580361010181639,0.0364500000000589,-0.154910000000001,0.159140537261895,0.1216500000000451,-0.1858099999999751,0.2220902487728845,0.2874100000000226,0.0371399999999937,0.2897997372324766,-0.0001399999998739,0.0180399999999849,0.0180405432290555,-0.2509599999999636,0.0664800000000127,0.259616085788195,-0.4104599999999436,0.044760000000025,0.4128932903305114,-0.2356999999999516,-0.1974500000000034,0.3074751900560085,-0.2895999999999503,-0.1647700000000043,0.3331926063104832,0.2456600000000435,0.2786600000000021,0.3714838236047736,-0.0211399999999457,0.2944100000000276,0.2951679991123935,0.8475999999999431,0.2547700000000077,0.8850613045998041,0.2329199999999218,0.2864000000000146,0.3691567233574,-0.1632999999999356,-0.0032199999999988,0.1633317433935576,0.1022000000001526,0.2846999999999866,0.3024879005845086,0.3890499999999974,-0.2396300000000053,0.4569271707832667,0.1385099999999965,0.1942099999999982,0.2385425416985372,-0.1625000000000227,0.3403700000000071,0.377171031363773,0.2767000000000053,0.1889200000000244,0.3350427680162819,-0.183999999999969,-0.3196099999999831,0.3687906616225224,0.0738000000001193,-0.0235599999999749,0.0774694365541432,0.2667150000000333,0.2904050000000779,148.62035600000002,0.1706697256178762,99.4078384,0.2697024509754681,81.693083,1.2071200724120306,0.0,-1.054752388,0.479984632420253,0,0
11,366.6666666666666,564.43604,84.05136,0.9448402,568.5846,79.44765,0.95520204,563.73065,80.74372,0.56174463,581.8083,78.88617,0.94863534,569.10583,81.32373,0.14683451,591.15656,99.533035,0.99803716,574.42596,99.01042,0.9614158,582.808,130.57935,0.9966047,559.7727,124.490036,0.80176604,551.78455,136.4357,0.99208224,545.22437,134.88557,0.81789464,580.5819,151.04868,0.99695385,569.91473,146.67021,0.9860306,530.7718,158.14728,0.9933344,523.75854,154.10553,0.9673982,539.19525,208.75375,0.9714218,533.0785,200.88449,0.9247562,1.46795994,0.81775367,1.02016551,-0.66741866,115.74119877040066,155.45086180697214,88.66054615782878,87.88345696325995,8.649147829970591,148.859445,99.2717275,84.05136,67.39801999999997,129.86757999999998,0.5189749395578561,-178.2108292414486,0.8802913147058824,-0.3243999999999687,0.7678499999999957,0.833564024235675,0.6000599999999849,-0.0831500000000176,0.6057936332613483,-0.1680999999999812,0.6568599999999947,0.678028516804409,1.0851000000000113,-0.1250200000000063,1.0922783575627717,-0.7399500000000216,0.7296059999999898,1.0391587548281624,-0.0347100000000182,-0.1443180000000126,0.148433383118505,-0.0816499999999678,0.3146400000000113,0.3250616127751812,1.2662500000000136,0.0705200000000161,1.268212179763322,-1.436770000000024,0.5527100000000047,1.5394142967375857,-1.5618299999999865,0.0955900000000156,1.564752503433038,-0.2354100000000016,0.1458200000000005,0.2769139586586435,0.1110800000000153,0.4823599999999999,0.4949847836045097,-0.7317399999999452,0.3684399999999925,0.8192627546763702,-1.180439999999976,0.5532199999999818,1.3036452592633945,-0.0487500000000409,0.1048200000000179,0.1156018810400927,-0.0852000000000998,0.2597300000000189,0.2733472386910591,-0.0683599999999842,0.2310960000000079,0.2409947111784852,-0.3557700000000068,0.1939560000000142,0.4052051614133393,-0.1044900000000552,0.0689999999999884,0.125216452992448,0.1464699999999084,0.0025199999999756,0.1464916765552672,-0.2370300000000043,0.3795399999999915,0.4474749518129429,-0.0013300000000526,0.576989999999995,0.5769915328668128,0.2624399999999696,-0.0733299999999985,0.2724922797071209,0.016779999999926,-0.3519900000000007,0.352389739493076,-0.0863100000000258,0.0152599999999836,0.0876486377532701,-0.9339099999999688,-0.2395100000000241,0.9641332523048636,0.0336999999999534,-0.043450000000007,0.0549872030566883,0.196999999999889,-0.0402300000000082,0.2010657924659412,-0.1571099999999887,0.0369299999999839,0.1613919979428821,-0.5461599999999862,0.2765599999999892,0.6121896595010234,-0.0159499999999752,0.0896299999999996,0.0910381205869231,0.1465500000000474,-0.2507400000000075,0.2904263247366149,0.1499999999999772,0.1383199999999931,0.2040402470102192,0.3339999999999463,0.4579299999999762,0.5667943938501354,-0.0290350000000216,-0.295750000000055,148.701061,0.1688716137113696,99.3239395,0.2202171845545359,82.442982,1.2886810904060146,0.4981689499999999,-1.048267348,0.4861579126988125,0,0
12,400.0,563.64795,83.967354,0.93682706,567.60974,79.3689,0.94881874,563.09937,80.69057,0.52031434,580.7627,78.780174,0.94562423,568.9569,81.269455,0.13457036,590.79614,99.3371,0.99793977,574.30383,98.815346,0.9587291,582.8973,130.61383,0.9966228,559.7111,124.503784,0.7984936,551.5663,136.5796,0.99213797,545.021,134.89246,0.81636935,580.5312,151.21667,0.9969688,570.04596,146.79901,0.98598784,530.8445,158.06628,0.9933482,523.8967,153.86386,0.967272,539.23193,208.98395,0.971311,532.9522,200.80066,0.9242917,1.39727557,0.74528826,0.98356434,-0.65538203,114.95420023034278,154.8669639854,88.49503059486747,87.78377737548955,8.27435479174535,149.00784,99.076223,83.967354,66.89944000000003,130.203776,0.513805678617142,-178.18798367842265,0.8756251094117647,-0.7880900000000111,-0.0840060000000022,0.7925546392117189,-0.4636900000000423,-0.851855999999998,0.9698799208335204,-0.9748600000000353,-0.0787499999999994,0.9780355730238388,-0.8067600000000539,-0.7356099999999941,1.0917800921889345,-0.631279999999947,-0.0531500000000022,0.6335135049073013,0.1086700000000746,-0.782755999999992,0.7902633260097572,-1.0456000000000358,-0.1059960000000046,1.0509588536265708,-0.963950000000068,-0.420636000000016,1.051729169984433,-0.1489299999999502,-0.054275000000004,0.1585115785202634,1.2878400000000738,-0.6069850000000088,1.4237143870261342,-0.3604199999999764,-0.1959349999999915,0.410235420977979,-0.1250099999999747,-0.341754999999992,0.3639010581531582,-0.1221300000000837,-0.1950739999999911,0.2301512597749944,0.6096099999998614,-0.5635139999999836,0.830164068299642,0.0892999999999801,0.034480000000002,0.0957254428038679,0.1380500000000211,-0.0703400000000158,0.1549371424159102,-0.0615999999999985,0.0137479999999925,0.0631155092192055,0.0067599999999856,-0.2173480000000154,0.2174531000101091,-0.2182500000000118,0.1439000000000021,0.261419724772263,-0.1137599999999565,0.0749000000000137,0.136203331824123,-0.2033700000000635,0.0068899999999985,0.2034866801538268,0.0336599999999407,-0.372649999999993,0.3741670991682604,-0.0507000000000061,0.1679900000000032,0.1754740154552853,-0.3131399999999757,0.2413200000000017,0.395337832745597,0.1312300000000732,0.1288000000000124,0.1838770048157801,0.2175400000000991,0.1135400000000288,0.2453874145102997,0.0727000000000543,-0.0809999999999888,0.1088406633570657,0.0390000000001009,-0.0375499999999817,0.0541387338234512,0.1381599999999707,-0.2416699999999991,0.2783748812303142,0.2952699999999595,-0.2785999999999831,0.4059585359368203,0.0366800000000466,0.2301999999999964,0.2331039733681126,0.0526300000000219,0.1405699999999967,0.150099439705821,-0.1263000000000147,-0.083830000000006,0.1515887822366969,-0.276299999999992,-0.2221499999999991,0.3545311164058737,0.1483949999999936,0.1774300000000153,148.804597,0.1659111917788786,99.2199211,0.1782262236398666,83.0784568,1.0265170585875485,0.0120366300000001,-0.83160807,0.3116020199553551,0,0
13,433.33333333333337,562.94867,84.30716,0.93897444,566.8471,79.61131,0.95243365,562.39453,81.02085,0.52062035,580.1915,78.747055,0.94975656,568.6157,81.45819,0.13145413,590.43774,99.20111,0.9980446,574.7091,98.956566,0.9572384,582.6536,130.31752,0.99676204,560.1195,124.602356,0.78606784,551.4249,136.50163,0.9923356,544.6759,134.72028,0.8073086,580.5729,151.40596,0.99691236,570.6525,147.07062,0.9851237,530.57855,157.86765,0.9932334,524.2938,153.79797,0.9653527,538.9215,209.01828,0.97075284,532.99445,200.75145,0.9209865,1.39072076,0.81406899,0.98528386,-0.54828062,115.246140001627,152.86599912555522,88.10087645992412,87.7588113209335,7.90059188228169,149.23829,99.078838,84.30716,66.14393999999993,130.27122500000002,0.5077402127158911,-179.10925481929547,0.8743151594117646,-0.6992800000000443,0.3398059999999958,0.7774706657077546,0.0888099999999667,0.4238119999999981,0.4330171214213041,-0.7626400000000331,0.2424100000000066,0.800238950376732,0.212220000000002,0.3211600000000061,0.3849429490197278,-0.7048399999999901,0.3302800000000019,0.7783857038769323,-0.0735600000000431,0.3834300000000041,0.3904223847322403,-0.5711999999999762,-0.0331189999999992,0.5721593380877155,0.4744000000000596,0.0728770000000054,0.4799650165679342,-0.3412000000000716,0.1887350000000083,0.3899209409932377,-0.1922700000001214,0.2430100000000123,0.3098735435626163,-0.3584000000000742,-0.1359900000000067,0.3833325450572323,0.0020199999999022,0.0599449999999848,0.0599790248753494,0.4052700000000868,0.1412199999999899,0.4291699678449874,0.5274000000001706,0.336293999999981,0.6254953352633152,-0.2436999999999898,-0.2963100000000054,0.3836525851600614,-0.33299999999997,-0.3307900000000074,0.4693730116868512,0.4084000000000287,0.0985720000000043,0.4201273606705761,0.4700000000000273,0.0848240000000117,0.4775930390782802,-0.141399999999976,-0.0779699999999934,0.1614722295009026,0.0768500000000358,-0.2218699999999955,0.2348025114857239,-0.3451000000000022,-0.1721799999999973,0.385668202474615,-0.1417299999999386,-0.1790699999999958,0.2283713156243163,0.0416999999999916,0.1892899999999997,0.1938287752115232,0.0923999999999978,0.0212999999999965,0.0948232566409709,0.6065399999999954,0.2716099999999812,0.6645771314903818,0.4753099999999222,0.1428099999999688,0.496300606689048,-0.2659500000000889,-0.1986300000000085,0.3319386681301994,-0.3386500000001433,-0.1176300000000196,0.3584977536890597,0.3971000000000231,-0.065889999999996,0.4025293804183961,0.2589400000000523,0.1757800000000031,0.3129673018064798,-0.3104299999999966,0.0343300000000112,0.3123224836607167,-0.3471100000000433,-0.1958699999999851,0.3985604207645614,0.0422500000000809,-0.0492099999999879,0.06485897470671,0.1685500000000956,0.034620000000018,0.1720687272575511,0.2304500000000189,0.0820550000000253,148.923164,0.2250438117733925,99.1433287,0.1215785829446508,83.6083788,0.7585509006106526,0.1071014099999999,-0.840451306,0.3004088362616008,0,0
14,466.6666666666667,562.68945,84.71549,0.9388002,566.5085,79.988495,0.9521354,562.05414,81.45535,0.5203995,579.7565,78.89923,0.9494202,568.2663,81.75509,0.13226566,590.0614,99.1058,0.9980394,574.6613,98.94383,0.9576066,582.12994,130.19182,0.99675995,560.0214,124.55203,0.7885751,551.32416,136.29074,0.9923266,544.58844,134.58313,0.8093232,580.7736,151.26117,0.9969422,571.0774,146.9999,0.9853631,530.4663,157.9329,0.993324,524.60925,153.96606,0.9660049,538.7359,209.13634,0.9711383,533.02734,200.88841,0.92228407,1.35273009,0.87105873,0.89906231,-0.51266203,115.5119707917356,152.77910599458545,88.38013327777516,88.35493426838111,7.319312742965956,149.130535,99.024815,84.71549,65.45215000000007,130.23710999999997,0.5025614396498713,-179.3974159097832,0.8747475517647059,-0.2592200000000275,0.4083300000000065,0.4836614490529709,0.4400600000000167,0.0685240000000106,0.4453631576320792,-0.3385999999999285,0.3771849999999972,0.5068712698752509,0.4240400000001045,0.1347749999999905,0.4449429426624116,-0.3403900000000703,0.4344999999999999,0.5519561595815811,0.3644499999999198,0.1042199999999979,0.3790588488611512,-0.4350000000000591,0.1521749999999997,0.4608494663391196,0.136199999999917,0.1852939999999989,0.22996588102581,-0.349399999999946,0.2968999999999937,0.4585084186794813,-0.0081999999998743,0.1081649999999854,0.1084753761228546,-0.3763399999999137,-0.0953099999999977,0.3882213179359611,-0.0179399999998395,0.0406800000000089,0.0444601619429683,-0.047800000000052,-0.0127359999999896,0.0494676227041962,-0.4530700000001388,-0.1539559999999795,0.4785131919144126,-0.5236599999999498,-0.1256999999999948,0.538535315090799,-0.27995999999996,0.1706100000000106,0.3278496205579339,-0.0981000000000449,-0.0503259999999983,0.1102556859123766,-0.5065000000000737,-0.1488980000000026,0.5279326324485686,-0.1007399999999734,-0.2108900000000062,0.2337159380530075,0.0406600000000025,-0.1329200000000128,0.1389998633092983,-0.0874599999999645,-0.1371499999999912,0.1626633766401995,0.2576400000000376,0.0350300000000061,0.2600105199795189,0.2006999999999834,-0.1447900000000004,0.2474765324227602,0.1589999999999918,-0.3340800000000001,0.3699870895044819,0.4248999999999796,-0.0707199999999943,0.4307450851721722,-0.1816400000000158,-0.3423299999999756,0.3875344094399735,-0.1122499999999036,0.0652499999999918,0.1298369169380469,0.1537000000001853,0.2638800000000003,0.3053790176159081,0.3154499999999416,0.1680900000000065,0.3574394362685311,-0.0816500000000814,0.2339800000000025,0.2478171965381226,-0.1856000000000222,0.1180599999999856,0.2199670966303934,0.1248299999999744,0.0837299999999743,0.1503104846642087,0.0328899999999521,0.1369599999999877,0.1408538025755552,-0.0093600000001288,0.1861699999999757,0.1864051461199324,-0.1077549999999973,-0.3382050000000163,149.024918,0.1604453651013337,99.0932402,0.1039487938606262,84.0649748,0.5249347848878299,0.03561859,-0.70986619,0.2633684236456383,0,0
15,500.0,562.1952,84.96073,0.9387269,565.8292,80.10013,0.95138836,561.2943,81.73343,0.52584255,578.75635,78.63153,0.94836926,567.3934,81.9193,0.13777693,589.53204,98.7574,0.99799144,574.3051,98.7777,0.9587798,581.7998,130.35272,0.9966356,559.7405,124.522644,0.79478955,550.92834,136.47804,0.9920437,543.8525,134.396,0.8131955,580.95447,151.2248,0.9968989,571.39307,147.05553,0.9855904,530.607,157.89182,0.9932439,524.952,153.94922,0.9665981,538.807,209.13641,0.97107106,532.7424,200.6977,0.9235633,1.35273009,0.87105873,0.89906231,-0.51266203,114.9740766573721,151.35625220304306,88.4520095464705,88.98219019337357,6.506259088866059,149.140165,98.76755,84.96073,64.58004000000005,130.50488,0.4948476984550489,179.9236154056531,0.8760297205882353,-0.4942499999999654,0.2452399999999954,0.5517478772953853,-0.2350299999999379,-0.163090000000011,0.2860724541090498,-0.679300000000012,0.1116349999999926,0.6884118412876225,-0.3407000000000835,-0.2655500000000046,0.4319644574499843,-0.7598399999999401,0.2780800000000027,0.8091262645594386,-0.4194499999998697,-0.1564199999999971,0.4476667498261288,-1.0001499999999623,-0.2677000000000049,1.0353566112697246,-0.5651499999999032,-0.4198750000000046,0.7040522268446386,-0.8728999999999587,0.1642100000000113,0.8882113116257481,-0.5235000000000127,-0.1326899999999824,0.5400545214142816,-0.5293599999999969,-0.348399999999998,0.6337227860823653,-0.1530200000000832,-0.2530900000000002,0.2957527151186031,-0.3561999999999443,-0.1661300000000096,0.3930364065833642,-0.3083999999998923,-0.15339400000002,0.3444419823946258,-0.3301400000000285,0.160899999999998,0.3672617998104597,0.1935199999999213,0.2865999999999928,0.3458172210864656,-0.2808999999999741,-0.0293860000000023,0.2824329070699546,-0.1827999999999292,0.0209399999999959,0.183995444508754,-0.3958199999999578,0.1872999999999933,0.4378981187444908,-0.2950799999999844,0.3981899999999996,0.4956081945448344,-0.7359400000000278,-0.1871300000000246,0.7593584927424267,-0.6484800000000632,-0.0499800000000334,0.6504031909516476,0.1808700000000271,-0.0363700000000051,0.1844904707566496,-0.0198299999999562,0.1084199999999953,0.1102185342852881,0.3156699999999546,0.0556300000000078,0.3205343129837618,-0.109230000000025,0.1263500000000021,0.1670195060464675,0.1406999999999243,-0.0410799999999937,0.1465744056784068,0.2529499999998279,-0.1063299999999856,0.2743898165018335,0.3427500000000236,-0.0168400000000019,0.3431634422545855,0.027300000000082,-0.1849300000000084,0.1869341993857935,0.0711000000000012,7.000000002221896e-05,0.071100034458502,0.2567000000000234,-0.1179899999999634,0.2825181942813655,-0.2849400000000059,-0.1907099999999957,0.3428718531755002,-0.3178299999999581,-0.3276699999999835,0.4564904575124901,0.0096299999999871,0.1173849999999845,149.075255,0.145746643228936,99.0438307,0.1809035279104699,84.40041880000001,0.4275812415637942,0.0,-0.579281074,0.076480081990633,0,0
16,533.3333333333334,561.79126,85.252144,0.93722594,565.25525,80.310844,0.95066166,560.77795,82.03948,0.51842517,577.8702,78.47301,0.948468,566.97314,81.986404,0.13750026,588.72034,98.37964,0.99799156,574.3582,98.54979,0.95784456,581.1864,130.2754,0.9966544,560.0002,124.5166,0.7903949,550.6209,136.53876,0.9920076,543.5094,134.24994,0.8097316,580.687,151.07703,0.99687946,571.74817,147.04318,0.9853485,530.28143,157.47676,0.9932528,525.38806,153.81305,0.9663155,538.6615,208.72633,0.97132325,532.82007,200.46954,0.9237242,1.34111367,0.68264868,1.02507842,-0.53083979,114.87047255737332,149.4901273316986,87.94929631807949,89.25733600118566,6.004373550301965,149.06010500000002,98.464715,85.252144,63.33227999999997,130.25331999999997,0.486223917469252,179.32124176315227,0.8749264329411764,-0.4039400000000341,0.2914140000000031,0.4980859795216378,0.0903099999999312,0.0461740000000077,0.1014294551695329,-0.573949999999968,0.21071400000001,0.6114073865238852,0.105350000000044,0.0990790000000174,0.1446211282662831,-0.5163499999999885,0.306049999999999,0.6002365575337674,0.2434899999999515,0.0279699999999962,0.2450912095526402,-0.8861500000000433,-0.1585199999999957,0.9002168699263947,0.113999999999919,0.1091800000000091,0.1578488910318458,-0.4202600000000984,0.0671039999999862,0.4255836162448936,0.4526399999998602,-0.097106000000025,0.4629390292855835,-0.8117000000000871,-0.3777600000000092,0.8952985578007754,-0.2823400000000902,-0.0293600000000111,0.2838624406293505,0.0530999999999721,-0.2279099999999942,0.2340140553470975,0.4092999999999165,-0.0617799999999846,0.4139362975143998,-0.613399999999956,-0.0773200000000144,0.6182539465300227,-0.2832599999999274,-0.2382200000000125,0.3701148416369774,0.2596999999999525,-0.0060440000000028,0.259770321507241,0.5405999999999267,0.0233419999999995,0.5411036952044596,-0.3074400000000423,0.0607200000000034,0.3133787995382369,0.0883799999999155,-0.1265799999999899,0.1543810895154666,-0.3430999999999358,-0.1460599999999772,0.3728956068391652,0.392840000000092,0.0410700000000474,0.3949810254937269,-0.267470000000003,-0.1477699999999799,0.3055751524584348,-0.4483400000000301,-0.1113999999999748,0.4619726351203299,0.3550999999999931,-0.0123499999999978,0.3553146950239956,0.0394300000000384,-0.0679800000000057,0.0785875645379331,-0.3255699999999706,-0.4150599999999826,0.5275136287338617,-0.4662699999998949,-0.3739799999999889,0.5977196276682687,0.4360599999999976,-0.1361699999999928,0.4568266547608579,0.093309999999974,-0.1193299999999908,0.1514807083426565,-0.14549999999997,-0.410080000000022,0.4351274024926599,-0.2165999999999712,-0.4101500000000442,0.4638303380547933,0.0776700000000119,-0.2281600000000025,0.2410178717439912,0.3626100000000178,-0.0374500000000068,0.3645387696802817,-0.0800599999999747,-0.0896899999999618,149.115387,0.0874228450263495,98.8824282,0.2664997904064958,84.6405756,0.5114978494762566,-0.01817776,-0.5519653,0.0596749070982555,0,0
17,566.6666666666666,561.36755,86.64277,0.9463439,564.8248,81.46082,0.9591144,559.8546,83.34145,0.5605865,577.5274,78.62658,0.95392084,565.74286,82.54934,0.14947471,588.22186,98.2257,0.9981098,574.6914,98.293015,0.9590598,580.1623,131.11943,0.9966266,561.0099,124.70795,0.7828391,550.1647,136.6543,0.9918378,543.4906,134.26683,0.8030757,581.2781,151.20274,0.99668044,572.89526,147.12846,0.98425335,529.91046,156.98645,0.99300766,525.8525,153.17542,0.9646756,538.23517,208.54337,0.9710608,532.94714,199.88866,0.9225473,1.18971075,0.34832523,1.07248799,-0.37927656,114.22137384625157,145.99946415520606,87.25195015117853,88.68885326636195,4.906432496565064,149.16559999999998,98.2593575,86.64277,62.36936000000003,129.91679,0.480071586743549,179.7149517771352,0.8784243705882353,-0.4237099999999145,1.3906259999999977,1.453743731190584,-0.0197699999998803,1.0992119999999943,1.0993897733943057,-0.4304500000000644,1.1499759999999952,1.2278973911023854,0.1434999999999036,0.9392619999999852,0.9501606993787652,-0.9233500000000276,1.3019699999999972,1.5961519675143854,-0.4070000000000391,0.995919999999998,1.0758743636689314,-0.3428000000000111,0.1535700000000019,0.3756269224909314,0.5433500000000322,0.3120899999999977,0.6266014607388284,-1.2302799999999934,0.5629360000000077,1.3529544776140816,-0.8100199999998949,0.4958320000000213,0.9497272095838104,-0.4984799999999723,-0.1539399999999915,0.5217085719057812,0.3132200000001148,0.2238200000000176,0.3849703375587265,0.3332000000000334,-0.2567750000000046,0.4206609568584,0.2801000000000613,-0.0288650000000103,0.2815833770396167,-1.0241000000000895,0.8440300000000036,1.3270898428140383,-0.4107000000001335,0.921350000000018,1.00874194544499,1.0097000000000662,0.1913499999999999,1.027671597593382,0.7500000000001137,0.1973940000000027,0.7755413536596044,-0.4561999999999671,0.1155400000000099,0.4706037947148028,-0.1487599999999247,0.0548200000000065,0.158539490348551,-0.0188000000000556,0.0168899999999894,0.0252727541040096,0.3242999999998801,0.1629499999999666,0.3629368987853279,0.5910999999999831,0.125709999999998,0.6043196290871078,0.8585699999999861,0.2734799999999779,0.9010736680760149,1.1470900000000483,0.0852799999999831,1.150255687445234,0.7919900000000553,0.097629999999981,0.7979848225374239,-0.3709700000000566,-0.4903100000000222,0.6148354552236426,-0.045400000000086,-0.0752500000000395,0.087884711412246,0.4644399999999677,-0.6376300000000015,0.7888450611495086,0.02837999999997,-0.5014600000000087,0.5022624373771216,-0.4263300000000072,-0.18295999999998,0.4639306311292657,-0.2808300000000372,0.2271200000000419,0.3611772186891637,0.1270700000000033,-0.5808800000000076,0.5946161444999705,0.0493999999999914,-0.352720000000005,0.3561625449145413,0.1054949999999621,0.1855549999999368,149.14693900000003,0.0643202144935769,98.7190551,0.3540110792123057,85.1756588,0.8902956163753826,0.15156323,-0.4967442059999999,0.0673125413924704,0,0
18,600.0,560.9792,87.22423,0.9487787,564.42474,81.95177,0.9614283,559.2473,83.87886,0.57357347,577.1559,78.75128,0.9552304,564.98376,82.80508,0.1528644,587.8499,98.25484,0.99810565,574.696,98.20351,0.9587341,579.796,131.67781,0.9965407,561.43365,124.92642,0.77777195,550.5642,136.53775,0.9916401,543.7978,134.19255,0.79905427,581.7652,151.12659,0.9965083,573.63513,147.02441,0.9834359,529.77856,156.70343,0.99278694,526.1422,152.81396,0.9635177,538.02277,208.68933,0.97055894,533.0585,199.85042,0.92123103,1.07805335,0.22623945,1.00567243,-0.31565439,112.98760302441512,144.112892499148,87.11172188488466,88.58535747471043,4.019374223989324,149.07549999999998,98.229175,87.22423,61.707700000000045,129.93805000000003,0.4749009202854676,-179.77641783544124,0.8789271088235294,-0.3883500000000595,0.581460000000007,0.6992220349074064,0.035359999999855,-0.8091659999999905,0.8099382353957457,-0.4000599999999394,0.490949999999998,0.633308697319048,0.0303900000001249,-0.6590259999999972,0.6597263226338661,-0.6073000000000093,0.5374100000000084,0.8109394540284868,0.3160500000000183,-0.7645599999999888,0.8273086462137299,-0.3714999999999691,0.12469999999999,0.391870310179241,-0.0286999999999579,-0.0288700000000119,0.0407083148754437,-0.7590999999999894,0.2557400000000029,0.8010216960856837,0.4711800000000039,-0.3071960000000047,0.5624766437959949,-0.3719599999999445,0.0291399999999981,0.3730996933796095,0.1265200000000277,0.1830799999999897,0.2225434717083456,0.0045999999999821,-0.0895050000000026,0.0896231277349786,-0.3286000000000513,0.167270000000002,0.3687237623208387,-0.3662999999999101,0.5583799999999997,0.667805296774392,0.6578000000001794,-0.2856500000000039,0.7171448685588138,0.4237499999999272,0.2184699999999964,0.4767527696825019,-0.585950000000139,0.0271199999999964,0.5865772727443186,0.3994999999999891,-0.1165500000000179,0.4161540009419535,0.8556999999999562,-0.2320900000000278,0.8866161842082164,0.3072000000000798,-0.0742799999999874,0.3160527778711132,0.3260000000001355,-0.0911699999999768,0.3385084473097889,0.4871000000000549,-0.0761500000000126,0.4930164627069318,-0.1039999999999281,-0.2018600000000106,0.2270758895171157,0.7398699999999963,-0.1040500000000008,0.7471506002139024,-0.4072200000000521,-0.189329999999984,0.4490812591280518,-0.1318999999999732,-0.2830199999999934,0.3122465858900449,0.2390700000000833,0.2072900000000288,0.3164231486475852,0.2897000000000389,-0.3614599999999939,0.4632271814132004,-0.1747399999999288,0.2761700000000076,0.326808715459027,-0.2124000000000023,0.1459600000000023,0.2577170572546599,0.2139300000000048,0.3289199999999823,0.3923702477252709,0.1113599999999905,-0.0382399999999734,0.1177427161228917,-0.0157100000000127,0.5426400000000342,0.5428673628981922,-0.0901000000000067,-0.1955949999999688,149.114381,0.044740274557714,98.5491225,0.3418511047773833,85.75907280000001,1.108038746731906,0.0636221699999999,-0.45021896,0.0967450771731875,0,0
19,633.3333333333333,560.4716,87.05056,0.946114,563.9234,81.897385,0.95866007,558.8179,83.72275,0.5621598,576.47217,79.10588,0.95324636,564.4242,82.90392,0.15108344,587.2988,98.68141,0.99809057,573.7627,98.42836,0.95947134,579.41516,131.97717,0.99659157,560.47595,124.94983,0.78661877,549.398,136.7957,0.9917623,542.9246,134.50102,0.80597377,581.6467,151.03552,0.9967277,573.14453,146.86699,0.9846864,530.1845,156.69522,0.993214,525.55676,152.71933,0.96612495,538.5914,208.5777,0.9721743,532.5161,199.82904,0.9260572,0.99353672,0.19749893,0.9346809,-0.27291208,112.44060112352938,145.1643856507168,87.07198334587333,88.6077137773152,3.5597749442590603,148.951255,98.554885,87.05056,61.74203999999997,129.47181999999998,0.4768762771939385,-178.92901143271024,0.8793386200000001,-0.5076000000000249,-0.1736700000000013,0.5364876782369058,-0.1192499999999654,-0.7551300000000083,0.7644879851246874,-0.5013400000000274,-0.0543849999999963,0.5042811951927487,-0.1012800000000879,-0.5453349999999944,0.5546601667913531,-0.4293999999999869,-0.1561099999999982,0.4568968068393433,0.1779000000000223,-0.6935200000000066,0.715973742814649,-0.6837299999999686,0.3546000000000049,0.770212875054657,-0.3122299999999995,0.2299000000000148,0.3877390654809063,-0.5595599999999195,0.0988399999999956,0.5682224381348461,0.19954000000007,-0.1569000000000073,0.2538381799494124,-0.5511000000000195,0.4265699999999981,0.69690255767935,-0.1791400000000749,0.3974299999999999,0.4359377759497642,-0.9333000000000312,0.2248500000000035,0.9600033398379714,-0.9379000000000132,0.3143550000000061,0.9891791930813288,-0.3808400000000347,0.2993600000000072,0.4844125464932042,-0.0145400000001245,-0.2590199999999925,0.2594277780038208,-0.9576999999999316,0.0234100000000125,0.957986074063642,-1.3814499999998588,-0.1950599999999838,1.3951532195782668,-1.1662000000000037,0.2579500000000223,1.1943871409639422,-1.5656999999999923,0.3745000000000402,1.6098654415819995,-0.8731999999999971,0.3084699999999998,0.9260842191183232,-1.180400000000077,0.3827499999999872,1.240903591138398,-0.11850000000004,-0.0910700000000019,0.1494523164758908,-0.605600000000095,-0.0149199999999893,0.6057837620802613,-0.4905999999999721,-0.1574200000000019,0.5152372428308859,-1.2304699999999684,-0.053370000000001,1.2316268825419177,0.4059399999999868,-0.0082099999999911,0.4060230137565963,0.5378399999999601,0.2748100000000022,0.603980464667491,-0.5854399999999487,-0.0946299999999951,0.5930386416583147,-0.8751399999999876,0.2668299999999988,0.9149143503629056,0.5686299999999846,-0.1116300000000194,0.5794836786312336,0.781029999999987,-0.2575900000000217,0.8224113745565481,-0.5423999999999296,-0.0213800000000219,0.5428212085023251,-0.6537599999999202,0.0168599999999514,0.653977367498214,-0.1242449999999735,-0.0341449999999667,149.07852499999998,0.0835578319937613,98.4551365,0.2219412772672515,86.22608679999999,1.0487329502028622,0.04274231,-0.40226897,0.1156298240380623,0,0
20,666.6666666666666,559.05176,87.39846,0.9337303,562.1802,82.406815,0.94916165,557.9193,84.153656,0.4969988,574.5411,79.46641,0.94934916,564.5913,83.02121,0.13259214,586.3424,98.363464,0.9980159,573.5549,97.90051,0.9567597,578.5625,131.46806,0.9967424,559.8689,124.34558,0.7879504,547.99146,136.88965,0.99204636,542.7226,134.21361,0.8077594,581.3525,151.01735,0.99701834,573.3716,146.7117,0.9858786,529.7634,157.09468,0.9937868,525.43494,152.74113,0.9686706,538.2743,209.0249,0.97415304,532.0321,199.67119,0.9309177,0.87411797,0.1859536,0.82807078,-0.20928991,113.28157896796068,147.28398648092875,87.41110494587345,89.16708469537407,2.918721914546391,148.864525,98.131987,87.39846,60.907460000000015,129.55849,0.470115540323791,-177.92658999203576,0.8736194876470589,-1.419840000000022,0.3478999999999956,1.4618413168330069,-0.912239999999997,0.521569999999997,1.0508173402166483,-1.7432000000000016,0.5094299999999947,1.8161126520400657,-1.2418599999999742,0.5638149999999911,1.36385615584083,-0.8985999999999876,0.4309059999999931,0.9965751054667038,-0.4692000000000007,0.5870159999999913,0.7514894704891018,-1.931069999999977,0.3605299999999971,1.9644371269653575,-1.2473400000000083,0.0059299999999922,1.247354095876556,0.1671000000000049,0.117289999999997,0.2041552206043258,0.7266599999999244,0.0184500000000014,0.7268941863159246,-0.9564000000000306,-0.3179460000000063,1.0078643851808944,-0.4053000000000111,-0.7445160000000044,0.8476863596024272,-0.2078000000000202,-0.5278500000000008,0.5672798802178773,0.7255000000000109,-0.7527000000000044,1.0454221826611594,-0.8526600000000144,-0.5091099999999926,0.9930871400335508,-0.4718199999999797,-0.8084699999999998,0.936075773268372,-0.6070499999999583,-0.6042500000000075,0.8565207323818604,0.3506499999999732,-0.6276600000000201,0.7189662704884051,-1.4065400000000636,0.0939499999999782,1.409674208496479,-0.2403400000000601,-0.1640000000000441,0.2909627391953193,-0.2019999999999981,-0.2874100000000226,0.3512954712204703,0.6711999999999989,-0.5958800000000224,0.8975424304176517,-0.2942000000000462,-0.0181699999999978,0.2947605619821402,-0.1757000000000061,0.0729000000000041,0.1902232898464401,0.2270699999999124,-0.1552899999999795,0.275092291785782,0.7176699999998846,0.0021300000000223,0.7176731608467983,-0.4210999999999103,0.3994600000000048,0.5804252764998509,-0.8270399999998972,0.407669999999996,0.9220574767875518,-0.1218200000000706,0.0217999999999847,0.1237552116074977,0.463619999999878,0.1164299999999798,0.4780161600823576,-0.3170999999999822,0.4472000000000093,0.5482155141912687,-0.8857299999999668,0.5588300000000288,1.047286303643838,-0.4840000000000373,-0.1578499999999962,0.5090899945000245,0.0583999999998923,-0.1364699999999743,0.1484406308932309,-0.0867299999999886,0.0375149999999848,149.023397,0.1169708015168513,98.3280239,0.1754045760479816,86.7136328,0.8637402360601116,0.06362217,-0.341594546,0.1226054506251191,0,0
21,700.0,557.73895,87.29715,0.9266897,560.73584,82.368416,0.94410723,556.939,84.0255,0.46477672,573.2019,79.39161,0.9471272,564.33887,82.72362,0.12229073,585.65063,98.20535,0.99788386,573.27594,97.59028,0.9540276,577.4213,131.41718,0.99663854,559.1539,124.16603,0.78332096,546.7737,137.37337,0.9918391,541.97034,134.08745,0.8048321,581.55084,151.32356,0.9969271,573.87415,146.92487,0.9855247,530.00464,156.2049,0.99369264,525.76196,151.56064,0.9684174,537.9206,208.2391,0.9742889,531.70154,198.54492,0.93169445,1.17284145,0.39131319,1.10221109,-0.08695849,114.9146520759377,147.98686723923282,86.75960360555938,88.29874619943092,1.957496955927137,149.124215,97.897815,87.29715,59.888669999999934,128.84749,0.4648027643782364,-177.15451963255367,0.8696517017647059,-1.3128099999998994,-0.101309999999998,1.316713261192328,0.1070300000001225,-0.4492099999999936,0.4617846305368126,-1.4443599999999606,-0.0383989999999982,1.4448703377123104,0.2988400000000411,-0.547828999999993,0.624036824907807,-0.9803000000000566,-0.1281560000000041,0.988641517606919,-0.0817000000000689,-0.5590619999999973,0.5650001857026317,-1.3392000000000053,-0.0747999999999962,1.341287321941132,0.5918699999999717,-0.4353299999999933,0.7347260072979319,-0.2524300000000039,-0.2975899999999996,0.3902316145573059,-0.4195300000000088,-0.4148799999999966,0.5900261310315033,-0.6917700000000195,-0.1581139999999976,0.7096095897717465,0.264630000000011,0.1598320000000086,0.3091525596271339,-0.2789599999999836,-0.31022999999999,0.4172065849192515,-0.0711599999999634,0.2176200000000108,0.2289589701234688,-1.1412000000000262,-0.0508800000000064,1.1423336703433284,-0.2885400000000118,0.4582299999999861,0.541507215556722,-0.7150000000000318,-0.1795499999999918,0.7371995676206292,-0.1079500000000734,0.4247000000000156,0.4382046240057596,-1.2177599999999984,0.4837200000000052,1.3103146400769554,0.1887800000000652,0.389770000000027,0.4330802942873824,-0.7522600000000921,-0.1261599999999987,0.7627656607373842,-0.5502600000000939,0.1612500000000238,0.5734000611267067,0.1983400000000301,0.306209999999993,0.3648332765798751,0.4925400000000763,0.3243799999999908,0.5897609990496737,0.502550000000042,0.2131699999999909,0.5458918861826382,0.2754800000001296,0.3684599999999705,0.4600565204407494,0.2412399999999479,-0.8897800000000018,0.9219030241842024,0.6623399999998583,-1.2892400000000066,1.4494254217447096,0.3270200000000614,-1.1804899999999918,1.2249484562625566,0.448840000000132,-1.2022899999999763,1.2833388444600522,-0.3537000000000034,-0.7857999999999947,0.8617339090461708,-0.0366000000000212,-1.233000000000004,1.233543092072592,-0.3305599999999913,-1.1262700000000052,1.1737776733691971,0.1534400000000459,-0.9684200000000088,0.9805004487505508,0.2596899999999777,0.3464199999999664,149.036219,0.1252232477118175,98.2146439,0.2372694565332235,87.12263399999999,0.2967834579789814,0.12233142,-0.252818286,0.1115213242306507,0,0
22,733.3333333333333,556.8212,87.74133,0.90492433,559.4988,82.87521,0.9222846,556.20544,84.59027,0.40568486,571.4779,80.035995,0.9329612,563.8578,83.490425,0.112770624,585.0713,98.53757,0.99740773,572.0397,97.944885,0.9522132,577.67926,131.91626,0.99620557,557.7683,124.684204,0.80046123,546.99414,137.10663,0.99115026,541.6936,133.97441,0.8179899,581.3455,151.3515,0.996911,573.27826,146.93956,0.9866151,529.85657,156.01584,0.9937418,525.4216,151.08344,0.97117,537.5879,208.30417,0.9748479,531.24615,198.24106,0.93659383,1.01638219,0.44805728,0.89807973,-0.16040647,112.08784878922734,148.11520240903917,86.76545999475996,87.90778589058388,1.3995349577290903,149.14553,98.2412275,87.74133,59.64969999999994,128.268175,0.465038966485342,-177.3959480045252,0.8643490078823529,-0.9177500000000692,0.4441800000000029,1.0195886106171104,0.3950599999998303,0.5454900000000009,0.6735218954866032,-1.2370400000000927,0.5067939999999993,1.3368276328817523,0.2073199999998678,0.5451929999999976,0.5832812268956911,-0.7335600000000113,0.56477000000001,0.9257836823470308,0.2467400000000452,0.6929260000000141,0.7355454228503104,-1.7240000000000464,0.6443849999999998,1.8404912464407863,-0.3848000000000411,0.719184999999996,0.8156580804632698,-0.4810700000000452,0.7668050000000051,0.9052172407356432,-0.2286400000000412,1.0643950000000046,1.0886748668105777,-0.5793300000000272,0.3322200000000066,0.6678273559087229,0.1124399999999923,0.4903340000000042,0.5030608165580007,-1.2362399999999525,0.3546049999999923,1.286092548623495,-0.9572799999999688,0.6648349999999823,1.1655001396932203,0.2579600000000255,0.4990799999999922,0.5618044214849197,1.3991600000000517,0.5499599999999987,1.503364462530674,-1.3856000000000677,0.5181739999999877,1.4793213492261157,-0.6706000000000358,0.6977239999999796,0.967741256832641,0.2204400000000532,-0.2667399999999986,0.3460404906944023,1.4382000000000517,-0.7504600000000039,1.6222236133160417,-0.2767400000000179,-0.1130399999999838,0.2989365638392304,0.4755200000000741,0.0131200000000148,0.475700961529479,-0.2053399999999783,0.0279400000000009,0.207232138434151,-0.4036800000000085,-0.278269999999992,0.4902975987091946,-0.5958899999999403,0.0146900000000016,0.5960710429134508,-1.0984399999999823,-0.1984799999999893,1.1162279086279634,-0.1480699999999615,-0.189060000000012,0.2401424754182257,-0.3893099999999094,0.7007199999999898,0.8016051362734119,-0.3403600000000324,-0.4772000000000105,0.5861439836763933,-0.6673800000000938,0.7032899999999813,0.9695426181968996,-0.3327000000000453,0.0650699999999915,0.3390035322825251,0.0209999999999581,0.8508699999999862,0.8511291070689422,-0.4553900000000794,-0.303859999999986,0.547458630126573,-0.1248300000000881,0.8224100000000192,0.831829752413349,0.0213150000000155,-0.2383749999999622,149.03220499999998,0.1202625644683166,98.2110179,0.2365527543690234,87.34234599999999,0.2566467177463055,-0.07344798,-0.2090442679999999,0.0904370616045612,0,0
23,766.6666666666667,554.2427,88.43482,0.8976833,556.85645,83.61948,0.91802937,553.8603,85.32629,0.38138974,569.1799,80.77507,0.932688,562.1213,84.187454,0.10430412,583.7541,98.9796,0.99732226,570.6987,98.43095,0.9490213,576.8676,132.1467,0.9961361,556.91187,125.12297,0.79222023,545.9032,137.107,0.990958,541.3147,134.12532,0.8112948,581.1795,151.57736,0.99687153,573.06995,147.12195,0.98631614,529.78766,155.93933,0.99377245,525.0696,150.6901,0.97112525,537.77325,208.27736,0.97536826,531.3037,197.741,0.93777907,0.81810409,0.56400193,0.50062541,-0.31712826,110.83078114736364,147.30964893484958,86.17632515772905,86.70376195261646,0.1155905155729543,149.34965499999998,98.705275,88.43482,58.68449999999996,127.50229,0.4602623179531728,-177.59357482385622,0.8607223482352941,-2.5784999999999627,0.693489999999997,2.6701293283471874,-1.6607499999998936,0.2493099999999941,1.6793588177038412,-2.642349999999965,0.7442700000000002,2.745168729859754,-1.4053099999998722,0.2374760000000009,1.42523368142759,-2.345139999999901,0.7360199999999963,2.4579273911162494,-1.61157999999989,0.1712499999999863,1.6206531581123829,-2.298000000000002,0.7390749999999997,2.4139254039064686,-0.5739999999999554,0.0946899999999999,0.5817578500544267,-1.7364999999999782,0.6970290000000006,1.871171204577744,-1.255429999999933,-0.0697760000000045,1.2573675576679368,-1.317199999999957,0.4420300000000026,1.3893906437355512,-0.7378699999999299,0.1098099999999959,0.7459962285426754,-1.3410000000000082,0.4860649999999964,1.4263730873179774,-0.1047600000000557,0.1314600000000041,0.1680963687888966,-0.8116599999999607,0.2304400000000157,0.8437384364836911,-1.0696199999999862,-0.2686399999999764,1.1028392421381994,-0.8564299999999321,0.4387660000000011,0.9622826755459566,0.5291700000001356,-0.0794079999999866,0.5350948694989902,-1.090940000000046,0.0003700000000037,1.0909400627440995,-1.3113800000000992,0.2671100000000024,1.3383068618595144,-0.3788999999999305,0.1509099999999819,0.4078468316659354,-0.1021599999999125,0.2639499999999657,0.2830305073661919,-0.1660000000000536,0.2258600000000115,0.2803011587561189,0.0393399999999246,0.1979200000000105,0.2017918779336726,-0.2083100000000968,0.182389999999998,0.2768739211266378,0.3875799999998435,0.1676999999999964,0.4223050395151323,-0.0689100000000735,-0.0765099999999847,0.1029678017635017,0.0791599999998879,0.1125500000000272,0.1376001747818235,-0.3519999999999754,-0.3933399999999949,0.5278450109643726,-0.011639999999943,0.0838600000000155,0.0846639781725456,0.1853499999999712,-0.0268100000000117,0.1872789326111988,0.5180500000000166,-0.0918800000000032,0.5261347136428253,0.0575500000001056,-0.5000599999999906,0.5033607117167597,0.5129400000001851,-0.1962000000000046,0.5491829236239887,0.2041249999999763,0.1828099999999608,149.08703599999998,0.1882287108280663,98.3062379,0.3249826845457638,87.584464,0.5361698827143737,-0.15672179,-0.209339042,0.0908727753536704,0,0
24,800.0,552.66266,88.4671,0.89264715,555.35626,83.75532,0.9109318,552.2391,85.398224,0.37908238,567.668,81.4807,0.925819,560.0256,84.77937,0.10392629,582.4945,99.79812,0.9970187,568.37946,99.49418,0.9483459,576.1744,132.57164,0.9957541,555.2436,126.16292,0.7994145,545.8499,136.81442,0.9903814,540.98505,133.89812,0.8173524,580.90717,151.17592,0.9966537,572.00024,146.89651,0.9860876,530.19806,154.98877,0.99338585,524.49866,149.92876,0.9708661,537.5183,207.38924,0.9742628,530.77423,197.27792,0.93705446,0.70647312,0.51929446,0.30337212,-0.37067897,108.87972673485694,144.70248354520416,86.34737638603146,86.10263039065661,1.179358792603972,149.036215,99.64615,88.4671,57.99584000000005,125.90854,0.4606187915401231,-178.76643718796163,0.8599402429411764,-1.5800400000000536,0.03228,1.5803697035820985,0.9984599999999092,-0.661209999999997,1.1975479262642537,-1.500189999999975,0.1358400000000017,1.506327501475003,1.14215999999999,-0.6084299999999985,1.2941083920985812,-1.6212000000000444,0.0719339999999988,1.6227951011622337,0.7239399999998568,-0.6640859999999975,0.9823946961358196,-1.5118999999999687,0.7056299999999993,1.6684589617068513,0.7861000000000331,-0.0334450000000003,0.7868111450818754,-2.0956999999999653,0.5919159999999977,2.1776875444048103,-0.3591999999999871,-0.1051130000000029,0.3742637876805493,-1.2595999999999776,0.8185199999999924,1.5021874551466374,0.0575999999999794,0.3764899999999898,0.3808706868478985,-2.319240000000036,1.0632300000000043,2.5513392974083584,-0.978240000000028,0.5771650000000079,1.1358137764726504,-0.6932000000000471,0.4249399999999923,0.813080711614818,0.1184599999999136,0.1944999999999765,0.2277345419561346,-1.6682700000000068,1.0399500000000046,1.9658638801809327,-0.8118400000000747,0.6011840000000035,1.01020116187625,-0.0532999999999219,-0.2925799999999867,0.2973952696328305,1.037640000000124,-0.2929499999999905,1.0782005713689136,-0.3296500000000151,-0.227199999999982,0.4003610401874811,0.0492499999999154,-0.378109999999964,0.3813039923734925,-0.2723300000000108,-0.401440000000008,0.4850955601734696,-0.1063299999999571,-0.6273000000000195,0.6362478753599224,-1.0697099999999864,-0.2254399999999918,1.0932075181318353,-0.8613999999998896,-0.4078299999999899,0.953066245808654,0.4104000000000951,-0.9505600000000244,1.03537069380977,0.4793100000001686,-0.8740500000000395,0.9968457646999512,-0.5709400000000642,-0.7613399999999899,0.9516360014207418,-0.2189400000000887,-0.367999999999995,0.4282040677060824,-0.254950000000008,-0.8881199999999865,0.9239895220726152,-0.4402999999999792,-0.8613099999999747,0.9673256980458744,-0.5294700000000603,-0.4630800000000192,0.7034071134841342,-0.587020000000166,0.0369799999999713,0.5881836454715421,-0.3134399999999857,-0.5175649999999621,149.10402800000003,0.1763681122538785,98.5244909,0.6924272843341246,87.867772,0.55735722061344,-0.05355071,-0.22889242,0.1152267476026681,0,0
25,833.3333333333334,549.6698,88.3121,0.8975421,552.4854,83.710846,0.9160458,549.3155,85.262375,0.39725983,565.2328,81.784096,0.92833,557.0585,84.94981,0.10620892,580.93994,100.077515,0.99699533,565.46063,99.96719,0.948074,575.2398,132.51666,0.99548596,553.2522,126.66135,0.79456264,543.8789,136.99785,0.9897447,540.47327,133.70328,0.8111702,579.80743,150.35474,0.9964965,569.9279,146.00414,0.98558354,530.4588,155.00949,0.99313086,523.5746,149.2173,0.9702288,536.9916,207.37311,0.9738253,530.0918,196.21153,0.93679243,0.34841929,0.24589109,0.0729567,-0.23581962,108.09815645116844,143.4340393753657,88.27702814748044,86.06986903405114,1.983038168303016,148.17944,100.0223525,88.3121,57.36533999999995,125.589014,0.4567703632359881,-179.5916452448799,0.8610280535294118,-2.9928599999999506,-0.1550000000000011,2.9968710315259988,-1.412819999999897,-0.1872800000000012,1.425178638206351,-2.8708599999999933,-0.0444739999999939,2.8712044643800554,-1.3706700000000185,-0.1803139999999956,1.382479434746155,-2.923599999999965,-0.1358489999999932,2.9267545012865006,-1.3023999999999205,-0.207782999999992,1.318870552817368,-2.435200000000009,0.3033960000000064,2.454026929928856,-0.9233000000000402,-0.4022339999999929,1.0071122483398107,-2.967100000000073,0.1704399999999992,2.971991285922695,-0.8714000000001079,-0.4214759999999984,0.967977261394185,-1.5545600000000377,0.279395000000008,1.5794677456741946,-0.29496000000006,-0.5391249999999843,0.6145381739363459,-2.918829999999957,0.4730100000000021,2.956908356544002,-0.599589999999921,-0.5902200000000022,0.8413488078674076,-0.9346000000000458,-0.0549800000000004,0.9362157659429186,-0.2413999999999987,-0.4799199999999928,0.5372124034308893,-1.9913999999999987,0.498429999999999,2.0528288834922392,-0.3231299999999919,-0.5415200000000056,0.6306004339516432,-1.971000000000004,0.1834299999999871,1.9795170029327889,-1.9177000000000817,0.4760099999999738,1.975894432934181,-0.5117800000000443,-0.1948399999999992,0.5476142748322446,-0.1821300000000292,0.0323599999999828,0.1849824491675075,-1.099739999999997,-0.8211799999999982,1.372503063748854,-0.8274099999999862,-0.4197399999999902,0.9277871392188884,-2.07233999999994,-0.8923699999999997,2.2563061167536094,-1.0026299999999535,-0.6669300000000078,1.2041854266681349,0.2607399999999416,0.0207200000000113,0.2615619735358525,-0.1496600000001535,0.9712800000000356,0.982742567512019,-0.9240599999999404,-0.7114600000000166,1.1662170532108993,-0.3531199999998762,0.0498799999999732,0.3566255021726712,-0.5267000000000053,-0.0161300000000039,0.526946929870557,-0.2717499999999972,0.8719899999999825,0.913353503633707,-0.6824299999999539,-1.0663899999999842,1.266056213996797,-0.1529599999998936,-0.6033099999999649,0.6223983593326103,-0.856774999999999,-0.5433350000000132,148.967011,0.4549878666981064,98.902564,0.9072838438000904,88.05050000000001,0.5130336962129606,0.13485935,-0.2341983619999999,0.1147080817241739,0,0
26,866.6666666666667,548.7163,89.61499,0.92400134,551.7971,84.835144,0.94051737,547.7415,86.45235,0.4854845,564.8724,82.22221,0.9396876,554.55536,85.67007,0.12390072,579.54034,100.51887,0.99726737,564.22266,100.528435,0.94962573,572.384,133.84756,0.9953442,552.98975,128.06807,0.7773821,542.2394,136.90689,0.989235,540.4719,133.5654,0.7959938,579.021,150.26866,0.99605006,569.0891,146.06882,0.98329794,530.23224,154.06903,0.9926001,523.2982,148.37186,0.9670593,536.4181,206.9199,0.973112,529.38354,195.7548,0.9338886,0.2879872,0.11471642,-0.23188929,-0.1265074,107.9135718713641,135.89876809448677,87.77829020198975,85.5608740844749,2.6120260942699685,148.16874,100.5236525,89.61499,56.24214000000006,124.69769,0.4510279183918494,179.96422212372818,0.8684969252941177,-0.9534999999999628,1.302890000000005,1.6145230261906895,2.039359999999988,1.457890000000006,2.506877033621707,-0.6883000000000266,1.124297999999996,1.3182575176360751,2.1825599999999667,1.16877199999999,2.4758021208456524,-1.5740000000000691,1.1899749999999898,1.9731995592502023,1.3495999999998958,1.325823999999983,1.8918851548060929,-0.3604000000000269,0.4381139999999988,0.5673024211088988,2.074799999999982,0.1347179999999923,2.0791690598707757,-2.5031400000000303,0.7202599999999961,2.6047042686647077,0.4639600000000428,0.5498199999999969,0.7194170654078454,-1.399599999999964,0.4413550000000015,1.467540253630169,0.1549600000000737,0.1619599999999934,0.2241509384321661,-1.2379700000000184,0.5612449999999995,1.359251879132431,1.6808599999999387,0.0882349999999974,1.6831743091031284,-2.855799999999931,1.3308999999999855,3.150696502362544,-1.9211999999998848,1.385879999999986,2.3688969615412825,-0.262450000000058,1.406720000000007,1.4309930680824594,1.7289499999999407,0.908290000000008,1.9530127563843025,-1.6394999999999982,-0.0909599999999954,1.6420213066827096,0.3315000000000054,-0.2743899999999826,0.4303279239138382,-0.0013699999999516,-0.1378799999999955,0.1378868061128353,0.5104100000000926,0.0569600000000036,0.5135784357818142,-0.7864299999999957,-0.0860799999999812,0.7911269880998816,0.3133100000000013,0.735100000000017,0.7990839543502458,-0.838799999999992,0.0646799999999814,0.8412900465356666,1.233539999999948,0.9570499999999812,1.5612705191925695,-0.2265599999999494,-0.9404600000000016,0.9673646908999626,-0.487299999999891,-0.961180000000013,1.0776494246274708,-0.2764000000000806,-0.8454399999999964,0.8894749876191227,0.6476599999998598,-0.1339799999999797,0.6613729023779346,-0.5734999999999673,-0.4532099999999843,0.7309593381987457,-0.0467999999999619,-0.4370799999999804,0.4395783961934199,-0.7082599999999957,-0.4567300000000216,0.8427541281417811,-0.0258300000000417,0.6096599999999626,0.6102069358012546,-0.0106999999999857,0.8460750000000132,148.775916,0.560801398016701,99.4277315,0.9396886119125702,88.51406800000001,0.6816213351780612,0.10931222,-0.242108144,0.1027578661038055,0,0
27,900.0,547.0335,91.5412,0.9180615,549.84094,86.721664,0.93762213,546.0206,88.350296,0.47069988,562.6182,83.08802,0.9375621,553.2313,86.61813,0.12119808,577.7518,100.47243,0.9969566,563.3723,100.462616,0.9435511,569.6492,134.31046,0.9947702,552.6765,128.68768,0.75530213,539.8915,137.61838,0.9877073,539.87775,134.12238,0.775066,578.35736,151.07903,0.99556726,569.0334,146.90466,0.98127234,530.5273,154.44308,0.99204457,523.8522,148.3078,0.96478623,536.36237,206.83997,0.97281384,528.9427,194.9097,0.93345135,0.12322149,-0.00712372,-0.12012062,-0.02652971,109.80912873385724,133.7614543569326,87.66873861326117,85.54488018736103,3.69461267824936,148.991845,100.467523,91.5412,54.50515999999993,123.75195,0.4404387935669793,-179.96089567141877,0.8634372123529411,-1.682800000000043,1.926209999999997,2.557753077234027,-0.7293000000000802,0.6233199999999925,0.9593780862621928,-1.9561599999999544,1.8865200000000044,2.717631258283552,-1.2678599999999278,0.7622220000000084,1.4793415281414328,-1.7209000000000287,1.8979460000000048,2.5619710827634483,-0.1468999999999596,0.7079710000000148,0.7230508604800973,-2.254199999999969,0.8658099999999962,2.4147555975915767,-1.893799999999942,0.4276959999999974,1.94149486438048,-1.3240599999999176,0.948059999999998,1.6284816999892195,1.1790800000001127,0.227800000000002,1.200884043694589,-1.7885400000000118,-0.046440000000004,1.7891428129693958,-0.3889400000000478,-0.4877950000000055,0.6238736135028012,-0.8503600000000233,-0.0658190000000047,0.852903435542993,0.3876099999999951,-0.6270640000000043,0.737191136813243,-2.734800000000064,0.4629000000000189,2.773699235677936,0.1209999999998672,-0.8679999999999666,0.8763931766050611,-0.3132499999999254,0.6196099999999944,0.694292528117613,-0.0507999999998673,-0.7871100000000126,0.7887476098854477,-2.347900000000095,0.7114899999999977,2.4533349608442063,-0.708400000000097,0.8024499999999932,1.0704001880138692,-0.5941500000000133,0.5569799999999816,0.8143960602188565,-0.5927800000000616,0.6948599999999772,0.9133556525253682,-0.6636399999999867,0.8103699999999776,1.0474338100805922,0.122790000000009,0.8964499999999589,0.9048204167678404,-0.0557000000000016,0.8358400000000188,0.8376938555343663,0.7830999999999904,0.7711600000000374,1.0990602147289483,0.2950599999999213,0.3740500000000111,0.4764176802974065,0.5216199999998707,1.3145100000000127,1.4142220350779078,0.5540000000000873,-0.064060000000012,0.5576913874178964,0.8304000000001679,0.7813799999999844,1.1402275493954066,-0.0557299999999258,-0.0799300000000187,0.0974404320597703,0.5177700000000414,0.3732799999999656,0.6382975256884654,-0.4408400000000938,-0.8451000000000022,0.953170454640767,0.2674199999999018,-0.3883699999999805,0.4715344243,0.8231049999999982,0.8338049999999839,148.745179,0.5392772571391133,99.8729906,0.7440018548741888,89.27404200000001,1.3726828023691102,0.09997769,-0.215332792,0.1400455430232439,0,0
28,933.3333333333334,544.70844,93.22386,0.9235157,547.40717,88.586136,0.94703585,543.8252,89.92848,0.47238004,559.94556,84.28555,0.9471118,551.4854,87.18644,0.11633811,574.7002,100.56912,0.9973122,562.68604,100.30893,0.93663144,566.4036,134.80528,0.99536526,553.0836,129.50208,0.71537024,537.7668,139.00154,0.9883908,539.1092,134.86302,0.7440807,577.3528,151.0696,0.9953061,569.49713,146.91525,0.97770554,530.5636,154.43983,0.99137974,524.45435,148.22504,0.957389,536.04926,206.67015,0.97026247,528.36786,194.44205,0.9222297,0.0756229,0.03021439,0.01326485,-0.06804379,111.95857476209494,129.1955759726619,88.12420962104555,86.82554407516893,5.56628089227816,148.992425,100.439025,93.22386,52.898450000000025,122.3846,0.4322312575909777,-178.75934240701997,0.8586943935294119,-2.325060000000008,1.6826599999999985,2.8700607448623856,-0.6422599999999647,-0.243549999999999,0.6868875527333089,-2.433770000000095,1.864471999999992,3.065859137612887,-0.4776100000001406,-0.0220480000000122,0.4781186321449258,-2.1953999999999496,1.5781839999999931,2.7037836263014388,-0.4744999999999209,-0.3197620000000114,0.572187020688107,-2.672640000000001,1.1975300000000004,2.9286656809031664,-0.4184400000000323,0.3317200000000042,0.533975834659238,-1.745900000000006,0.568310000000011,1.8360672825634776,-0.4218400000000883,-0.3797499999999871,0.5675905637870179,-3.051600000000008,0.0966899999999952,3.053131427911357,-1.263059999999996,0.1431299999999993,1.2711438787564489,-0.6862599999999475,-0.1536859999999933,0.7032582556898468,0.1641000000000758,-0.0878669999999886,0.1861435459236309,-3.245599999999968,0.4948200000000042,3.2831031345968698,-0.5107999999999038,0.0319199999999852,0.5117963720073647,0.407100000000014,0.8144000000000062,0.9104821634716528,0.7203499999999394,0.1947900000000118,0.7462219955213846,-2.1246999999999616,1.3831600000000035,2.5352478528932525,0.2232000000001335,0.671670000000006,0.7077844508747473,-0.7685500000000047,0.7406400000000133,1.0673409540067442,-0.1743999999999914,0.1836600000000317,0.2532713082842363,-1.0045599999999697,-0.0094299999999805,1.0046042596465228,-0.3409199999999828,-0.8197999999999581,0.887861749598393,0.4637299999999413,0.0105899999999792,0.4638509038472871,0.519429999999943,-0.8252500000000396,0.9751128588014856,0.0362999999999829,-0.0032500000000084,0.0364451985863544,-0.2587599999999384,-0.3773000000000195,0.4575063142733473,0.6021499999999378,-0.082759999999979,0.6078106942954538,0.0481499999998504,-0.018699999999967,0.0516537752732979,-0.3131100000000515,-0.1698199999999872,0.3561975638603216,-0.2573800000001256,-0.0898899999999685,0.2726255243003835,-0.5748399999999947,-0.4676499999999919,0.7410381556303199,-0.1339999999999008,0.3774500000000103,0.4005302766333417,0.0005799999999851,-0.822525000000013,148.67373300000003,0.4564801571892174,100.2197406,0.3774296117241432,90.23185,2.112274848782681,-0.04151408,-0.165515898,0.1390810327187732,0,0
29,966.6666666666666,542.3601,93.2797,0.9114666,544.8515,88.54495,0.93104184,542.09705,89.66678,0.45477265,557.02216,84.845055,0.93645924,550.8382,86.82054,0.15222402,571.1638,100.239296,0.9964624,562.1733,99.71192,0.95061296,564.0964,133.81789,0.99294066,552.6643,128.29967,0.76332545,536.0406,141.27122,0.98424214,537.6181,137.74738,0.7816038,576.613,149.25404,0.9943685,570.282,145.34958,0.9788629,532.3558,153.72124,0.9909676,525.6094,148.64493,0.96528137,536.23505,202.41681,0.96864927,528.82324,192.18752,0.9322376,2.91619087,1.05209942,2.66009447,-0.56670403,116.76335851510046,140.5236750143484,91.20900472102402,89.9975826420084,8.15154148965086,147.30181,99.975608,93.2797,51.003600000000006,117.571755,0.4338082693942243,-176.64291940504887,0.8638540588235294,-2.3483400000000074,0.0558400000000034,2.3490038018700683,-0.0232799999999997,-1.626819999999995,1.6269865613458472,-2.555669999999964,-0.0411859999999961,2.5560018457536007,-0.1218999999998686,-1.9056579999999883,1.9095528332475968,-1.7281500000000278,-0.2616999999999905,1.7478527719748282,0.4672499999999218,-1.839883999999984,1.8982875693518797,-2.923400000000015,0.5595050000000015,2.976459877946465,-0.2507600000000138,-0.638024999999999,0.6855337177885604,-0.647199999999998,-0.3659000000000105,0.7434720236834773,1.098700000000008,-0.9342100000000216,1.4421823789313395,-3.536399999999958,-0.3298240000000021,3.551747292668174,-0.4847999999999501,-0.4265139999999974,0.6457129642464595,-0.512740000000008,-0.5970099999999974,0.7869709319282415,0.1735199999999395,-0.443324000000004,0.4760728509125285,-2.307199999999966,-0.9873900000000048,2.509603724116589,0.9384000000000016,-1.4822100000000091,1.7542921775177671,-0.4193000000000211,-1.2024100000000146,1.2734214927116838,-0.8264000000000351,-2.016810000000021,2.179554894032298,-1.7261999999999489,2.269679999999994,2.851528316955628,0.3985000000000127,0.8865199999999902,0.9719670572606834,-1.4910999999999603,2.8843599999999867,3.2469850353211984,-0.7225499999999556,2.143719999999973,2.26221438880134,-0.7397999999999456,-1.815560000000005,1.96050048548832,0.2647600000000238,-1.8061300000000244,1.825432396584464,0.784870000000069,-1.565669999999983,1.7513833006512465,0.3211400000001276,-1.5762599999999622,1.6086411928083786,1.7922000000000935,-0.7185900000000061,1.930894204274368,1.7559000000001106,-0.7153399999999976,1.8960211300511356,1.155050000000074,0.419889999999981,1.2290028944637008,0.5529000000001361,0.5026499999999601,0.7472318465510623,0.1857899999999972,-4.253340000000009,4.257395809611795,0.4989000000000487,-4.083520000000021,4.113883420856773,0.4553800000001047,-2.2545299999999884,2.300060100366954,1.0302200000000994,-1.7868799999999965,2.0625938482406543,-1.6906150000000082,-1.6911949999999931,148.326852,0.7040319439538943,100.2856322,0.2639595056284988,91.19437,2.2016836429877684,-0.49866024,-0.2047209099999999,0.217111147205788,0,0
30,1000.0,539.8099,93.60837,0.89220786,541.7819,89.12677,0.92521656,539.82294,90.28732,0.40339872,554.1176,85.585846,0.94318,549.72455,87.782394,0.13030262,569.5832,101.41733,0.99693143,561.8791,100.55052,0.9446282,561.20447,134.16553,0.99429363,553.1387,129.73291,0.7485363,534.53894,141.89548,0.9842465,536.8256,138.79767,0.7475197,575.88055,151.81796,0.99481285,570.8058,147.4482,0.9789058,531.4889,154.60222,0.98839766,526.9694,148.18292,0.9519845,534.22003,203.83882,0.952737,527.9135,191.89784,0.89099187,1.78372004,1.36996462,0.84747677,-0.76592248,120.5175460389726,135.73322688527182,90.41399529658378,89.7230059928348,8.892846357793138,149.63308,100.983925,93.60837,48.91115000000002,118.252974,0.4136145411986466,-173.5804880407656,0.8510759529411764,-2.550200000000018,0.3286699999999882,2.5712922838331864,-0.2018600000000106,0.2728299999999848,0.3393871955451413,-3.0696000000000367,0.5818199999999933,3.124253298373904,-0.513930000000073,0.6230059999999895,0.8076264736473552,-2.2741099999999506,0.6205399999999912,2.357253949768621,-0.5459599999999227,0.8822399999999817,1.0375065007988544,-2.9045599999999467,0.7407910000000015,2.9975390071324663,0.0188400000000683,0.181286,0.182262336745699,-1.113650000000007,0.9618540000000024,1.471522830205505,-0.4664500000000089,1.327754000000013,1.407304617705791,-1.580600000000004,1.178034000000011,1.9713093276185851,1.9557999999999536,1.507858000000013,2.469572713682239,-0.2942000000000462,0.8385999999999996,0.8887089512320816,0.2185399999999617,1.435609999999997,1.4521486851214562,-2.891930000000002,0.3476399999999842,2.912750022658999,-0.5847300000000359,1.335029999999989,1.4574684469311892,0.474399999999946,1.433240000000012,1.5097126407366348,0.8936999999999671,2.6356500000000267,2.783047001489569,-1.501660000000015,0.6242599999999925,1.6262482292688398,0.2245399999999335,-1.6454200000000014,1.6606701020973356,-0.7925000000000182,1.0502900000000182,1.3157375627761283,0.6985999999999422,-1.8340699999999688,1.9626142577948944,-0.7324500000000853,2.563919999999996,2.666489971648141,0.0073499999998603,4.379480000000001,4.379486167679949,0.5237999999999374,2.098620000000011,2.163000773092784,-0.2610700000001316,3.664289999999994,3.673578466427528,-0.8669000000001006,0.8809799999999939,1.2359779004497466,-2.659100000000194,1.59957,3.1031334155819077,1.3599999999999,-0.4620099999999922,1.4363332621991738,0.2049499999998261,-0.8818999999999733,0.9054016304932754,-2.015020000000049,1.4220100000000002,2.4662558749043457,-2.200810000000047,5.675350000000009,6.087130874114693,-0.9097400000000562,-0.2896800000000041,0.9547467569989984,-1.3651200000001609,1.964849999999984,2.392527562411848,2.3312700000000177,4.021885000000026,148.61758,0.9006291346539368,100.4779467,0.357795605756654,92.25362400000002,1.6807337623579393,-0.1992184499999999,-0.3107414819999999,0.334038644820782,0,0
31,1033.3333333333337,537.3351,93.890076,0.8989511,539.39276,89.53595,0.9236492,537.0644,90.75599,0.44498584,551.75525,86.380005,0.93790966,546.0601,88.7671,0.15172143,567.8855,102.06853,0.9968311,557.7631,101.30019,0.9555971,559.5148,133.47748,0.99380684,548.8223,128.82683,0.7980939,532.11456,142.23267,0.9832797,534.42334,139.35318,0.78577685,575.81415,150.53142,0.9954679,569.0224,146.36086,0.9838943,532.31696,155.41351,0.98978335,526.4037,149.22742,0.9628572,535.1563,202.66159,0.9587498,528.3407,191.39796,0.9116407,1.74529315,1.2039083,0.51241639,-1.15502486,122.64309152764886,144.16271941448275,92.96501697975285,91.21806149629656,11.59431531179664,148.44614,101.68436,93.890076,49.41045000000008,116.281585,0.4249206748865645,-175.65929186921136,0.8631174100000001,-2.4747999999999597,0.2817059999999998,2.4907816665528517,0.0754000000000587,-0.0469639999999884,0.0888300472588401,-2.3891399999999976,0.4091800000000063,2.4239261977213733,0.6804600000000391,-0.172639999999987,0.7020187897770606,-2.758540000000039,0.468670000000003,2.798069781206362,-0.4844300000000885,-0.1518699999999881,0.5076779705680385,-2.362349999999992,0.7941589999999934,2.492265242661975,0.5422099999999546,0.0533679999999918,0.5448300905089126,-3.664449999999988,0.9847060000000027,3.794448538185215,-2.550799999999981,0.0228520000000003,2.5509023607154986,-1.6977000000000544,0.6511999999999887,1.8183087554098645,-0.1171000000000503,-0.5268340000000222,0.5396910908622035,-4.1159999999999854,0.7496699999999947,4.18371379385587,-3.8217999999999392,-0.0889300000000048,3.8228345223014215,-1.6896699999999782,-0.6880499999999756,1.824389627080765,1.202260000000024,-1.0356899999999598,1.586846836874931,-4.3163999999999305,-0.9060800000000028,4.410475022761086,-4.7907999999998765,-2.339320000000015,5.331433456622983,-2.424380000000042,0.337190000000021,2.447716380731276,-0.9227200000000266,-0.2870699999999715,0.9663443399223864,-2.402259999999956,0.5555099999999982,2.4656529495652437,-1.6097599999999377,-0.49478000000002,1.684082689775006,-0.0663999999999305,-1.2865400000000022,1.288252355557713,0.6660500000001548,-3.850459999999998,3.9076418482379114,-1.7834000000000287,-1.0873400000000115,2.0887373783221594,-2.307199999999966,-3.1859600000000228,3.933638641461616,0.8280600000000504,0.8112900000000138,1.159256152754906,1.694960000000151,-0.06968999999998,1.6963920825388537,-0.5656999999999925,1.044499999999999,1.1878538378100187,-1.9256999999998925,1.5065099999999916,2.444972979421155,0.936270000000036,-1.1772300000000089,1.504151583385161,2.951290000000085,-2.599240000000009,3.932704062308853,0.4271999999999707,-0.4998799999999903,0.6575559705454475,1.3369400000000269,-0.2101999999999861,1.3533634410608504,-1.1869399999999928,-3.5182100000000105,148.67306000000002,0.8742247320840912,100.7100882,0.6511463798845668,93.1086412,0.9164848090105308,-0.3891023799999999,-0.516444974,0.4779199350379088,0,0
32,1066.6666666666667,534.47253,95.505974,0.8809268,536.1616,91.19302,0.9105357,534.325,92.35754,0.39988142,548.2166,87.55675,0.933196,543.8833,89.87518,0.14127323,565.6406,102.545975,0.99647623,555.9609,101.422905,0.9516679,558.1009,134.08972,0.9934377,547.2233,128.86288,0.7934865,530.5258,144.4503,0.9820911,532.0925,140.68495,0.779947,575.51245,150.56107,0.995122,569.0364,146.22485,0.98298186,533.05457,156.66995,0.9887372,527.21234,149.76874,0.95990515,535.80774,202.72238,0.95469,528.7671,190.40292,0.90464056,1.74529315,1.2039083,0.51241639,-1.15502486,124.0351447900539,145.66422015497685,94.76631717357618,92.65208717951629,13.886890160022178,148.39296000000002,101.98444,95.505974,48.300109999999904,115.16563,0.4193969119137627,-173.38194914361964,0.8558233147058824,-2.862570000000005,1.6158980000000014,3.2871618991622595,-0.3877700000000459,1.3341920000000016,1.3894005418755384,-3.231159999999932,1.6570700000000045,3.631291220833104,-0.842019999999934,1.2478899999999982,1.5053993265907504,-2.7393999999999323,1.6015500000000031,3.1732120576002543,0.0191400000001067,1.13288,1.1330416735495674,-3.538650000000075,1.1767449999999968,3.729178544602755,-1.176300000000083,0.3825860000000034,1.236953409549526,-2.176800000000071,1.108080000000001,2.44260097568152,1.4876499999999169,0.1233739999999983,1.4927570687743374,-2.2449000000000296,0.477445000000003,2.2951099620770106,-0.5471999999999753,-0.1737549999999856,0.5741242374477565,-1.8021999999999707,0.1227149999999994,1.806373109638453,2.3138000000000147,-0.6269549999999953,2.39723653651972,-1.4139000000000124,0.6122399999999857,1.5407631315682555,0.2757699999999659,1.3002899999999613,1.3292114869349725,-1.5990000000000464,0.0360499999999888,1.5994063281418351,2.717399999999884,0.9421299999999916,2.876086176890281,-1.5887599999999793,2.2176299999999856,2.7280104755113883,0.8356200000000626,1.8804399999999648,2.0577452169790047,-2.33084000000008,1.3317699999999777,2.6844788020210397,0.0714199999998754,0.7762599999999793,0.7795385840354216,-0.3017000000000962,0.0296500000000037,0.3031534471188779,-0.2353000000001657,1.316190000000006,1.3370572934994571,0.01400000000001,-0.1360099999999988,0.1367286367225241,1.7974000000000387,0.9513300000000128,2.033636036487396,0.7376100000000179,1.2564399999999978,1.456952293556663,-0.0904500000000325,0.4451499999999839,0.4542463263472712,0.8086400000000822,0.5413200000000131,0.9731012239228491,1.3743400000000747,-0.5031799999999862,1.4635574973331904,0.6514399999999796,0.0607899999999972,0.654270202362887,-0.2848300000000563,1.238020000000006,1.2703628022340887,0.4264000000000578,-0.9950400000000172,1.0825532603988053,-0.0007999999999128,-0.4951600000000269,0.4951606462553607,-0.0531799999999975,1.1337599999999952,148.55328300000002,0.8605485189517236,101.0134716,0.8367935272636784,93.901596,0.9362456521756708,0.0,-0.742144004,0.4546143699377075,0,0
33,1100.0,531.8837,96.98187,0.87223756,533.31757,92.664444,0.9059634,531.55023,93.92937,0.38567698,544.3781,88.318405,0.93198204,540.7567,90.74472,0.14106707,562.57196,102.3672,0.9962049,553.2131,101.115,0.9474141,555.7705,134.738,0.9930657,545.1947,128.63785,0.77781934,527.01404,145.98227,0.98063666,528.9791,141.58936,0.76283,575.6884,150.29788,0.99425185,569.4995,146.08356,0.9799448,530.7151,157.17023,0.98650384,526.1164,150.3363,0.95146585,537.2342,202.33292,0.9465094,531.56165,189.74222,0.8873343,1.26721883,0.60723553,0.98110789,-0.52396172,123.22222055702036,144.85734822671822,90.47439219543988,87.73116771502052,17.562712330285777,148.19072,101.7411,96.98187,49.572,114.014515,0.4347867424179567,-172.37918027965165,0.849465164117647,-2.58883000000003,1.475896000000006,2.9799848609877486,0.2737399999999752,-0.1400019999999955,0.3074640590442811,-2.844029999999975,1.471423999999999,3.20212354987684,0.3871299999999564,-0.1856460000000055,0.4293414424627191,-2.774769999999989,1.5718300000000056,3.189043446207649,-0.0353700000000571,-0.0297199999999975,0.0461986504132306,-3.8384999999999536,0.7616550000000046,3.913336247886789,-0.2998499999998785,-0.4150899999999922,0.5120641860156993,-3.1265999999999394,0.8695400000000006,3.245262296271231,-0.9497999999998684,-0.2385400000000004,0.97929636556037,-3.0686399999999594,-0.1787750000000016,3.073843188945193,-0.8237399999999298,-0.6562200000000047,1.0531724816001844,-2.747799999999984,-0.3079050000000052,2.7649973470195075,-0.9456000000000132,-0.4306200000000046,1.0390346213673676,-2.330400000000054,0.6482799999999997,2.418890472592807,-0.9165000000000418,0.036040000000014,0.9172083359848392,-2.028599999999983,-0.2250300000000038,2.0410429835993003,-0.4295999999999367,-0.2610799999999926,0.5027115737676444,-3.511759999999981,1.5319700000000012,3.831369256349468,-1.9230000000000016,-0.6856599999999844,2.0415823852100567,-3.113399999999956,0.9044100000000128,3.2421007091236,-0.7825599999998758,-0.4273599999999646,0.8916483181163835,0.1759500000000571,-0.2631900000000087,0.3165870790162237,0.4776500000001533,-0.2928400000000124,0.5602720661430067,0.463100000000054,-0.1412899999999979,0.4841740122105372,0.449100000000044,-0.005279999999999,0.4491310370037229,-2.3394700000000057,0.5002800000000036,2.392362840227216,-3.077080000000024,-0.7561599999999942,3.1686273482377407,-1.0959400000000414,0.5675599999999861,1.2341834698293748,-1.904580000000124,0.0262399999999729,1.9047607498057253,1.42646000000002,-0.3894599999999855,1.4786707622726725,0.7750200000000405,-0.4502499999999827,0.8963152698130536,2.7945499999999583,-0.6606999999999914,2.871590881810944,2.3681499999999005,0.3343400000000258,2.391634934119241,-0.2022400000000175,-0.1490600000000199,148.392942,0.8325015113019414,101.2738866,0.8156696574274993,94.653198,1.558080363960036,0.63106314,-0.83332759,0.3075374286867166,0,0
34,1133.3333333333333,530.39166,98.45965,0.87682587,531.9052,94.11981,0.91157544,529.77094,95.05003,0.36919615,541.7437,89.06137,0.9355648,538.9559,90.41364,0.14650182,557.66156,102.2247,0.99597794,553.2121,100.18872,0.9387581,552.8697,135.9069,0.9923354,547.6854,127.51457,0.71939445,527.1803,146.14572,0.98068905,529.5502,140.796,0.73319393,574.08057,149.59929,0.99292326,571.29156,145.76776,0.9728822,529.0262,158.8269,0.9871286,526.6789,152.58203,0.9493055,538.6909,200.76215,0.95611686,535.3148,188.00201,0.904875,1.01518024,0.52199656,0.83568579,-0.24441721,119.82730378289806,137.65135197028349,88.59652250846987,84.98220740710902,20.36172317661961,147.683525,101.20671,98.45965,47.40166999999997,111.70078,0.4243629236576239,-155.4121566935511,0.8448967276470588,-1.4920399999999745,1.4777799999999957,2.100004069043656,1.0967900000000554,0.0018839999999897,1.096791618109895,-1.41237000000001,1.455365999999998,2.028023473941074,1.4316599999999653,-0.016058000000001,1.4317500532438967,-1.77929000000006,1.1206600000000009,2.102796171696205,0.9954799999999296,-0.4511700000000047,1.0929477568941088,-2.634400000000028,0.7429649999999981,2.7371628287745584,1.2040999999999258,-0.0186900000000065,1.2042450440420427,-1.800799999999981,-0.33108,1.8309818694896824,1.3257999999999583,-1.200620000000001,1.788640272497489,-4.910399999999981,-0.1424999999999983,4.912467242638857,-1.841760000000022,0.0362750000000033,1.8421171985585176,-0.00100000000009,-0.9262799999999912,0.9262805397934172,2.7467999999998938,-0.6183749999999861,2.815545751825816,-2.900800000000004,1.1689000000000078,3.127453892545826,-0.5703999999999496,0.5206200000000081,0.7722702534734528,2.490699999999947,-1.12327999999998,2.73227825237469,4.51929999999993,-0.898249999999976,4.607702849848211,0.1662599999999656,0.1634500000000116,0.2331486437875897,3.6780199999999463,-1.3685199999999895,3.9243697724347513,0.5711000000000013,-0.793360000000007,0.9775353188504304,3.684499999999957,-1.6977700000000198,4.056841532879951,-1.6078300000000354,-0.6985899999999958,1.7530388749255128,-1.7837800000000923,-0.4353999999999871,1.836149299049595,1.7920599999999922,-0.3157999999999958,1.819672685842146,1.3289599999999382,-0.1745099999999979,1.3403687633259125,-1.6888999999999896,1.6566699999999912,2.365785006905728,0.6505700000000161,1.1563899999999876,1.3268304929417292,0.5625,2.245730000000009,2.3151046375704145,1.6584400000000414,1.6781700000000228,2.3593808048935667,1.456700000000069,-1.5707700000000102,2.142263588567064,0.0302400000000488,-1.1813100000000247,1.1816969889527775,3.753150000000005,-1.7402099999999905,4.136963350889153,0.9586000000000467,-1.079509999999999,1.4436951894704393,-0.5071949999999958,-0.3049549999999783,148.469285,0.7169025797659013,101.520107,0.4114398211404659,95.689188,2.058316141536046,0.2795445099999999,-0.768870226,0.397891516065773,0,0
35,1166.6666666666667,527.117,100.17008,0.8837539,528.613,95.52667,0.915904,526.6098,96.83395,0.42465526,538.9816,90.19783,0.93270814,535.9364,92.29486,0.16970445,555.59753,103.23451,0.99487466,551.41284,101.883545,0.9428583,550.5509,137.70831,0.9887341,546.7986,129.857,0.7331689,525.94165,147.32095,0.9721142,529.29364,144.58286,0.72519356,574.6398,150.74408,0.99046224,571.7741,147.2921,0.9695127,527.97986,158.18677,0.98273003,525.72064,152.92107,0.94311816,539.43866,201.91495,0.9428553,535.3633,190.74385,0.88942224,0.76966741,0.43921405,0.53820916,-0.3313757,119.6645456238208,139.43849797742556,84.37888401920472,82.66602349810442,22.98021113876337,149.01809,102.5590275,100.17008,48.91916000000003,111.71712,0.4378841807067337,-162.10809699791128,0.8471629494117647,-3.27466000000004,1.7104300000000023,3.694451095968151,-1.7826200000000654,0.2326500000000066,1.7977374910982518,-3.29219999999998,1.406859999999995,3.580200539020105,-1.87982999999997,-0.0485060000000032,1.8804557056564477,-3.161140000000046,1.7839199999999948,3.6297626184091256,-1.3818499999999858,0.663259999999994,1.532782845056648,-2.762100000000032,1.1364599999999996,2.9867604091390016,-0.1277000000000043,0.3934950000000015,0.4136974800805563,-3.0194999999999936,1.881219999999999,3.5575790839277146,-1.2187000000000126,2.212299999999999,2.525767404176407,-2.0640300000000025,1.0098100000000017,2.297811149115613,2.846369999999979,1.15231,3.0707719734620285,-1.799260000000004,1.6948249999999945,2.4717945562333847,-1.7982599999999138,2.621104999999986,3.178668030578943,-2.31880000000001,1.8014100000000042,2.936309150634528,0.5819999999999936,0.6325099999999964,0.859530627784716,-0.8867999999999938,2.342429999999993,2.5046741394640457,-3.377499999999941,3.465709999999973,4.839282183764387,-1.238650000000007,1.175229999999999,1.7074599191196305,-1.4049099999999726,1.0117799999999877,1.7313205585621334,-0.2565600000000358,3.7868600000000185,3.795541027732431,-0.8276600000000371,4.5802200000000255,4.654399673857015,0.5592300000000705,1.1447900000000004,1.274080977410808,2.167060000000106,1.843379999999996,2.845030556602239,0.4825399999999717,1.5243399999999951,1.5988925189642855,-1.3095200000000204,1.840139999999991,2.258530019725224,-1.0463399999999865,-0.6401299999999992,1.226618853800956,0.6425600000000031,-2.2967999999999904,2.3849892229525818,-0.9582599999999956,0.3390399999999829,1.01646955153609,-1.5207599999999957,-1.906690000000026,2.438888626751965,0.7477599999999711,1.1528000000000134,1.3740789124355222,-0.7089400000000978,2.723570000000024,2.814325757352952,0.0484999999999899,2.7418399999999963,2.742268921094352,-3.704650000000015,4.482049999999987,5.814912194092013,1.3345649999999978,1.8417599999999936,148.34628700000002,0.4813841557114369,101.8351275,0.493154640243667,97.00153,2.453774811171109,-0.08695849,-0.6819608699999999,0.4435361384657082,0,0
36,1200.0,523.52997,101.10454,0.9177435,525.8814,96.59863,0.9431798,522.6279,97.76906,0.5185326,537.7984,91.98363,0.94563407,530.5022,93.84688,0.1826139,553.5917,105.29466,0.9957527,547.0145,103.74098,0.94960314,547.3917,139.57974,0.9897227,542.8561,130.9361,0.73988056,524.30176,148.87119,0.9744664,528.401,146.78365,0.731551,575.9397,149.17996,0.99161303,571.0884,146.01593,0.9726054,528.8127,158.48978,0.98562384,524.79474,154.43683,0.95106345,541.56726,201.72931,0.9524979,536.697,192.92505,0.90546155,0.74795584,0.53108544,0.36208138,-0.38246995,122.1703790688456,146.3247173906261,84.74003772568766,83.12556206774616,28.315148926505845,147.59794499999998,104.51782,101.10454,53.31180000000006,109.74568,0.4857758365907818,-166.70911023294525,0.861620325882353,-3.5870299999999133,0.9344600000000014,3.7067505597894472,-0.3123699999998734,-0.7759700000000009,0.8364833876413341,-2.7316000000000717,1.0719600000000042,2.93440569819519,0.5605999999999085,-0.3348999999999904,0.6530163627351852,-3.981899999999996,0.9351099999999946,4.090227172431863,-0.8207599999999502,-0.8488100000000003,1.1807308726801036,-1.1831999999999423,1.785800000000009,2.1422053776423717,1.5789000000000897,0.6493400000000094,1.7072104866126774,-5.434200000000033,1.5520199999999988,5.651486151482666,-2.414700000000039,-0.3292000000000001,2.4370368749775184,-2.00583000000006,2.060149999999993,2.875338590740265,0.0581999999999425,1.0503399999999914,1.0519512135075348,-4.398339999999962,1.8574349999999955,4.774459082956376,-2.599079999999958,0.1626100000000008,2.604161834160808,-3.1591999999999416,1.8714299999999755,3.671892548114601,-0.8403999999999314,0.0700199999999711,0.8433118998329625,-3.942499999999996,1.079100000000011,4.0875130654225424,-3.0557000000000016,-1.263329999999982,3.306554880672626,-1.6398900000000367,1.5502400000000025,2.2566531123990075,-0.4012400000000298,0.3750100000000032,0.54920491412589,-0.8926400000000285,2.200789999999984,2.374927955475698,-0.6360799999999927,-1.586070000000035,1.7088638949021369,1.2998999999999796,-1.5641200000000026,2.033767780352505,0.7406699999999091,-2.708910000000003,2.80834211537695,-0.6856999999999971,-1.2761700000000076,1.4487216291958975,-1.1682399999999689,-2.8005100000000027,3.034409490774101,0.8328399999999192,0.3030100000000004,0.8862491329755227,1.8791799999999057,0.9431399999999996,2.102577116778275,-0.925899999999956,1.5157600000000002,1.776181068359845,0.0323600000000396,1.1767200000000173,1.1771648686569114,2.128600000000006,-0.1856400000000064,2.1366797068348893,1.3808400000000347,-1.3384400000000198,1.923055053606149,1.3337000000000216,2.18119999999999,2.5566362920838026,1.2852000000000317,-0.5606400000000065,1.4021612780276342,-1.4201450000000193,-2.754710000000017,148.176648,0.5772956342356491,102.40181950000002,1.278789964473792,98.4444228,2.2818791707864383,-0.05109425,-0.5274498879999999,0.3651829265022504,0,0
37,1233.3333333333337,519.4992,103.51793,0.8968099,521.5059,99.64639,0.9274058,518.67346,100.373474,0.423645,532.73193,93.21954,0.93203264,526.6799,94.30998,0.12841558,549.7275,104.10719,0.9949869,542.46326,101.8327,0.93117696,543.96277,139.04057,0.9905938,537.40155,129.31851,0.70513135,521.81256,150.59354,0.97893447,524.9423,145.80531,0.7318875,575.59424,147.0119,0.9929329,570.73267,143.88292,0.97474843,528.09015,159.27167,0.99041593,524.91504,155.37126,0.96371967,538.98785,200.89426,0.97432953,535.8723,192.93704,0.94475424,0.77540974,0.35372943,0.38541769,-0.57235387,126.9159051395286,153.35579135768918,89.79908617142452,87.81516186771303,32.50666495490974,145.44741,102.969945,103.51793,56.92078000000004,107.67472,0.5286364289720336,-162.61425620815265,0.8518776823529413,-4.030770000000075,2.413390000000007,4.698037684501971,-0.4437400000001616,1.4789300000000054,1.5440657798488249,-4.375499999999988,3.0477599999999967,5.332339192849595,-1.6438999999999169,1.9757999999999925,2.5702515149299487,-3.954439999999977,2.6044140000000056,4.735036219185218,0.0274600000000191,1.669304000000011,1.669529842804865,-5.066469999999981,1.23590999999999,5.215035166611994,-3.883270000000039,-0.5498900000000191,3.9220103142394103,-3.822300000000041,0.4630999999999972,3.8502517969608574,1.6118999999999917,-1.0889200000000017,1.9452424980963108,-3.864199999999983,-1.1874699999999905,4.042539627622696,-1.8583699999999224,-3.2476199999999835,3.741734186349908,-4.551240000000007,-1.9082799999999909,4.935110748098772,-0.1529000000000451,-3.765714999999986,3.768817834709567,-3.4289300000000367,-0.5391699999999844,3.47106111064041,-0.269730000000095,-2.41059999999996,2.425643550256273,-5.454549999999927,-1.617590000000007,5.68935085142402,-1.512049999999931,-2.696690000000018,3.091671418278451,-2.4891999999999825,1.7223499999999774,3.026979709628037,-0.8493099999999458,0.1721099999999751,0.8665733253452356,-3.458699999999908,-0.9783400000000028,3.594406049071163,-2.5660599999998794,-3.1791299999999865,4.085527074992808,-0.3454600000000027,-2.168059999999997,2.19541038878839,-1.6453599999999824,-0.6039399999999944,1.7526987913500525,-0.3557299999999941,-2.1330099999999845,2.162469766956276,0.329970000000003,-0.856839999999977,0.9181802581737218,-0.7225499999999556,0.7818900000000042,1.0646269180327643,-1.5553899999998748,0.4788800000000037,1.627440968668177,0.1202999999999292,0.9344300000000204,0.942141982346621,1.0461999999998852,-0.5813299999999799,1.1968621511685198,-2.5794100000000526,-0.8350499999999954,2.711210882723855,-4.708010000000058,-0.6494099999999889,4.752587874853082,-0.8247000000000071,0.0119899999999972,0.8247871544222859,-2.1584000000000287,-2.1692099999999925,3.0600919241258246,-2.1505349999999908,-0.7303899999999715,147.587538,1.322854604258389,102.5989205,1.274316680488072,100.046814,2.504775257848459,-0.18988392,-0.41091569,0.1357379873470684,0,0
38,1266.6666666666663,514.9864,104.89447,0.8773921,516.8369,101.329414,0.90512216,514.46344,101.81853,0.37395215,528.16785,95.62056,0.9188051,522.5693,96.13609,0.11944527,546.1837,106.28788,0.99476224,538.31604,103.38704,0.93891937,540.71875,141.6492,0.9912698,532.7274,130.70789,0.76592386,518.4435,154.81845,0.98120797,521.2129,148.69496,0.78737557,576.23566,145.31836,0.9939903,570.7362,142.243,0.9804489,530.31366,161.0416,0.9909593,526.0625,157.61557,0.96892726,540.12244,201.07921,0.9730926,535.7165,194.406,0.9458486,0.77540974,0.35372943,0.38541769,-0.57235387,129.37714064158567,158.9351888792415,95.1349840106209,94.2855192940036,38.73283542800351,143.78068000000002,104.83746,104.89447,61.77222000000006,105.45865,0.5857482474339641,-159.76085301970664,0.8533789735294117,-4.51279999999997,1.3765399999999914,4.718074417768302,-0.4820299999998951,-1.0368500000000154,1.1434206764791035,-4.668999999999983,1.6830240000000032,4.96307674578742,-0.2934999999999945,-1.3647359999999935,1.395939325220111,-4.210019999999986,1.445055999999994,4.451118426141441,-0.255580000000009,-1.1593580000000117,1.18719505918953,-4.56407999999999,2.4010200000000026,5.157104157063334,0.5023899999999912,1.1651100000000127,1.2688092938657176,-4.110599999999977,1.82611,4.497967328927569,-0.2882999999999356,1.3630100000000027,1.3931665909359046,-3.5437999999999192,2.1806899999999985,4.161000758964053,0.3204000000000633,3.368159999999989,3.383364885081118,-4.147219999999948,1.5543399999999965,4.428928376481105,0.4040200000000595,3.462619999999987,3.486110931224071,-3.2440199999999777,2.608630000000005,4.162765455475468,0.1849100000000589,3.147799999999989,3.153226371210915,-4.674150000000054,1.3893799999999883,4.876274705848767,0.7803999999998723,3.0069699999999955,3.106588601810638,-3.3690599999999904,4.224910000000023,5.403742202557421,-0.8798600000000079,2.502560000000045,2.6527269315178748,-3.729400000000055,2.8896500000000174,4.71789163530708,-0.2707000000001471,3.86799000000002,3.8774508546337807,0.6414200000000392,-1.6935399999999845,1.8109382507418628,0.986880000000042,0.4745200000000125,1.0950348692165444,0.0035300000000688,-1.6399200000000178,1.6399237992358238,0.359260000000063,0.4930899999999667,0.6100864657571191,2.223510000000033,1.769929999999988,2.8419445675452755,2.946059999999989,0.9880399999999838,3.1073288472898875,1.1474600000000237,2.2443099999999845,2.520633219589868,1.0271600000000944,1.3098799999999642,1.6645850173542054,1.1345900000000029,0.1849499999999864,1.149565557330247,3.714000000000056,1.0199999999999818,3.8515186615152697,-0.1557999999999992,1.4689600000000098,1.4771990798805787,0.6689000000000078,1.4569700000000123,1.6031808353707473,-1.6667299999999727,0.483805000000018,146.70553,2.075959173656293,103.2181925,1.4877202392923683,101.629334,2.5826166763826586,0.0,-0.4205941199999999,0.1470660785690897,0,0
39,1300.0,513.0921,107.78175,0.8487397,514.0447,103.61988,0.89371556,512.36926,104.56284,0.37515727,524.45654,97.40816,0.9165664,520.58545,98.995995,0.13846217,543.66266,108.61911,0.9933247,538.6573,104.70555,0.9278778,536.78326,145.86488,0.98733145,532.4338,133.50768,0.7305383,514.0412,162.5324,0.9657639,518.02637,152.30292,0.71426165,576.58295,146.14069,0.98918205,572.5148,142.48856,0.9684068,530.38354,158.90678,0.9801222,529.0076,155.13284,0.93892336,541.2724,203.67154,0.93223315,537.0451,196.7587,0.87045646,1.22826053,0.57824936,0.91380104,-0.58242534,136.70222175847516,154.7210383922637,91.77538069622354,95.27648970438908,41.56562467877041,144.314625,106.66233,107.78175,64.21368999999993,106.26338,0.60428803785191,-141.97907856302044,0.8335919364705882,-1.894300000000044,2.887280000000004,3.453224332185818,2.6184999999999263,1.5107400000000126,3.0230576570088195,-2.79219999999998,2.290465999999995,3.6114561242185768,1.876800000000003,0.6074419999999918,1.9726540556732195,-2.094179999999937,2.7443099999999987,3.4520757883481834,2.1158400000000483,1.2992540000000048,2.482909555766424,-3.711310000000026,1.7875999999999976,4.119385351736371,0.8527699999999641,-0.613420000000005,1.050476448712652,-1.9838499999999613,2.8599049999999977,3.480620265344214,2.1267500000000155,1.0337949999999978,2.364698218489002,-2.5210400000000845,2.331230000000005,3.4336971320284566,1.0227599999998347,0.1505400000000065,1.0337796231304153,0.3412599999999202,1.3185100000000034,1.361957050607674,4.488479999999868,-0.2358299999999928,4.494671122484804,-3.935489999999959,4.215679999999992,5.767151758233834,-0.6914699999999812,1.6070499999999868,1.7494972030271816,-0.2935999999999694,2.7997900000000016,2.8151420930567594,4.380550000000085,1.410410000000013,4.602007678242266,-4.402299999999968,7.713949999999983,8.8817379995415,-1.033239999999978,3.48903999999996,3.638816431094,-3.186529999999948,3.607959999999992,4.813662722137853,0.5428700000001072,0.718309999999974,0.9003760842004185,0.3472899999999299,0.8223299999999938,0.8926572539334126,-0.2941300000001092,2.5158699999999783,2.5330049967972736,1.778599999999983,0.2455600000000117,1.7954714349161742,1.7750699999999142,1.8854800000000296,2.589576864142056,0.0698800000000119,-2.1348199999999906,2.135963400154591,-2.153630000000021,-3.904749999999978,4.459281863641266,2.945100000000025,-2.482730000000004,3.851955641346375,1.7976400000000012,-4.727039999999988,5.057313192911814,1.1499599999999646,2.592330000000004,2.835944786222034,0.0153699999999616,2.4073800000000176,2.4074290646455365,1.3286000000000513,2.3526999999999987,2.7019206594569223,1.4844000000000506,0.8837399999999889,1.727553109921698,0.5339449999999886,2.2006749999999613,146.03175000000002,2.2208377371923915,104.3093165,1.636804004441328,103.493754,3.045679393982529,-0.0100714699999999,-0.488195746,0.1212588829973702,0,0
40,1333.3333333333333,508.7569,110.77233,0.84403753,509.3734,106.71969,0.88536894,508.29398,107.65298,0.37208378,519.1983,100.23625,0.9115916,516.82855,101.82805,0.14471717,538.66846,110.40082,0.99309736,535.2577,107.12333,0.9338773,531.437,147.29265,0.98709214,528.13837,136.36203,0.7582947,510.62024,164.3419,0.9654448,513.415,154.64227,0.7388169,575.4198,146.36137,0.9888747,572.3209,143.30682,0.9696464,529.8981,159.7676,0.978626,529.30316,156.96231,0.93841565,540.69293,203.45448,0.924432,536.4721,197.86055,0.8616195,1.24143411,0.56989742,0.95212172,-0.55663257,140.40839378033556,154.83580036155996,92.53029623014018,97.669232172749,45.655724242423176,144.834095,108.762075,110.77233,67.12582000000003,103.21823,0.650329107074118,-136.141524044361,0.8350609688235293,-4.335199999999986,2.9905799999999942,5.266642932305155,-2.4408999999999423,0.1032999999999901,2.443084873679119,-4.671300000000031,3.099810000000005,5.606234540768011,-1.8791000000000508,0.80934400000001,2.04598497558907,-4.0752800000000775,3.090140000000005,5.114378974812158,-1.98110000000014,0.3458300000000065,2.011058328070213,-5.258240000000001,2.828090000000003,5.970526019179552,-1.5469299999999748,1.0404900000000057,1.8642992959822555,-3.756900000000087,2.832055000000011,4.704767064693609,-1.7730500000001257,-0.0278499999999866,1.7732687120119288,-4.994199999999978,1.7817099999999897,5.302501689212343,-2.473159999999893,-0.5495200000000153,2.5334744158959825,-3.399599999999964,2.4177799999999934,4.171683148130946,-3.740859999999884,1.09926999999999,3.8990291192166175,-5.346260000000029,1.4277700000000095,5.533626583037596,-1.4107700000000705,-2.7879099999999823,3.124534231049502,-4.29543000000001,2.854350000000011,5.157328068622371,-4.001830000000041,0.0545600000000092,4.002201911760616,-3.42095999999998,1.809500000000014,3.8700461976053866,0.9813399999999888,-5.904449999999969,5.985445513752473,-4.611370000000079,2.339349999999996,5.170811512654538,-1.4248400000001311,-1.2686099999999954,1.9077579400176436,-1.1631499999999733,0.2206799999999873,1.1838993136664673,-1.5104399999999032,-0.6016500000000065,1.6258572250046175,-0.193899999999985,0.8182599999999809,0.8409201136849819,-1.972499999999968,0.5726999999999691,2.053957531206485,-0.4854400000000396,0.8608199999999897,0.9882626503111512,-0.5553200000000516,2.9956399999999803,3.0466767652640705,0.2955600000000231,1.8294700000000148,1.8531908143793687,-2.649540000000002,4.3122000000000185,5.061139303714151,-0.5794699999999011,-0.2170600000000035,0.6187895639875377,-1.7294299999998657,-2.809390000000008,3.29903020553004,-0.5730000000000928,1.101849999999985,1.2419349509938402,-1.901600000000144,-1.250850000000014,2.2761169307618148,0.5194699999999841,-0.0144750000000044,145.194951,1.4784678802033455,105.549926,2.22398833260039,105.614204,3.760118701607663,0.02579277,-0.53324712,0.0847906353591085,0,0
