frame_id,timestamp_ms,nose_x,nose_y,nose_conf,left_eye_x,left_eye_y,left_eye_conf,right_eye_x,right_eye_y,right_eye_conf,left_ear_x,left_ear_y,left_ear_conf,right_ear_x,right_ear_y,right_ear_conf,left_shoulder_x,left_shoulder_y,left_shoulder_conf,right_shoulder_x,right_shoulder_y,right_shoulder_conf,left_elbow_x,left_elbow_y,left_elbow_conf,right_elbow_x,right_elbow_y,right_elbow_conf,left_wrist_x,left_wrist_y,left_wrist_conf,right_wrist_x,right_wrist_y,right_wrist_conf,left_hip_x,left_hip_y,left_hip_conf,right_hip_x,right_hip_y,right_hip_conf,left_knee_x,left_knee_y,left_knee_conf,right_knee_x,right_knee_y,right_knee_conf,left_ankle_x,left_ankle_y,left_ankle_conf,right_ankle_x,right_ankle_y,right_ankle_conf,acc_x,acc_y,acc_z,acc_mag,left_elbow_angle,right_elbow_angle,left_knee_angle,right_knee_angle,spine_angle,hip_height,shoulder_height,head_height,bbox_width,bbox_height,bbox_aspect_ratio,shoulder_tilt,avg_confidence,nose_vx,nose_vy,nose_speed,nose_ax,nose_ay,nose_accel,left_eye_vx,left_eye_vy,left_eye_speed,left_eye_ax,left_eye_ay,left_eye_accel,right_eye_vx,right_eye_vy,right_eye_speed,right_eye_ax,right_eye_ay,right_eye_accel,left_ear_vx,left_ear_vy,left_ear_speed,left_ear_ax,left_ear_ay,left_ear_accel,right_ear_vx,right_ear_vy,right_ear_speed,right_ear_ax,right_ear_ay,right_ear_accel,left_shoulder_vx,left_shoulder_vy,left_shoulder_speed,left_shoulder_ax,left_shoulder_ay,left_shoulder_accel,right_shoulder_vx,right_shoulder_vy,right_shoulder_speed,right_shoulder_ax,right_shoulder_ay,right_shoulder_accel,left_elbow_vx,left_elbow_vy,left_elbow_speed,left_elbow_ax,left_elbow_ay,left_elbow_accel,right_elbow_vx,right_elbow_vy,right_elbow_speed,right_elbow_ax,right_elbow_ay,right_elbow_accel,left_wrist_vx,left_wrist_vy,left_wrist_speed,left_wrist_ax,left_wrist_ay,left_wrist_accel,right_wrist_vx,right_wrist_vy,right_wrist_speed,right_wrist_ax,right_wrist_ay,right_wrist_accel,left_hip_vx,left_hip_vy,left_hip_speed,left_hip_ax,left_hip_ay,left_hip_accel,right_hip_vx,right_hip_vy,right_hip_speed,right_hip_ax,right_hip_ay,right_hip_accel,left_knee_vx,left_knee_vy,left_knee_speed,left_knee_ax,left_knee_ay,left_knee_accel,right_knee_vx,right_knee_vy,right_knee_speed,right_knee_ax,right_knee_ay,right_knee_accel,left_ankle_vx,left_ankle_vy,left_ankle_speed,left_ankle_ax,left_ankle_ay,left_ankle_accel,right_ankle_vx,right_ankle_vy,right_ankle_speed,right_ankle_ax,right_ankle_ay,right_ankle_accel,hip_velocity,hip_acceleration,hip_height_mean_5,hip_height_std_5,shoulder_height_mean_5,shoulder_height_std_5,head_height_mean_5,head_height_std_5,acc_mag_diff,acc_mag_mean_5,acc_mag_std_5,label_binary,label_3class
0,0.0,549.6723,110.71169,0.8780102,552.44446,106.61019,0.89016795,548.8902,107.337364,0.388876,563.5643,104.72564,0.9162258,554.91895,106.11695,0.13940454,578.8585,122.08597,0.99716955,561.217,121.4214,0.9555095,579.97406,154.48117,0.995387,558.2924,150.3382,0.8218099,553.8825,166.13718,0.9880981,546.0716,163.61763,0.81372255,575.717,172.27975,0.99699545,564.2532,167.88622,0.9880918,539.93115,181.69165,0.99250895,526.18243,173.33217,0.9700982,545.42596,226.88806,0.9690934,533.60175,212.58095,0.92966706,1.09277797,0.6195178,0.74799036,-0.50087105,112.09972544355072,143.15240974261613,97.80364622104744,87.43633174615917,0.0634969829276779,170.082985,121.753685,110.71169,53.791630000000055,122.16242,0.4403287816308098,-177.84264037068098,0.8606374088235293,0.0,0.0,0.0,0.0,0.0,0.0,0.0,0.0,0.0,0.0,0.0,0.0,0.0,0.0,0.0,0.0,0.0,0.0,0.0,0.0,0.0,0.0,0.0,0.0,0.0,0.0,0.0,0.0,0.0,0.0,0.0,0.0,0.0,0.0,0.0,0.0,0.0,0.0,0.0,0.0,0.0,0.0,0.0,0.0,0.0,0.0,0.0,0.0,0.0,0.0,0.0,0.0,0.0,0.0,0.0,0.0,0.0,0.0,0.0,0.0,0.0,0.0,0.0,0.0,0.0,0.0,0.0,0.0,0.0,0.0,0.0,0.0,0.0,0.0,0.0,0.0,0.0,0.0,0.0,0.0,0.0,0.0,0.0,0.0,0.0,0.0,0.0,0.0,0.0,0.0,0.0,0.0,0.0,0.0,0.0,0.0,0.0,0.0,0.0,0.0,0.0,0.0,0.0,0.0,170.082985,0.0,121.753685,0.0,110.71169,0.0,0.0,-0.50087105,0.0,0,0
1,33.333333333333336,549.85284,110.91877,0.88592035,552.714,106.839264,0.8993412,548.95044,107.48206,0.40485147,563.96814,104.86403,0.9211228,554.7246,106.14513,0.14150064,579.17346,122.03323,0.9972792,561.326,121.34047,0.95533854,579.5123,154.21867,0.9954733,558.8014,150.37195,0.81602764,552.71497,165.8617,0.98828274,546.7645,163.61386,0.80940026,576.15875,172.11069,0.996888,564.5259,167.54062,0.987399,539.96796,181.42401,0.992273,526.3234,172.26596,0.96844506,544.5872,227.51828,0.9681599,533.6907,211.92691,0.926685,1.09211004,0.63671298,0.73325164,-0.49964282,112.88103615322702,142.6991363708388,98.70867113486564,86.52805791495781,0.1108253559542281,169.82565499999998,121.68685,110.91877,53.18889999999999,122.65425,0.4336490546911414,-177.77714542564445,0.8620228294117647,0.1805400000000645,0.2070799999999906,0.2747304460740007,0.1805400000000645,0.2070799999999906,0.2747304460740007,0.2695400000000063,0.2290739999999971,0.3537325388990983,0.2695400000000063,0.2290739999999971,0.3537325388990983,0.0602399999999079,0.1446960000000103,0.1567347760262281,0.0602399999999079,0.1446960000000103,0.1567347760262281,0.4038399999999456,0.1383900000000011,0.4268940591059523,0.4038399999999456,0.1383900000000011,0.4268940591059523,-0.1943499999999858,0.0281799999999918,0.1963823691169704,-0.1943499999999858,0.0281799999999918,0.1963823691169704,0.3149599999999282,-0.05274,0.319345125530287,0.3149599999999282,-0.05274,0.319345125530287,0.1090000000000372,-0.0809300000000092,0.1357595849286879,0.1090000000000372,-0.0809300000000092,0.1357595849286879,-0.4617600000000266,-0.2624999999999886,0.5311577426716273,-0.4617600000000266,-0.2624999999999886,0.5311577426716273,0.5089999999999009,0.0337499999999977,0.5101176947527883,0.5089999999999009,0.0337499999999977,0.5101176947527883,-1.167530000000056,-0.2754799999999875,1.1995897345760025,-1.167530000000056,-0.2754799999999875,1.1995897345760025,0.6929000000000087,-0.0037700000000029,0.692910256021667,0.6929000000000087,-0.0037700000000029,0.692910256021667,0.44175000000007,-0.1690600000000017,0.4729950804184568,0.44175000000007,-0.1690600000000017,0.4729950804184568,0.2726999999999862,-0.3456000000000188,0.4402324953930655,0.2726999999999862,-0.3456000000000188,0.4402324953930655,0.0368099999999458,-0.2676400000000001,0.2701594819731413,0.0368099999999458,-0.2676400000000001,0.2701594819731413,0.1409700000000384,-1.066209999999984,1.075488867910764,0.1409700000000384,-1.066209999999984,1.075488867910764,-0.8387599999999793,0.6302200000000084,1.0491404033779157,-0.8387599999999793,0.6302200000000084,1.0491404033779157,0.0889499999999543,-0.6540400000000091,0.6600609245365185,0.0889499999999543,-0.6540400000000091,0.6600609245365185,-0.2573300000000245,-0.2573300000000245,169.95432,0.1819597880027516,121.7202675,0.0472594817206162,110.81523,0.1464276722481036,0.0012282299999999,-0.500256935,0.0008684897618567,0,0
2,66.66666666666667,549.841,110.79956,0.8937435,552.74603,106.66383,0.90879107,548.82666,107.368706,0.42058516,563.95386,104.50401,0.92665714,554.4388,105.91484,0.14362921,578.85455,121.69716,0.99741095,561.3542,121.20207,0.95455277,578.678,154.08226,0.9956104,558.6139,150.45737,0.8053259,551.326,166.2606,0.9885196,546.012,164.5458,0.801029,576.2209,171.93298,0.9967129,564.925,167.50839,0.98623115,538.9607,180.48071,0.9918601,526.54614,171.71436,0.9655109,544.1111,226.72884,0.9666707,534.7929,211.51337,0.9215124,1.07233756,0.63794121,0.70991532,-0.48883442,114.31312741759416,143.5390166988362,96.56592817684395,84.54753236295707,0.5562840882578362,169.720685,121.449615,110.79956,52.30840999999998,122.22483,0.4279687652012379,-178.37951792548867,0.8626089911764705,-0.0118400000000065,-0.1192099999999953,0.1197965345909432,-0.192380000000071,-0.326289999999986,0.3787812409558031,0.0320299999999633,-0.1754339999999956,0.1783339823365028,-0.2375100000000429,-0.4045079999999927,0.4690817862207129,-0.1237800000000106,-0.113354000000001,0.167841048960029,-0.1840199999999185,-0.2580500000000114,0.3169434695651196,-0.0142799999999851,-0.3600200000000058,0.3603030929648034,-0.4181199999999307,-0.4984100000000069,0.6505665703830384,-0.2857999999999947,-0.2302899999999965,0.3670355896912388,-0.0914500000000089,-0.2584699999999884,0.2741711935999033,-0.3189099999999598,-0.3360700000000065,0.4632997226418107,-0.633869999999888,-0.2833300000000065,0.6943104966798801,0.0281999999999698,-0.1383999999999901,0.1412437609241397,-0.0808000000000674,-0.0574699999999808,0.0991536227276073,-0.8342999999999847,-0.1364100000000121,0.8453781272897813,-0.3725399999999581,0.1260899999999765,0.3932998089243915,-0.1875,0.0854199999999991,0.2060408367290325,-0.6964999999999009,0.0516700000000014,0.6984139452358193,-1.388969999999972,0.3988999999999976,1.4451155216452145,-0.2214399999999159,0.6743799999999851,0.709805648047367,-0.7525000000000546,0.9319400000000256,1.197818188875144,-1.4454000000000633,0.9357100000000288,1.72184040029854,0.0621499999999741,-0.1777100000000189,0.1882643529721001,-0.3796000000000958,-0.0086500000000171,0.3796985416090942,0.3990999999999758,-0.0322299999999984,0.4003992793449815,0.1263999999999896,0.3133700000000203,0.3379019338506516,-1.0072599999999738,-0.943300000000022,1.3799955063694913,-1.0440699999999197,-0.6756600000000219,1.2436231746392723,0.2227400000000443,-0.5516000000000076,0.5948744973521963,0.0817700000000059,0.5146099999999763,0.5210660082945121,-0.4761000000000877,-0.7894400000000132,0.9218930109291992,0.3626599999998916,-1.4196600000000217,1.465249736802564,1.102200000000039,-0.4135399999999833,1.17722562476361,1.0132500000000846,0.2405000000000257,1.0414008894274018,-0.1049699999999802,0.1523600000000442,169.87644166666666,0.1864129465282261,121.63005,0.1597946220152669,110.81000666666668,0.1039345045369071,0.0108083999999999,-0.4964494299999999,0.0066233239546545,0,0
3,100.0,549.09937,110.88632,0.8829704,551.8788,106.73264,0.90070355,548.1628,107.52718,0.38891324,562.8048,104.39935,0.92440426,554.02606,105.88692,0.13385466,577.9487,121.432785,0.99728036,561.2869,120.932556,0.9510365,577.9153,154.15073,0.99562055,558.2933,149.9226,0.797445,549.2072,166.49794,0.9886318,544.73737,164.51433,0.79702306,576.62555,172.03082,0.9965193,566.0442,167.77043,0.9852584,537.2532,179.58931,0.9913515,526.6669,171.91534,0.96282035,543.23566,225.52759,0.96445006,536.04803,211.98918,0.9155674,1.06718851,0.63229136,0.70205467,-0.49620379,113.33078807009018,143.0031045564024,93.44735020613834,82.83344420421544,2.0186001110238667,169.900625,121.1826705,110.88632,51.281799999999976,121.12824,0.4233678255098245,-178.2803536271665,0.8572853170588236,-0.7416299999999865,0.0867599999999981,0.7466875882857433,-0.72978999999998,0.2059699999999935,0.7582988098368401,-0.8672300000000632,0.0688099999999991,0.8699555672562304,-0.8992600000000266,0.2442439999999948,0.9318388697280476,-0.6638599999999997,0.1584739999999982,0.682513082860687,-0.540079999999989,0.2718279999999993,0.6046295295335712,-1.149059999999963,-0.1046599999999955,1.153816536196251,-1.134779999999978,0.2553600000000102,1.1631570736577048,-0.4127399999999852,-0.0279199999999946,0.4136832532264117,-0.1269399999999905,0.2023700000000019,0.2388877989768384,-0.9058499999999868,-0.2643750000000011,0.9436410139056994,-0.5869400000000269,0.0716950000000054,0.5913025762036154,-0.0673000000000456,-0.2695140000000009,0.2777896437882569,-0.0955000000000154,-0.1311140000000108,0.1622070621027512,-0.7626999999999953,0.0684700000000191,0.7657672171750338,0.0715999999999894,0.2048800000000312,0.2170308144020367,-0.3205999999998994,-0.5347700000000088,0.6235088715487094,-0.1330999999998994,-0.620190000000008,0.6343116316921701,-2.1188000000000784,0.237339999999989,2.1320515274261846,-0.7298300000001063,-0.1615600000000085,0.7474981354492852,-1.2746299999998882,-0.0314700000000129,1.275018430376485,-0.5221299999998337,-0.9634100000000388,1.095800422065944,0.4046499999999469,0.0978400000000192,0.4163103266794625,0.3424999999999727,0.2755500000000381,0.4395839538700228,1.1192000000000917,0.2620400000000131,1.149466659629679,0.7201000000001159,0.2942700000000116,0.777906705781724,-1.7074999999999818,-0.891399999999976,1.9261750206042791,-0.700240000000008,0.051900000000046,0.7021607135122385,0.1207600000000184,0.200979999999987,0.2344694820227128,-0.1019800000000259,0.7525799999999947,0.7594580810024983,-0.8754399999999123,-1.2012499999999875,1.4864039680045988,-0.3993399999998246,-0.4118099999999742,0.5736374392417555,1.2551300000000083,0.4758099999999956,1.3422915007553375,0.1529299999999693,0.889349999999979,0.902402907464262,0.1799399999999877,0.284909999999968,169.8824875,0.1526850772832801,121.518205125,0.2589594274625453,110.829085,0.0930457881905433,-0.0073693699999999,-0.49638802,0.00540931587399,0,0
4,133.33333333333334,549.80634,113.64451,0.89399534,552.3475,109.36963,0.90729475,548.35425,110.36781,0.43465334,562.4492,105.48671,0.9221616,553.44324,107.496155,0.1553432,577.4867,121.130875,0.9971199,561.2665,120.85492,0.9537742,577.5165,153.94424,0.9951338,558.7887,149.39505,0.8057019,548.78925,166.32355,0.98762953,545.1081,164.66202,0.8033488,577.1072,171.91211,0.9961119,566.9781,167.94568,0.984496,536.7118,179.65009,0.9903398,527.682,172.9662,0.960825,542.43506,224.13568,0.961422,536.6138,212.01477,0.91154516,1.10185975,0.67405109,0.71040661,-0.50504702,113.26041729573951,143.098625876964,93.51291226311844,84.396795487336,3.118432440680035,169.928895,120.9928975,113.64451,49.834499999999935,118.64897,0.4200162848441385,-179.02531832961046,0.8624056599999999,0.7069699999999557,2.758189999999999,2.8473529210478863,1.4485999999999422,2.671430000000001,3.038911022866553,0.4687000000000125,2.6369899999999973,2.6783196131343248,1.3359300000000758,2.568179999999998,2.8948674369131644,0.1914500000000316,2.8406300000000044,2.8470742700885125,0.8553100000000313,2.682156000000006,2.8152292987314707,-0.3555999999999812,1.087360000000004,1.1440293394839116,0.7934599999999818,1.1920199999999994,1.4319533693524973,-0.5828200000000834,1.6092349999999982,1.7115245945136432,-0.1700800000000981,1.6371549999999928,1.6459658867743918,-0.4619999999999891,-0.3019099999999923,0.5519000345171082,0.4438499999999976,-0.0375349999999912,0.445434281039299,-0.020399999999995,-0.0776359999999982,0.0802714675086953,0.0469000000000505,0.1918780000000026,0.1975266485414202,-0.3988000000000511,-0.2064900000000022,0.4490874748866213,0.3638999999999441,-0.2749600000000214,0.4560989055018342,0.4953999999999041,-0.5275499999999909,0.7236920356753246,0.8159999999998035,0.0072200000000179,0.8160319407962409,-0.4179499999999052,-0.1743899999999882,0.4528731330073762,1.7008500000001732,-0.4117299999999773,1.7499749470779775,0.3707299999999804,0.1476900000000114,0.3990652440391031,1.6453599999998687,0.1791600000000244,1.655085446495007,0.4816500000000587,-0.1187099999999929,0.4960632889058158,0.0770000000001118,-0.2165500000000122,0.2298323356275668,0.9338999999999942,0.1752500000000054,0.9502009116497367,-0.1853000000000975,-0.0867900000000077,0.204618166593383,-0.5413999999999533,0.060779999999994,0.5448010356083666,1.1661000000000286,0.95217999999997,1.5054686852937225,1.0150999999999613,1.05086,1.461073149982547,0.8943399999999428,0.8498800000000131,1.233750400202537,-0.8006000000000313,-1.3919099999999958,1.6057315492011852,0.074839999999881,-0.1906600000000082,0.2048225114580556,0.5657699999999295,0.025589999999994,0.5663484272070684,-0.6893600000000788,-0.4502200000000016,0.8233560942873442,0.0282700000000204,-0.1516699999999673,169.891769,0.1338479765629689,121.41314359999998,0.3247839419990229,111.39217,1.2616721940147546,-0.00884323,-0.49811982,0.0060779256221551,0,0
5,166.66666666666666,547.39185,112.15888,0.8590553,549.7422,107.91498,0.87423515,546.3587,109.04374,0.35190862,559.817,105.16371,0.90882033,552.18274,107.34166,0.1299061,576.3489,121.40144,0.99661094,559.6299,121.70973,0.94840467,577.2097,153.51189,0.9948695,556.7559,150.00168,0.8059274,547.56793,165.87286,0.98730266,543.74207,164.55946,0.8049579,577.6892,172.06,0.9959571,567.296,168.302,0.984322,535.6686,179.30878,0.98989457,527.02136,172.59933,0.95991105,542.981,224.71585,0.95906395,538.1354,212.16553,0.9078085,1.0940006,0.67699883,0.69296579,-0.50824041,111.10112856558628,144.0055091319839,90.63907995916442,80.4005420860353,5.291083135897365,170.18099999999998,121.555585,112.15888,50.66784000000007,119.55214,0.4238137399814535,178.94361419359072,0.850526808235294,-2.4144900000000007,-1.4856300000000005,2.834935353231182,-3.1214599999999564,-4.24382,5.268161038161203,-2.605299999999943,-1.4546500000000009,2.983889192396344,-3.0739999999999554,-4.091639999999998,5.117713736581962,-1.99554999999998,-1.324070000000006,2.394865584411772,-2.187000000000012,-4.1647000000000105,4.704008406667673,-2.632200000000012,-0.3230000000000075,2.651943785226238,-2.2766000000000304,-1.4103600000000114,2.6780632721427944,-1.260499999999979,-0.1544949999999971,1.2699326576732115,-0.6776799999998957,-1.7637299999999954,1.889442694367797,-1.137800000000084,0.2705649999999906,1.1695273657444645,-0.6758000000000948,0.572474999999983,0.8856823728770424,-1.6365999999999303,0.8548099999999863,1.846390992206079,-1.6161999999999352,0.9324459999999846,1.865893347143872,-0.3067999999999529,-0.4323500000000138,0.5301440959776719,0.0920000000000982,-0.2258600000000115,0.2438785345208209,-2.032799999999952,0.6066299999999956,2.1213853485163416,-2.528199999999856,1.1341799999999864,2.770949207834608,-1.2213199999999915,-0.4506900000000087,1.3018233438143545,-0.8033700000000863,-0.2763000000000204,0.8495557938712147,-1.3660300000000234,-0.102560000000011,1.3698746345925477,-1.736760000000004,-0.2502500000000225,1.7546966575736174,0.5819999999999936,0.1478899999999896,0.6004960050658035,0.1003499999999348,0.2665999999999826,0.2848608125031902,0.3179000000000087,0.3563199999999824,0.4775189550164402,-0.6159999999999854,0.1810699999999769,0.6420610133779918,-1.0432000000000698,-0.3413099999999929,1.0976150309193753,-0.5018000000001166,-0.4020899999999869,0.6430238005704816,-0.6606400000000576,-0.3668699999999774,0.7556710967742908,-1.6757400000000189,-1.4177299999999775,2.19500863335432,0.5459399999999732,0.5801699999999812,0.7966477970219644,1.3465400000000043,1.972079999999977,2.387942524015166,1.521600000000035,0.1507599999999911,1.5290504038782056,0.9558300000001054,0.1251699999999971,0.9639909324263382,0.2521049999999718,0.2238349999999513,169.91137199999997,0.170902565794067,121.3735236,0.282139513911864,111.681608,1.23219177840546,-0.0031933899999999,-0.499593692,0.0076118378455383,0,0
6,200.0,545.91956,113.07982,0.85957503,548.12463,108.779076,0.87645054,544.79565,110.04935,0.3489742,557.9094,105.61333,0.9120858,550.5553,108.13089,0.12809867,575.28564,121.402954,0.99685574,558.2165,121.96573,0.9483055,577.28754,153.14468,0.99526393,555.8744,149.70592,0.80342853,547.0977,165.65201,0.9880746,543.43555,165.06863,0.8034924,577.5952,172.14044,0.9962857,567.06085,168.50664,0.98507893,535.17365,178.8427,0.9908454,526.73944,172.1181,0.9622874,544.21094,223.96309,0.96326494,539.4364,211.07533,0.9150652,1.09794378,0.6681556,0.68142045,-0.54287642,108.8949339327777,145.82969374463366,87.65199301892346,77.06629191777168,6.540961613814924,170.32354,121.684342,113.07982,50.85576000000003,118.34976,0.4297073316438724,178.11162053815525,0.8513783829411765,-1.47228999999993,0.9209400000000016,1.7365967660052222,0.9422000000000708,2.406570000000002,2.5844380443144974,-1.6175700000000006,0.8640960000000035,1.833901470122102,0.9877299999999424,2.3187460000000044,2.5203558410303706,-1.5630499999999756,1.0056100000000043,1.8585953767832128,0.4325000000000045,2.3296800000000104,2.3694862633912974,-1.9076000000000024,0.4496200000000101,1.9598713999648083,0.7246000000000095,0.7726200000000176,1.0592387947956026,-1.627439999999979,0.7892299999999892,1.808713616496518,-0.3669399999999996,0.9437249999999864,1.0125521414845626,-1.063260000000014,0.0015140000000002,1.0632610779089158,0.07454000000007,-0.2690509999999904,0.2791856948359018,-1.4134000000000242,0.2560000000000002,1.4363967279272356,0.2231999999999061,-0.5988099999999861,0.6390552840716845,0.0778400000000374,-0.36721,0.3753694842418678,0.3846399999999903,0.0651400000000137,0.3901168404465441,-0.88149999999996,-0.2957600000000013,0.9297936478595292,1.151299999999992,-0.9023899999999968,1.4628053192752537,-0.470230000000015,-0.2208500000000128,0.5195103227078551,0.7510899999999765,0.2298399999999958,0.7854696771358922,-0.3065199999999777,0.5091700000000117,0.5943135530172589,1.0595100000000457,0.6117300000000228,1.2234275757069253,-0.0940000000000509,0.08044000000001,0.1237198189459198,-0.6760000000000446,-0.0674499999999795,0.6793566828257874,-0.2351500000000896,0.2046400000000119,0.3117259246518439,-0.5530500000000984,-0.1516799999999705,0.5734728632639037,-0.4949500000000171,-0.4660800000000051,0.6798573886485472,0.5482500000000528,-0.1247700000000122,0.5622682770707066,-0.2819200000000137,-0.4812300000000107,0.5577286072096518,0.3787200000000439,-0.1143600000000333,0.3956097167664628,1.229940000000056,-0.752759999999995,1.4420124899598237,0.6840000000000828,-1.3329299999999762,1.4981850302616329,1.3010000000000446,-1.0901999999999816,1.697391245411639,-0.2205999999999903,-1.2409599999999728,1.2604150433884578,0.1425400000000252,-0.1095649999999466,170.010949,0.2396809908346666,121.373022,0.281444580721716,112.113818,1.275953944827168,-0.03463601,-0.5082404119999999,0.0208045884200858,0,0
7,233.3333333333333,543.1007,112.486244,0.87367916,545.46356,107.99687,0.8782384,542.6887,109.31217,0.3995025,555.8248,105.60275,0.9057674,549.7272,107.921326,0.16907044,574.2252,121.79744,0.9956072,556.6746,122.83365,0.9610825,576.8888,153.71117,0.99167985,552.86,150.81775,0.83482116,544.9754,165.97827,0.98234266,540.8892,166.09213,0.8297828,578.2053,172.41307,0.99469674,567.0283,168.98164,0.9840612,535.5024,180.05261,0.9894946,525.69476,173.90279,0.9677178,545.4265,220.82239,0.96324944,541.1088,209.31413,0.9311584,1.11709869,0.62860668,0.73497116,-0.55908902,106.25512522850508,149.67590154039047,86.4621406764067,73.26685491394217,8.426078207007807,170.69735500000002,122.315545,112.486244,52.51053999999999,115.21964,0.4557429579215577,176.6211059652531,0.861879544117647,-2.818860000000086,-0.5935759999999988,2.880677727094179,-1.346570000000156,-1.5145160000000004,2.026575801482989,-2.661069999999995,-0.7822060000000022,2.773650982249926,-1.0434999999999943,-1.6463020000000057,1.9491543102597104,-2.1069499999999834,-0.7371800000000093,2.2321901027690148,-0.5439000000000078,-1.7427900000000136,1.8256900597034689,-2.084600000000023,-0.0105800000000044,2.084626848239295,-0.1770000000000209,-0.4602000000000146,0.4930649450123389,-0.8280999999999494,-0.2095640000000003,0.8542052915405737,0.7993400000000292,-0.9987939999999896,1.2792708431118196,-1.0604399999999714,0.3944860000000005,1.1314381104576334,0.0028200000000424,0.3929720000000003,0.3929821181478878,-1.5418999999999414,0.8679200000000122,1.7693899333950789,-0.1284999999999172,0.611920000000012,0.6252666122543195,-0.3987400000000889,0.5664900000000159,0.6927514039683276,-0.4765800000001263,0.933700000000016,1.048295848699283,-3.0144000000000237,1.1118299999999977,3.2129072985226537,-2.1329000000000637,1.407589999999999,2.555498389375401,-2.122299999999996,0.3262600000000191,2.14723144481446,-1.6520699999999806,0.547110000000032,1.7403059032825152,-2.546350000000075,1.0234999999999843,2.7443488430774154,-2.239830000000097,0.5143299999999726,2.298123969197573,0.6100999999999885,0.2726299999999924,0.6682433141453656,0.7041000000000395,0.1921899999999823,0.7298587576374272,-0.0325500000000147,0.4749999999999943,0.476113959572701,0.2026000000000749,0.2703599999999824,0.3378480273732863,0.3287500000000136,1.2099099999999794,1.2537777995322612,0.8237000000000307,1.6759899999999843,1.8674646369074837,-1.0446799999999712,1.784690000000012,2.0679639016433486,-0.7627599999999575,2.2659200000000226,2.390856805415171,1.2155599999999822,-3.140699999999981,3.36772662245614,-0.0143800000000737,-2.387939999999986,2.3879832972615063,1.672399999999925,-1.7612000000000023,2.428733661808095,0.3713999999998805,-0.6710000000000207,0.7669282626164842,0.3738150000000075,0.2312749999999823,170.206283,0.3263093083371601,121.546208,0.5121914615089028,112.4511548,1.0433935414095756,-0.0162126,-0.522291332,0.0271715395364261,0,0
8,266.6666666666667,542.2096,114.541885,0.9072407,544.7624,109.91181,0.9116134,541.2411,111.37205,0.49778628,554.7287,106.10898,0.9191916,546.9303,108.85431,0.20325021,572.4402,121.06023,0.9962929,554.11945,123.005844,0.96504205,576.3541,152.69888,0.99210745,551.73804,150.78865,0.8328158,545.95325,166.99309,0.9826422,540.3601,166.94736,0.8251313,576.80884,172.05908,0.9948695,565.2349,169.30176,0.98407525,535.26953,179.39333,0.98993427,525.2265,174.47008,0.9680893,546.81903,219.10379,0.96610594,542.34827,209.03017,0.934845,1.14242014,0.66078623,0.72907566,-0.58046017,108.130472397805,149.74836651058666,83.7963508250115,71.00600604163817,9.04257850572236,170.68042,122.033037,114.541885,51.582340000000045,112.99481,0.4565018476821917,173.93806392093595,0.8747666558823529,-0.8910999999999376,2.0556409999999943,2.2404729703526587,1.9277600000001485,2.649216999999993,3.2763713664188825,-0.7011600000000726,1.9149400000000012,2.039269611699274,1.9599099999999223,2.697146000000004,3.3340431541021958,-1.4476000000000795,2.059880000000007,2.51766784433536,0.659349999999904,2.797060000000016,2.873723554223677,-1.0960999999999783,0.5062300000000022,1.2073541414597273,0.9885000000000446,0.5168100000000067,1.1154482624039963,-2.7969000000000506,0.9329840000000048,2.948407833773389,-1.9688000000001007,1.142548000000005,2.276310473618309,-1.7849999999999682,-0.7372099999999904,1.93124405089048,-0.7245599999999968,-1.131695999999991,1.343771941222161,-2.555150000000026,0.1721939999999904,2.560945586328637,-1.0132500000000846,-0.6957260000000218,1.2291095270870702,-0.5346999999999298,-1.0122900000000072,1.1448297402233834,-0.1359599999998408,-1.5787800000000232,1.5846234284523342,-1.1219600000000582,-0.0290999999999996,1.1223373163181072,1.892439999999965,-1.1409299999999971,2.209762525363271,0.9778499999999894,1.014819999999986,1.4092729525893666,3.100149999999985,0.688559999999967,3.175695970350415,-0.5290999999999713,0.8552300000000059,1.005666526687639,2.017250000000104,-0.1682699999999783,2.0242560004605177,-1.3964599999999336,-0.3539900000000102,1.4406281448381544,-2.006559999999922,-0.6266200000000026,2.1021264609912724,-1.793399999999906,0.3201200000000028,1.8217465176032763,-1.7608499999998912,-0.1548799999999914,1.7676483069037274,-0.2328699999999344,-0.6592799999999954,0.6991985092232129,-0.561619999999948,-1.8691899999999748,1.9517398086066309,-0.4682599999999866,0.5672899999999856,0.7355850540216075,0.5764199999999846,-1.2174000000000262,1.3469679938291208,1.3925299999999652,-1.7186000000000092,2.2119506687310944,0.1769699999999829,1.422099999999972,1.433069011213317,1.239469999999983,-0.2839600000000075,1.2715813629099642,-0.4329299999999421,1.4772399999999948,1.539372080589983,-0.0169350000000179,-0.3907500000000254,170.362242,0.3300280640452565,121.7162813,0.5023889671959416,113.1822678,0.9492752568508274,-0.02137115,-0.539142608,0.0325438035409426,0,0
9,300.0,540.2161,114.47424,0.92115694,542.2117,110.53988,0.94567114,539.6563,111.42183,0.36823598,552.6993,107.572365,0.9392049,543.4019,109.5484,0.040774506,571.05646,121.21225,0.994507,551.5763,121.328186,0.9684733,575.3165,152.1608,0.9943422,553.5686,150.1541,0.7885699,543.71497,167.2985,0.9904454,539.7311,167.32341,0.8404064,579.0244,171.37625,0.9917243,565.1787,169.05559,0.97875357,531.4471,177.58945,0.9825858,522.46716,174.91483,0.9284785,550.24884,219.31088,0.9451921,547.2931,214.97412,0.849908,1.09780225,0.63966072,0.68461384,-0.57210823,107.75779667128155,137.17943117279674,73.18156465266976,66.02344157356615,12.426532817844642,170.21591999999998,121.270218,114.47424,56.55723999999998,111.738515,0.5061570712107899,179.6590087007873,0.8510841138823529,-1.99350000000004,-0.0676449999999988,1.9946473613210831,-1.1024000000001024,-2.123285999999993,2.3924107502258463,-2.550700000000006,0.6280699999999939,2.6268883521954307,-1.8495399999999336,-1.2868700000000075,2.2531827729901925,-1.584799999999973,0.0497799999999983,1.585581624641227,-0.1371999999998934,-2.0101000000000084,2.0147768735023748,-2.0294000000000096,1.4633850000000024,2.50199121066103,-0.9333000000000312,0.9571550000000002,1.3368599717341598,-3.5284000000000333,0.6940900000000028,3.596021063356031,-0.7314999999999827,-0.2388940000000019,0.7695210154609006,-1.3837399999999889,0.1520199999999931,1.3920655401237283,0.4012599999999793,0.8892299999999835,0.9755714123015056,-2.5431500000000824,-1.677657999999994,3.0466618268958565,0.0119999999999436,-1.8498519999999845,1.8498909216232025,-1.0375999999999976,-0.5380800000000079,1.1688215631138927,-0.5029000000000678,0.4742099999999993,0.6912188756827085,1.8305599999999915,-0.6345499999999902,1.937421899354902,2.952520000000049,-0.6054499999999905,3.013958203575537,-2.238280000000032,0.3054099999999948,2.259020280232149,-3.216130000000021,-0.7094099999999912,3.293441167684664,-0.6290000000000191,0.3760499999999922,0.7328400934037508,-0.0999000000000478,-0.4791800000000137,0.4894828724276496,2.215559999999982,-0.6828299999999956,2.3183966275208205,3.612019999999916,-0.3288399999999853,3.6269579851439393,-0.0561999999999898,-0.2461700000000064,0.2525036809632723,1.737199999999916,-0.5662900000000093,1.827169451391884,-3.822430000000054,-1.8038799999999924,4.226695418326282,-3.5895600000001195,-1.144599999999997,3.767631902614805,-2.759339999999952,0.4447499999999991,2.7949525573969467,-2.2910799999999654,-0.1225399999999865,2.2943547280226397,3.429809999999975,0.2070899999999937,3.436056301081201,2.0372800000000097,1.925690000000003,2.803353665611967,4.9448300000000245,5.943950000000001,7.731874632416142,3.7053600000000415,6.2279100000000085,7.246830734721241,-0.4645000000000152,-0.4475649999999973,170.419647,0.2514050155525119,121.7717454,0.4092327305462074,113.34821379999998,1.1093160046407866,0.00835194,-0.55255485,0.0285533646489087,0,0
10,333.3333333333333,536.9395,115.91341,0.9065369,538.4838,112.042786,0.9366959,536.74677,112.89317,0.3033129,548.682,108.40414,0.9379114,542.0154,110.19283,0.034267657,567.737,120.925476,0.99449944,551.1187,120.941345,0.9663559,573.2345,151.73804,0.9949285,553.99316,149.83159,0.78648484,543.4129,168.24257,0.9911464,539.8485,167.15689,0.84001994,579.1127,170.89667,0.99251115,567.0404,168.74196,0.98022664,532.49365,179.48264,0.9837931,524.37964,177.03654,0.93158126,552.15405,221.06024,0.94534045,547.7594,216.79933,0.8484867,1.18316701,0.66201446,0.77820475,-0.59667277,108.84586664594994,135.08924102101827,75.12778337438523,70.54809223348298,15.599471511588844,169.81931500000002,120.9334105,115.91341,54.73306000000002,112.6561,0.4858419518708536,179.945287637801,0.8455352398235294,-3.2766000000000304,1.4391700000000045,3.5787313183445626,-1.2830999999999904,1.5068150000000031,1.9791000617010208,-3.727899999999977,1.50290600000001,4.01944832717574,-1.1771999999999707,0.8748360000000162,1.466675787928593,-2.909530000000018,1.471339999999998,3.2603997019537494,-1.324730000000045,1.4215599999999995,1.943126966129624,-4.0172999999999774,0.8317749999999933,4.102505202997896,-1.987899999999968,-0.6316100000000091,2.085827797805917,-1.3864999999999554,0.6444299999999998,1.528944824020761,2.141900000000078,-0.0496600000000029,2.1424756067690325,-3.319460000000049,-0.2867739999999941,3.331824427948796,-1.9357200000000605,-0.4387939999999872,1.9848304947365716,-0.4575999999999567,-0.386841000000004,0.5992025694879516,2.0855500000001257,1.29081699999999,2.4526979695815583,-2.0819999999999936,-0.4227599999999825,2.1244881777971747,-1.044399999999996,0.1153200000000254,1.0507473827709484,0.4245600000000422,-0.3225099999999941,0.5331640401415234,-1.405999999999949,0.3120399999999961,1.440210040792611,-0.3020699999999578,0.9440700000000106,0.991218669013046,1.9362100000000737,0.6386600000000158,2.038822150090661,0.117399999999975,-0.1665199999999913,0.2037441297313649,0.7463999999999942,-0.5425699999999836,0.9227649564759022,0.0883000000000038,-0.4795799999999985,0.4876411245988173,-2.1272599999999784,0.203249999999997,2.136947746225889,1.861699999999928,-0.3136299999999892,1.8879329084741665,1.9178999999999176,-0.0674599999999827,1.9190860485136365,1.0465500000000247,1.893190000000004,2.163200240061023,4.868980000000079,3.697069999999997,6.113533579305894,1.9124799999999595,2.1217100000000078,2.856437129449881,4.671819999999912,1.6769600000000082,4.963677764923827,1.905210000000011,1.7493599999999958,2.586519969708339,-1.524599999999964,1.542270000000002,2.168640567936489,0.4663000000000465,1.8252099999999984,1.8838331226783431,-4.478529999999978,-4.1187400000000025,6.084509031014731,-0.3966049999999654,0.0678950000000497,170.34731,0.3640401211232837,121.6473105,0.5586916804779242,114.0991198,1.3480305583610366,-0.0245645399999999,-0.570241322,0.0204923360349245,0,0
11,366.6666666666666,534.2973,117.94574,0.8664788,536.3106,113.58423,0.87998873,533.1176,115.05787,0.38765267,545.1338,108.60873,0.9088087,538.2701,111.43032,0.15961908,564.24585,120.64276,0.9960079,546.67786,123.07272,0.9529911,571.066,151.94397,0.9928537,547.8917,150.61905,0.8024797,541.53937,168.47621,0.983377,538.021,168.66586,0.8002958,575.69257,169.00084,0.99564844,564.555,167.09381,0.9849686,535.70514,181.38913,0.99171656,525.9241,177.68294,0.9707192,551.36096,219.3192,0.9720794,546.43005,210.31915,0.9423312,1.17714927,0.66741866,0.69419401,-0.67699883,106.95294665061452,148.80042315187268,84.7845974895157,73.1869259159495,17.610969757200742,168.047325,121.85774,117.94574,49.76847000000009,110.71047,0.4495371535362729,172.12495985649315,0.8581186223529411,-2.6422000000000025,2.0323300000000017,3.333404576240337,0.6344000000000278,0.5931599999999975,0.8685056969300963,-2.173199999999952,1.5414439999999985,2.664366312115469,1.5547000000000253,0.0385379999999884,1.5551775678179254,-3.629169999999931,2.1646999999999963,4.225730821869689,-0.719639999999913,0.6933599999999984,0.9993146747645972,-3.5482000000000653,0.204589999999996,3.5540934579862222,0.4690999999999121,-0.6271849999999972,0.7832086785939709,-3.745300000000043,1.237489999999994,3.9444459167417047,-2.3588000000000875,0.5930599999999941,2.432212491457193,-3.491149999999948,-0.2827160000000077,3.502578572873939,-0.1716899999998986,0.0040579999999863,0.1717379499818403,-4.44083999999998,2.1313750000000056,4.925831837996994,-3.983240000000024,2.5182160000000096,4.712495381457284,-2.1684999999999945,0.205929999999995,2.178256048975872,-0.0865000000000009,0.6286899999999775,0.6346127686234905,-6.101459999999975,0.7874599999999816,6.152065294126815,-6.526020000000017,1.1099699999999757,6.619740964818802,-1.8735300000000732,0.2336400000000082,1.888041924984792,-1.5714600000001155,-0.7104300000000023,1.7245861290467248,-1.8274999999999864,1.508970000000005,2.369967660306774,-1.9448999999999612,1.6754899999999964,2.5670805889375266,-3.420129999999972,-1.8958299999999892,3.910429721373313,-3.508429999999976,-1.416249999999991,3.783496415671595,-2.485400000000027,-1.648150000000015,2.9822158846234097,-4.347099999999955,-1.334520000000026,4.547331309724384,3.211490000000026,1.906489999999991,3.7347519516294696,2.1649400000000014,0.0132999999999867,2.164980852940738,1.5444599999999582,0.6463999999999999,1.6742728725031266,-0.3680200000000013,-1.4753100000000074,1.520519094421383,-0.7930900000000065,-1.741039999999998,1.9131680610181647,-2.698300000000017,-3.490399999999994,4.411770058604602,-1.3293499999999767,-6.48017999999999,6.615126926590284,-1.7956500000000233,-8.305389999999989,8.497285565084882,-1.7719900000000166,-1.3753850000000511,169.892067,1.0935305072596193,121.6819901,0.5668865504971419,115.0723038,2.018094703958945,-0.08032606,-0.597065804,0.0467180554623475,0,0
12,400.0,532.2096,117.717995,0.9057107,533.91296,113.5988,0.9358457,530.6543,114.89414,0.3420043,543.14496,109.74099,0.9329137,533.4272,112.719696,0.041575328,561.99146,121.39081,0.99388313,541.9413,123.980515,0.9618461,568.0511,151.44615,0.9936045,546.7498,153.73103,0.75083697,541.1565,169.55212,0.9883945,536.97156,169.77802,0.804534,577.5184,169.1113,0.99110305,563.42126,168.80109,0.97633356,534.12085,179.93219,0.9813825,526.20276,179.20982,0.92325324,552.58905,220.37262,0.938068,550.5519,218.08426,0.8321446,1.152063,0.61263973,0.77402878,-0.59397067,112.55027164347418,139.46276939183556,79.4557543525576,73.56335841307913,21.796327769098017,168.95619499999998,122.6856625,117.717995,51.31564000000003,110.63163000000002,0.4638423888010837,172.64034752615697,0.8407902281176469,-2.087699999999927,-0.2277449999999987,2.100085492313276,0.5545000000000755,-2.2600750000000005,2.3271031897243164,-2.397640000000024,0.0145699999999919,2.3976842691438995,-0.2244400000000723,-1.5268740000000065,1.5432814148677008,-2.463300000000004,-0.163730000000001,2.468735385354214,1.1658699999999271,-2.3284299999999973,2.604004439665919,-1.988839999999982,1.1322600000000025,2.2885578981533183,1.5593600000000831,0.9276700000000062,1.8144352395443248,-4.842899999999986,1.2893760000000043,5.011603623529686,-1.097599999999943,0.0518860000000103,1.0988256990969387,-2.2543900000000576,0.7480500000000063,2.375258527950225,1.2367599999998902,1.030766000000014,1.6099856658851834,-4.736560000000054,0.907794999999993,4.82276812584075,-0.2957200000000739,-1.2235800000000123,1.258808299464249,-3.0149000000000115,-0.4978200000000186,3.055723607003763,-0.8464000000000169,-0.7037500000000136,1.100752934359045,-1.1418999999999642,3.111980000000017,3.314868795352242,4.95956000000001,2.3245200000000352,5.477282960008573,-0.3828699999999116,1.0759099999999933,1.1420033997322063,1.4906600000001615,0.842269999999985,1.7121582837169165,-1.049440000000004,1.1121599999999887,1.5291252987247264,0.7780599999999822,-0.3968100000000163,0.8734045681698632,1.8258299999999963,0.1104599999999891,1.8291682810774916,5.245959999999968,2.0062899999999786,5.616519908777995,-1.1337399999999889,1.7072799999999972,2.049431966667829,1.351660000000038,3.355430000000013,3.617443191053619,-1.58429000000001,-1.456940000000003,2.152358930963895,-4.795780000000036,-3.363429999999994,5.857658847466308,0.2786600000000589,1.5268800000000056,1.5520998453707964,-1.2657999999998992,0.8804800000000057,1.5419126662686686,1.2280900000000656,1.053420000000017,1.6179921954385923,2.021180000000072,2.794460000000015,3.4487933083906865,4.121849999999995,7.765109999999993,8.791278674607002,5.451199999999972,14.245289999999985,15.252667590428214,0.908869999999979,2.680859999999996,169.543835,1.0493183370109824,121.7560136,0.6826438542506442,116.118654,1.6679746601769443,0.08302816,-0.604042134,0.0419949540268909,0,0
13,433.33333333333337,526.36017,120.62103,0.8750556,528.02625,116.48912,0.91726965,525.26917,117.5684,0.25441447,537.85535,112.275635,0.9260066,529.5802,114.68355,0.0299677,556.96045,122.946655,0.9925217,539.9292,124.79651,0.94904214,564.57465,151.79839,0.99280304,545.36365,153.11009,0.7026988,541.0992,170.5368,0.98701906,534.80896,169.54684,0.7738686,575.4553,169.00693,0.99182326,563.3444,168.5211,0.9773607,535.52454,182.34554,0.985391,529.2149,181.44655,0.9376193,555.33624,220.17822,0.9539463,552.209,217.26254,0.86937714,1.04366006,0.57726678,0.65366251,-0.57333646,113.81358037807443,136.42877304189426,80.8320243591488,78.04184155030582,25.02236984447858,168.764015,123.8715825,120.62103,50.186129999999935,107.90258500000002,0.46510590580285,173.80109998601503,0.8303638270588235,-5.849429999999984,2.9030350000000027,6.53019475483885,-3.761730000000057,3.130780000000001,4.894118511162192,-5.886709999999994,2.8903200000000027,6.557995450326262,-3.4890699999999697,2.8757500000000107,4.521454138593009,-5.385130000000004,2.674260000000004,6.0125944204228565,-2.92183,2.837990000000005,4.073239225604117,-5.289609999999925,2.5346449999999976,5.865526338541512,-3.300769999999943,1.402384999999995,3.5863304757264927,-3.84699999999998,1.9638539999999975,4.319274422089413,0.995900000000006,0.6744779999999935,1.2028039667726422,-5.031009999999924,1.555845000000005,5.2660910820194,-2.776619999999866,0.8077949999999987,2.891738471304806,-2.0120999999999185,0.8159950000000009,2.1712655871690765,2.724460000000136,-0.0917999999999921,2.726006150323351,-3.47645,0.3522400000000232,3.494249221234801,-0.4615499999999883,0.8500600000000418,0.967279900597578,-1.3861500000000433,-0.6209399999999903,1.51887402575069,-0.2442500000000791,-3.732920000000007,3.7409022693596383,-0.0573000000000547,0.9846799999999972,0.986345777301247,0.3255699999998569,-0.0912299999999959,0.3381105407997599,-2.1625999999999976,-0.2311799999999948,2.174921366946398,-1.1131599999999937,-1.3433399999999835,1.744616731892693,-2.0631000000000768,-0.1043699999999887,2.065738295840089,-3.888930000000073,-0.2148299999999778,3.894859236711971,-0.0768600000000105,-0.2799899999999979,0.2903478253750154,1.0568799999999785,-1.9872699999999952,2.2508303772830005,1.4036899999999832,2.4133500000000083,2.791881773750456,2.987979999999993,3.8702900000000113,4.889495798597238,3.012139999999931,2.2367299999999943,3.751792701162947,2.733479999999872,0.7098499999999888,2.824145876703129,2.7471899999999323,-0.1944000000000016,2.754059595596949,1.519099999999867,-1.2478200000000186,1.965889000528677,1.6570999999999003,-0.8217199999999991,1.849649742086233,-2.4647500000000946,-8.586829999999992,8.933568268693106,-0.1921799999999791,-1.101049999999958,169.160554,0.8640092642616752,122.1237227,1.1818259624803376,117.334483,2.319619917560814,0.0206342099999999,-0.602617392,0.0431012894115329,0,0
14,466.6666666666667,521.97473,122.33203,0.8619426,523.8408,118.08545,0.88964456,520.77515,120.00142,0.37685817,532.8171,113.55064,0.92040086,526.0677,117.275955,0.14446878,553.01276,124.388824,0.99606764,536.831,129.22281,0.93953466,566.29395,152.79362,0.99288505,541.95544,154.59387,0.74369025,541.2825,170.663,0.98222363,535.14453,170.57996,0.7460768,572.0782,168.34157,0.9953047,561.8704,168.63239,0.98167545,536.51624,183.9339,0.990905,527.3523,185.04736,0.96413267,558.32837,217.94006,0.96945715,552.1759,214.9255,0.93199944,1.1306464,0.60035745,0.70524806,-0.64850396,100.48452050812672,145.50450160906286,80.99849942659839,75.71251504081079,27.882155744936664,168.48698,126.805817,122.33203,51.30304999999999,104.38942,0.4914583250729975,163.36750782593646,0.8486627888235294,-4.385440000000017,1.7109999999999983,4.707398962654445,1.463989999999967,-1.1920350000000042,1.887912646635144,-4.18545000000006,1.5963299999999947,4.4795380533488585,1.7012599999999338,-1.293990000000008,2.137450749771745,-4.494019999999978,2.433019999999999,5.110362225987489,0.891110000000026,-0.2412400000000047,0.9231867469261292,-5.038250000000062,1.2750050000000073,5.197076179211312,0.2513599999998632,-1.2596399999999903,1.284474514811371,-3.512500000000045,2.5924049999999994,4.365572119897381,0.3344999999999345,0.6285510000000016,0.7120158773517331,-3.94769000000008,1.4421689999999927,4.202868991612944,1.0833199999998442,-0.1136760000000123,1.0892678529065591,-3.09820000000002,4.426300000000012,5.402867287838951,-1.086100000000101,3.610305000000011,3.770134666431068,1.7192999999999756,0.9952299999999924,1.9865737446417389,5.195749999999975,0.6429899999999691,5.2353848189602745,-3.4082100000000537,1.483779999999996,3.717189595985165,-2.0220600000000104,2.104719999999986,2.9186594391946423,0.1833000000000311,0.1262000000000114,0.2225428722741177,0.2406000000000858,-0.8584799999999859,0.8915583381921887,0.3355700000000752,1.0331199999999967,1.086252346050421,2.498170000000073,1.2642999999999915,2.799876397075475,-3.377099999999928,-0.665360000000021,3.442020967338744,-1.3139999999998508,-0.5609900000000323,1.4287427270504809,-1.4739999999999327,0.1112899999999967,1.478195340305131,-1.397139999999922,0.3912799999999947,1.4508963498471483,0.9917000000000372,1.5883599999999944,1.872526736684968,-0.4119899999999461,-0.8249900000000139,0.9221411281360238,-1.8625999999999292,3.600809999999996,4.054024101568675,-4.874739999999861,1.3640800000000013,5.06199608000625,2.992129999999974,-2.238160000000022,3.736603019120434,0.2449400000000423,-2.04376000000002,2.0583854209550023,-0.0330999999999903,-2.337040000000002,2.337274389454522,-1.690199999999891,-1.5153200000000029,2.2700155819728725,-0.2770350000000121,-0.0848550000000329,168.814766,0.6572872031540201,123.2308425,2.272213454199476,118.906041,2.547943264140659,-0.0751674999999999,-0.617896538,0.0431230542754588,0,0
15,500.0,516.639,124.3871,0.64404166,516.885,120.52429,0.7436657,516.70703,121.378006,0.07636608,524.24603,116.66847,0.8769721,526.1909,117.91081,0.019485557,543.21356,125.78003,0.9867932,539.2744,126.64017,0.9136419,555.75085,153.46477,0.9901693,545.94037,154.51486,0.6422413,536.71405,171.7196,0.9805468,530.54205,170.32101,0.71213347,572.4919,165.48492,0.99158645,568.7891,165.22202,0.97737074,533.92145,184.01445,0.9876599,533.33014,183.52274,0.94847095,557.9985,218.43127,0.9622167,556.9632,215.75003,0.89345556,1.33398253,0.5870926,0.98086224,-0.68756159,109.43490430005497,122.29962454472432,80.68440868103578,81.04519913508113,36.906409706595504,165.35347,126.2101,124.3871,55.85289999999998,101.7628,0.5488537997298244,167.68244731748865,0.7851069039411764,-5.335730000000012,2.0550700000000006,5.717807913685116,-0.9502899999999954,0.3440700000000021,1.010660798190962,-6.955799999999954,2.438839999999999,7.370962907626069,-2.770349999999894,0.8425100000000043,2.895628122290468,-4.068120000000022,1.3765860000000032,4.294716445796647,0.425899999999956,-1.056433999999996,1.1390538206581609,-8.571069999999963,3.117829999999998,9.12053204883352,-3.532819999999901,1.8428249999999904,3.984572892171038,0.1232000000001107,0.6348550000000017,0.6466986245733244,3.635700000000156,-1.9575499999999977,4.129202888270463,-9.799199999999928,1.3912059999999968,9.897463047389191,-5.851509999999848,-0.0509629999999958,5.851731923752764,2.443399999999997,-2.582640000000012,3.5553105250596677,5.541600000000017,-7.008940000000024,8.935019333140836,-10.54309999999998,0.671149999999983,10.564440351126017,-12.262399999999955,-0.3240800000000092,12.266681768367471,3.9849300000000767,-0.0790100000000109,3.985713196530906,7.39314000000013,-1.5627900000000068,7.556509223424659,-4.568449999999984,1.056600000000003,4.689044568192956,-4.751750000000016,0.9303999999999916,4.841980196417591,-4.602480000000014,-0.2589499999999987,4.6097589148349325,-4.938050000000089,-1.2920699999999954,5.104290615492115,0.4136999999999489,-2.856650000000002,2.886450573368609,3.790799999999877,-2.191289999999981,4.378574711489914,6.918699999999944,-3.4103700000000003,7.713561643423824,8.392699999999877,-3.521659999999997,9.10162086914182,-2.594789999999989,0.0805500000000165,2.596039954738745,-3.586490000000026,-1.507809999999978,3.890552854826692,5.977840000000015,-1.5246199999999988,6.1692006945795,7.840439999999944,-5.125429999999994,9.367098380955497,-0.3298699999999144,0.4912100000000237,0.5916937391928081,-3.321999999999889,2.7293700000000456,4.299435381175011,4.787300000000073,0.82453000000001,4.857786637029329,4.820400000000063,3.161570000000012,5.764701295375216,-3.133510000000001,-2.856474999999989,167.921597,1.475703464718635,124.2861804,2.1610707396207904,120.60077900000002,2.858913365477292,-0.0390576299999999,-0.6360743019999999,0.0504703052844518,0,0
16,533.3333333333334,513.101,128.55698,0.8410382,514.1347,124.71179,0.87343365,512.52484,126.56734,0.3611699,521.859,119.63703,0.9060749,518.7825,122.51541,0.14612812,540.5472,128.39993,0.99563426,532.5144,131.94818,0.93271506,551.3319,156.38597,0.99278027,536.85004,157.22838,0.7467298,534.77856,174.12616,0.97996074,529.5184,172.59532,0.73946065,572.40704,165.99997,0.9947267,567.022,167.20593,0.9804497,533.8777,184.81827,0.98892844,531.2131,187.76656,0.95732397,563.4371,219.52989,0.9605016,560.19556,218.78409,0.9122791,1.3677044,0.5600716,1.0611883,-0.65636461,115.9074672339006,144.76222599175674,75.61482408343537,76.80603556969706,42.33094028450503,166.60295,130.174055,128.55698,59.88220000000001,99.89286,0.599464260013536,156.167984133542,0.8417255917647058,-3.538000000000011,4.169880000000006,5.468577805462781,1.7977300000000014,2.1148100000000056,2.775653884943155,-2.7503000000000384,4.1875,5.009920791789049,4.205499999999915,1.748660000000001,4.554562772165874,-4.182189999999991,5.189334000000002,6.664825621098872,-0.1140699999999697,3.812747999999999,3.814453994532375,-2.3870299999999816,2.9685599999999965,3.809233609861686,6.184039999999982,-0.1492700000000013,6.185841272979753,-7.408400000000029,4.604600000000005,8.722770873982675,-7.5316000000001395,3.969745000000003,8.513746174571281,-2.6663600000000542,2.6199000000000154,3.7380946563189608,7.132839999999874,1.2286940000000186,7.237893022920016,-6.759999999999991,5.30801000000001,8.594915366663013,-9.203399999999988,7.890650000000022,12.122909262322311,-4.418949999999995,2.921199999999999,5.297218944172494,6.124149999999986,2.250050000000016,6.524410948507144,-9.090329999999994,2.7135199999999884,9.486690165663672,-13.075260000000071,2.7925299999999997,13.370140158895188,-1.9354900000000723,2.4065599999999847,3.088309015254174,2.632959999999912,1.3499599999999816,2.9588630186609666,-1.023649999999975,2.2743099999999856,2.494062007769631,3.578830000000039,2.5332599999999843,4.384681333517888,-0.0848599999999351,0.5150500000000022,0.521993986651179,-0.498559999999884,3.371700000000004,3.4083607443461603,-1.767099999999914,1.9839100000000087,2.6567915420860047,-8.685799999999858,5.394280000000009,10.224547831488572,-0.0437500000000454,0.8038200000000018,0.8050097234816527,2.551039999999944,0.7232699999999852,2.651589065918716,-2.1170399999999745,4.24382,4.7425590722731,-8.09487999999999,5.768439999999998,9.939918623811757,5.438599999999951,1.0986199999999826,5.5484534660028855,5.768469999999866,0.6074099999999589,5.800361458478118,3.2323599999999715,3.0340599999999824,4.433246130455618,-1.5549400000001017,2.2095299999999725,2.7018255355407748,1.2494800000000057,4.382990000000007,167.632722,1.582449163135298,125.9494434,2.899070215591053,122.723027,4.075100057623696,0.0311969799999999,-0.6319474580000001,0.0470125841178015,0,0
17,566.6666666666666,508.212,130.69879,0.8507016,509.18332,126.99881,0.88019305,507.92694,128.71002,0.39587587,516.74817,122.59442,0.9082511,514.50446,125.24518,0.16445772,534.6445,130.84549,0.9950955,529.5191,135.64644,0.93398076,546.3766,154.59486,0.9911589,533.01105,158.92389,0.74558735,536.0042,175.1853,0.9759015,526.6045,174.19635,0.73363316,571.0983,165.44443,0.99311477,567.812,167.57878,0.97635853,534.7055,187.79477,0.9848401,535.0132,191.73773,0.94609725,562.0696,222.2979,0.9442052,562.46906,222.46933,0.8835625,1.38958481,0.53943739,1.10368496,-0.64948654,126.97419540633764,148.7111723980613,83.13822995327392,84.59676931478808,48.32804547442128,166.511605,133.245965,130.69879,63.17135999999999,99.87491,0.6325047939216686,136.87208790625004,0.8413538152941177,-4.88900000000001,2.1418099999999924,5.337571645992218,-1.350999999999999,-2.028070000000014,2.4368563611546854,-4.951379999999972,2.2870200000000125,5.454046606401506,-2.201079999999933,-1.9004799999999875,2.9080194973210998,-4.597900000000038,2.1426799999999844,5.072648419947935,-0.4157100000000469,-3.046654000000018,3.0748846156914813,-5.110830000000078,2.957390000000004,5.904806423668842,-2.7238000000000966,-0.0111699999999927,2.7238229033658787,-4.278040000000033,2.729770000000002,5.074768023713034,3.130359999999996,-1.8748300000000029,3.648854787258598,-5.902699999999982,2.4455600000000004,6.389259034003848,-3.2363399999999274,-0.174340000000015,3.2410324020594943,-2.995300000000043,3.6982600000000048,4.759091207110901,3.764699999999948,-1.6097500000000051,4.094418292321832,-4.955299999999966,-1.7911099999999749,5.269067576156105,-0.5363499999999704,-4.712309999999974,4.742735166399208,-3.8389900000000807,1.695510000000013,4.196736634600826,5.251339999999914,-1.0180099999999754,5.34910423862716,1.2256399999999985,1.0591400000000135,1.6198675715008388,3.161130000000071,-1.3474199999999712,3.4363183108234274,-2.9139000000000124,1.6010300000000086,3.324772213385468,-1.8902500000000373,-0.673279999999977,2.006576941186186,-1.308740000000057,-0.5555399999999793,1.421768293077366,-1.223880000000122,-1.0705899999999815,1.626052029456702,0.7899999999999636,0.3728499999999997,0.8735657516752486,2.5570999999998776,-1.611060000000009,3.02229626833628,0.8278000000000247,2.9764999999999877,3.089466797037956,0.8715500000000702,2.172679999999985,2.3409694113550605,3.8000999999999294,3.9711700000000008,5.496448960820019,5.917139999999904,-0.2726499999999987,5.923418253179397,-1.36749999999995,2.768010000000004,3.087383294976489,-6.806099999999901,1.6693900000000212,7.007842762369796,2.2735000000000127,3.6852400000000216,4.330103475391809,-0.9588599999999587,0.6511800000000392,1.1590719960381977,-0.0913449999999898,-1.3408249999999953,167.143804,1.4428010871193104,128.0615039,3.6708785180617545,125.31918600000002,4.221611193114491,0.00687807,-0.6430506319999999,0.0421002163532679,0,0
18,600.0,502.3059,133.94156,0.8664476,503.11386,130.17514,0.9109236,501.75928,131.70204,0.405181,510.0957,124.81027,0.9347803,508.04602,127.11954,0.16126385,525.88745,131.8455,0.99618405,526.9127,136.49966,0.91562164,538.6401,155.31128,0.9927872,534.37946,159.83604,0.6478875,530.5179,176.16524,0.97768766,525.7464,174.78343,0.6504734,566.955,162.32251,0.99237424,567.2592,164.78748,0.96673846,533.5193,189.92072,0.98248005,535.42645,194.83893,0.9223434,562.4278,221.32916,0.9318884,561.84595,222.57312,0.83914566,1.39866419,0.50995993,1.06339911,-0.75192069,130.1978895728444,132.24814944563616,86.9100203423439,89.74192760777255,54.17817170178387,163.554995,134.17257999999998,133.94156,65.49991999999997,97.76285,0.6699878259483245,77.57690875306791,0.8290710594117646,-5.906099999999981,3.2427700000000077,6.737772219576722,-1.0170999999999708,1.1009600000000148,1.4988680167379558,-6.069459999999992,3.176329999999993,6.850358892824511,-1.1180800000000204,0.8893099999999805,1.4286270200790727,-6.167660000000012,2.992020000000025,6.855086692084958,-1.5697599999999738,0.8493400000000406,1.7848038808787892,-6.652469999999937,2.215850000000003,7.011800647722322,-1.541639999999859,-0.7415400000000005,1.7107119749389623,-6.458439999999996,1.874359999999996,6.724929192430202,-2.1803999999999637,-0.8554100000000062,2.342193507825485,-8.75705000000005,1.0000099999999748,8.813963053167447,-2.854350000000068,-1.4455500000000256,3.199520077292915,-2.606400000000008,0.8532199999999932,2.7424998319781224,0.3889000000000351,-2.845040000000012,2.871497137661832,-7.736500000000092,0.7164199999999994,7.769600367226195,-2.7812000000001262,2.5075299999999743,3.744700273840428,1.36841000000004,0.9121499999999968,1.6445557304634293,5.207400000000121,-0.783360000000016,5.2659916112353695,-5.486299999999915,0.9799399999999991,5.573129290945892,-6.711939999999913,-0.0792000000000143,6.712407258472838,-0.8581000000000358,0.5870800000000145,1.0397107945963042,2.0557999999999765,-1.013949999999994,2.292249603010085,-4.143299999999954,-3.121920000000017,5.187804870694321,-2.8345599999998967,-2.566380000000038,3.823746421770096,-0.5528000000000475,-2.7913000000000068,2.8455128764425037,-1.342800000000011,-3.1641500000000065,3.437289202627569,-1.1861999999999853,2.125949999999989,2.434488414944692,-2.01400000000001,-0.8505499999999984,2.1862367901259088,0.4132500000000618,3.1012000000000057,3.128612632222162,-3.386849999999868,-0.869969999999995,3.4967986392411983,0.3582000000000107,-0.9687399999999968,1.032842886212613,1.7256999999999607,-3.7367500000000007,4.1159860364801855,-0.6231099999999969,0.1037899999999751,0.6316948917000921,-2.8966100000000097,-3.5814500000000464,4.60620598699194,-2.956610000000012,-2.865265000000022,166.102,1.8134489508841476,130.1217034,3.621777748574608,127.983292,4.692370508673578,-0.10243415,-0.6787674779999999,0.0438858495938814,0,0
19,633.3333333333333,496.9592,138.56335,0.8550705,497.7177,134.90872,0.8979832,496.74374,136.36107,0.39878854,504.96228,129.14706,0.9263027,503.1688,131.35858,0.16163403,521.558,134.78278,0.9954169,522.2588,139.52122,0.91941196,534.9519,157.33702,0.9913497,528.61163,162.53882,0.6797707,529.0719,178.75311,0.9747567,520.8996,178.67905,0.67498845,565.9451,161.50468,0.99178594,566.07495,164.05835,0.96837527,532.43884,191.418,0.98189247,534.6872,195.83383,0.9283256,561.6572,223.52113,0.9296887,562.6453,224.40381,0.8454644,1.32773962,0.44216179,0.9882316,-0.76862458,133.9431133108849,139.0314284013281,89.45086200612769,90.97187363546408,59.837128106997305,162.781515,137.152,138.56335,69.33120999999994,95.25674999999998,0.7278351326511227,81.58712472955796,0.8306473976470587,-5.346699999999999,4.621790000000004,7.067400066085125,0.5593999999999824,1.379019999999997,1.4881614564286942,-5.396160000000009,4.733579999999989,7.178114122943435,0.6732999999999834,1.5572499999999962,1.696573149763949,-5.015539999999987,4.659030000000001,6.845597273613157,1.152120000000025,1.6670099999999763,2.026401449491186,-5.133420000000001,4.336790000000008,6.720100326669244,1.519049999999936,2.1209400000000045,2.60881187250055,-4.877220000000023,4.239039999999989,6.461945144459222,1.5812199999999734,2.364679999999993,2.84463849914183,-4.329449999999952,2.9372800000000154,5.231801898093971,4.427600000000098,1.937270000000041,4.832872521896374,-4.6539000000000215,3.021559999999994,5.548748511475373,-2.0475000000000136,2.1683400000000006,2.9822733955155853,-3.688199999999938,2.0257399999999848,4.207902302525509,4.048300000000154,1.3093199999999854,4.254768119698324,-5.767830000000004,2.70277999999999,6.36968465760276,-7.136240000000043,1.790629999999993,7.357464042351862,-1.4460000000000264,2.587869999999981,2.964453935702152,4.040299999999888,1.607929999999982,4.3485012331720725,-4.84680000000003,3.89561999999998,6.218305671515363,-3.9886999999999935,3.308539999999965,5.182293374713527,-1.009900000000016,-0.8178299999999865,1.299516802084533,3.133399999999938,2.3040900000000306,3.88934779726624,-1.18425000000002,-0.7291299999999978,1.3907115514728583,-0.6314499999999725,2.062170000000009,2.156681295741214,-1.0804600000000164,1.4972800000000177,1.8464130659199984,0.1057399999999688,-0.6286699999999712,0.6375005227448501,-0.7392500000000837,0.9949000000000012,1.2394823808752289,-1.1525000000001455,-2.1063000000000045,2.4009906163915664,-0.7706000000000586,2.1919699999999978,2.323479468577263,-1.1288000000000693,3.1607099999999946,3.3562296024110334,0.799350000000004,1.830690000000004,1.9975951287986315,1.422460000000001,1.726900000000029,2.237314475347644,-0.773479999999978,2.183130000000034,164.960907,1.730708904714482,132.19094,4.168044006864896,131.229556,5.370825803936447,-0.01670389,-0.7027916019999999,0.0547185909142686,0,0
20,666.6666666666666,493.2285,143.58867,0.68277776,492.9586,139.90994,0.727959,493.30762,141.05463,0.18794015,499.46185,133.68747,0.84373593,501.44485,135.30417,0.11452196,517.35254,137.10599,0.9873863,517.5458,141.17139,0.8904918,531.9451,159.56123,0.9825533,524.29224,164.49698,0.6819648,524.8461,181.53914,0.95826364,517.5691,183.49092,0.6738103,561.35254,160.64883,0.9843448,561.8767,163.08147,0.95308226,532.6737,193.22604,0.96688396,534.4467,196.62401,0.9007876,558.0414,226.59465,0.87862617,557.04626,224.7699,0.7884225,1.22320786,0.46033955,0.94033074,-0.63253701,129.08135907569235,144.37654364832687,101.39836789128957,101.9623179299915,62.770758471187584,161.86515,139.13869,143.58867,68.91810000000004,92.90718,0.7417951901909502,87.27833605798214,0.7766795429411765,-3.730700000000013,5.025319999999994,6.258750961046464,1.6159999999999854,0.4035299999999893,1.6656207434166832,-4.759099999999989,5.001220000000018,6.903711632042584,0.6370600000000195,0.2676400000000285,0.6909968257525066,-3.4361200000000167,4.693559999999991,5.8169086401627474,1.5794199999999703,0.0345299999999895,1.5797974102080006,-5.500429999999994,4.54040999999998,7.132324526618216,-0.3670099999999934,0.2036199999999723,0.4197111441217446,-1.723950000000002,3.94559000000001,4.305773339436261,3.1532700000000204,-0.2934499999999787,3.1668951033149355,-4.205460000000016,2.323209999999989,4.804497738130396,0.1239899999999352,-0.6140700000000265,0.6264626764620671,-4.712999999999965,1.6501700000000028,4.993538828215886,-0.0590999999999439,-1.371389999999991,1.3726628654188795,-3.0067999999999984,2.22421,3.740047641955913,0.6813999999999396,0.1984700000000145,0.709715647918181,-4.319389999999999,1.9581600000000208,4.742522594326786,1.448440000000005,-0.7446199999999692,1.628630522248668,-4.225800000000049,2.786030000000011,5.061555966390224,-2.779800000000023,0.1981600000000298,2.786854037369044,-3.3304999999999154,4.811869999999999,5.852035812168226,1.5163000000001148,0.9162500000000192,1.7716319461164567,-4.592560000000049,-0.8558500000000038,4.671625688783344,-3.5826600000000326,-0.0380200000000172,3.582861732749428,-4.198249999999916,-0.9768799999999942,4.3104057346031,-3.0139999999998963,-0.2477499999999963,3.0241653497286443,0.234860000000026,1.8080400000000052,1.8232300626086744,1.3153200000000425,0.3107599999999877,1.3515319012143605,-0.2404999999999972,0.7901799999999923,0.8259689354933311,0.4987500000000864,-0.2047200000000089,0.5391306343550604,-3.615800000000036,3.073520000000002,4.745580557782184,-2.845199999999977,0.8815500000000043,2.9786395287949627,-5.599040000000059,0.366090000000014,5.610995527506743,-6.398390000000063,-1.46459999999999,6.563874446704536,-0.9163650000000132,-0.1428850000000352,164.263243,2.1781496540086827,134.776658,3.484302600662364,135.06986999999998,6.073950854365684,0.13608757,-0.691786686,0.0633930404644377,0,0
21,700.0,485.32855,148.05585,0.7963204,485.84976,144.64508,0.85142976,485.79333,145.44406,0.33570015,492.7568,137.76358,0.90376467,492.49597,138.54248,0.15073955,510.3222,141.91083,0.9926293,512.3339,143.8282,0.90055454,521.5838,167.81915,0.9860066,520.4674,168.86905,0.6575469,516.3473,190.56915,0.96126956,515.3677,188.5444,0.6456753,560.8757,160.94388,0.9876695,561.25073,162.3293,0.9596115,530.4832,194.49796,0.9760501,531.0927,195.6755,0.91937155,561.0163,224.51752,0.9163992,560.44525,222.43497,0.8348279,0.83597839,0.35544895,0.56473887,-0.50357315,143.54447187089715,147.4748609387241,92.34454618047556,90.22816547442184,69.32649512039016,161.63659,142.869515,148.05585,75.92217999999997,86.75394,0.8751438738673551,43.62469418348476,0.8103274400000001,-7.89994999999999,4.467179999999985,9.075511399083783,-4.169249999999977,-0.5581400000000087,4.206443369653253,-7.1088399999999865,4.735140000000001,8.541496178375297,-2.349739999999997,-0.2660800000000165,2.3647572040275078,-7.51428999999996,4.389430000000004,8.702393344879296,-4.078169999999943,-0.3041299999999864,4.0894945416028525,-6.705050000000028,4.07611,7.846806244237229,-1.204620000000034,-0.4642999999999802,1.2910010977532371,-8.948879999999974,3.2383100000000127,9.516780175589831,-7.224929999999972,-0.7072799999999972,7.259466819491608,-7.030339999999967,4.804840000000013,8.515407679095562,-2.8248799999999505,2.481630000000024,3.760110965290764,-5.211900000000014,2.656810000000007,5.850003503084437,-0.4989000000000487,1.0066400000000044,1.1234880059885186,-10.361300000000028,8.257920000000013,13.249520007019152,-7.35450000000003,6.0337100000000135,9.51285060400407,-3.8248399999999942,4.37206999999998,5.808992779346501,0.4945500000000038,2.4139099999999587,2.464049754083672,-8.49879999999996,9.030010000000004,12.400430719942731,-4.272999999999911,6.243979999999993,7.566096433458878,-2.201400000000035,5.053480000000008,5.512152217636976,1.1290999999998803,0.2416100000000085,1.1546610767232668,-0.4768399999999246,0.2950500000000033,0.5607413736295283,4.115720000000124,1.1509000000000071,4.273607601125896,-0.6259700000000521,-0.7521700000000067,0.9785694404589156,3.572279999999864,0.2247099999999875,3.5793405792825896,-2.1905000000000427,1.2719199999999944,2.5329963948652146,-2.425360000000069,-0.536120000000011,2.4839073622018084,-3.353999999999928,-0.9485099999999989,3.485539731533628,-3.113499999999931,-1.7386899999999912,3.566079803663897,2.974900000000048,-2.077130000000011,3.628291477665533,6.590700000000084,-5.150650000000013,8.36459932767262,3.398990000000026,-2.334930000000014,4.123715694007074,8.998030000000085,-2.701020000000028,9.394682161803116,-0.2285599999999874,0.6878050000000258,163.269971,1.9665626399681,137.31574999999998,3.893484865016533,138.96964400000002,7.031149800671269,0.1289638599999999,-0.6612283939999999,0.1067418333328017,0,0
22,733.3333333333333,481.43408,152.37213,0.7797782,481.7979,149.35446,0.82942426,481.0687,149.93697,0.2798701,488.6084,142.52512,0.8936976,486.3835,143.08987,0.13016748,506.31516,145.57687,0.9938704,503.63074,146.09477,0.9200099,518.21326,173.4335,0.9909841,508.23312,170.34175,0.7345859,510.5537,195.77731,0.9752181,499.6311,190.30766,0.72987765,557.94507,160.15483,0.99276143,556.07336,161.4134,0.97541434,528.54596,195.27905,0.9853278,527.30316,196.92712,0.9472693,560.6755,223.25865,0.94380873,558.343,221.39862,0.8840461,0.54559489,0.2264851,0.30410905,-0.39229577,137.9497955910407,145.94431521488977,91.1210974541166,89.24043972171843,73.97239532063348,160.784115,145.83582,152.37213,79.60680000000008,80.73353,0.9860438285549542,169.08019889911702,0.8227124347058822,-3.894470000000013,4.316280000000006,5.813533316263023,4.005479999999977,-0.1508999999999787,4.0083214492353045,-4.0518599999999765,4.709379999999982,6.212554180367333,3.05698000000001,-0.0257600000000195,3.0570885329018624,-4.724630000000047,4.492909999999995,6.519844239320476,2.7896599999999125,0.1034799999999904,2.7915785903319126,-4.148399999999981,4.7615399999999966,6.315178994422867,2.5566500000000474,0.6854299999999967,2.646936627008708,-6.112469999999973,4.547389999999979,7.618467386095414,2.8364100000000008,1.309079999999966,3.123925756880262,-4.007040000000018,3.6660400000000095,5.431042150747885,3.0232999999999493,-1.1388000000000034,3.23066685531017,-8.703159999999968,2.266570000000001,8.993460599263193,-3.4912599999999543,-0.3902400000000057,3.5130020844285994,-3.3705400000000054,5.614350000000002,6.548394140100308,6.990760000000023,-2.643570000000011,7.473900435682856,-12.234280000000012,1.4727000000000032,12.322599255368177,-8.409440000000018,-2.899369999999976,8.895224983692103,-5.793600000000026,5.208159999999992,7.79042563314741,2.705199999999934,-3.821850000000012,4.68237594202983,-15.73660000000001,1.7632600000000025,15.835077056572864,-13.535199999999977,-3.290220000000005,13.929364188231972,-2.9306300000000647,-0.7890500000000031,3.0349945797975297,-2.45379000000014,-1.0841000000000065,2.6826028729763007,-5.177369999999996,-0.9158999999999936,5.257759306672373,-4.551399999999944,-0.1637299999999868,4.554344022238492,-1.9372399999999743,0.7810900000000061,2.0887796450798515,0.2532600000000684,-0.4908299999999883,0.5523175866293081,-3.789539999999988,1.2516200000000026,3.990885369939848,-0.43554000000006,2.200130000000001,2.2428256973068725,-0.3407999999999447,-1.2588700000000017,1.3041849243492911,-3.3156999999999925,0.8182600000000093,3.415174361229594,-2.1022500000000264,-1.0363499999999988,2.343816627852979,-5.5012400000000525,1.2985800000000154,5.652428819012285,-0.8524750000000267,-0.6239150000000393,162.124473,1.0700391570444774,139.83372100000005,4.608808160764639,143.304312,7.331799605446113,0.11127738,-0.6097902399999999,0.1616576186068259,0,0
23,766.6666666666667,475.9912,155.3449,0.80001754,476.28214,152.05557,0.8704817,475.40326,152.9155,0.27889532,483.7884,145.84973,0.9269701,481.51395,146.91739,0.12399191,502.03296,150.45648,0.9959246,500.7963,150.96773,0.91278887,517.1615,181.16017,0.9934161,508.75415,177.60161,0.66367406,505.45984,203.74808,0.9780806,497.59177,197.53366,0.6581947,552.50757,162.76294,0.99346054,551.64984,164.03195,0.9717865,526.6512,199.07433,0.9857437,526.8079,200.86826,0.9366245,561.50714,224.07764,0.9421034,560.1033,221.93515,0.86429393,0.25891088,0.15008936,0.09039752,-0.19062086,126.38288124348723,134.11478056690996,90.19946443469864,88.3274046942053,75.94319364892505,163.397445,150.712105,155.3449,86.10388000000006,78.22791000000001,1.1006797816702538,157.53921484018028,0.817438121764706,-5.442880000000002,2.972769999999997,6.201798462325264,-1.54840999999999,-1.343510000000009,2.0500225969974077,-5.51576,2.70111,6.141628742418415,-1.4639000000000235,-2.008269999999982,2.485186432221936,-5.66543999999999,2.9785300000000063,6.400691474715831,-0.9408099999999422,-1.5143799999999883,1.7828264751511451,-4.819999999999993,3.324610000000007,5.855376303202039,-0.6716000000000122,-1.4369299999999896,1.5861318939167657,-4.869550000000004,3.827520000000021,6.193740917482762,1.2429199999999696,-0.7198699999999576,1.4363366399628823,-4.282199999999989,4.879609999999985,6.492136057731674,-0.2751599999999712,1.2135699999999758,1.2443734047704191,-2.834440000000029,4.872959999999978,5.637356585776701,5.868719999999939,2.606389999999976,6.421459590350092,-1.0517599999999447,7.726669999999984,7.797924620467913,2.3187800000000607,2.1123199999999827,3.136660082125605,0.5210299999999961,7.259860000000003,7.278532783501085,12.755310000000009,5.78716,14.006753873103513,-5.093860000000007,7.9707699999999875,9.459417745955609,0.6997400000000198,2.762609999999995,2.8498508872746307,-2.0393300000000067,7.225999999999999,7.508258309947788,13.697270000000003,5.462739999999997,14.746414267899164,-5.4375,2.608109999999982,6.03064209036649,-2.5068699999999358,3.3971599999999853,4.221977411415127,-4.42351999999994,2.618549999999999,5.140460416431535,0.7538500000000568,3.5344499999999925,3.6139488962905983,-1.8947600000000195,3.795279999999991,4.241964843795857,0.042479999999955,3.014189999999985,3.014489327647372,-0.4952600000000302,3.94113999999999,3.9721363228368634,3.294279999999958,2.6895199999999875,4.252740122415154,0.831639999999993,0.8189900000000137,1.1672059414259384,1.1724399999999378,2.077860000000016,2.3858159470503835,1.7603000000000293,0.5365299999999991,1.8402501272653409,3.862550000000056,1.5728799999999978,4.170520830412003,2.613330000000019,3.4658050000000458,162.092963,1.0184590455970572,143.141626,5.397777186846795,147.58498,6.72151738000431,0.2016749099999999,-0.497530274,0.2219364476011635,0,0
24,800.0,473.63928,158.98405,0.6615253,473.29874,155.80522,0.73535085,473.26727,156.62964,0.1659453,479.55664,149.0209,0.8717933,480.12326,149.9817,0.10597706,496.05356,151.8292,0.9924817,496.83987,151.98618,0.8990327,509.7022,183.83508,0.98994726,503.72174,179.82532,0.6778822,501.34982,207.72331,0.96757686,490.76236,205.0686,0.6439226,545.2524,164.41418,0.99148166,546.3487,166.13542,0.96885175,523.79,201.48824,0.9807545,525.48914,203.53879,0.9281086,558.7912,225.25587,0.9246871,558.6205,222.76631,0.84510875,0.15790359,0.00761501,-0.00221081,-0.15770437,137.63270051089495,138.9397496040908,94.11172589182212,90.98033583385724,74.84544948494242,165.2748,151.90769,158.98405,85.52393000000001,76.23496999999998,1.121846429245707,11.290173038254723,0.7853192641176471,-2.351920000000007,3.6391500000000008,4.333005932248424,3.0909599999999955,0.6663800000000037,3.161976601115191,-2.9834000000000174,3.7496500000000026,4.79171688254848,2.532359999999983,1.0485400000000027,2.7408544837696,-2.1359899999999925,3.714139999999986,4.284540724476763,3.529449999999997,0.7356099999999799,3.605293243912338,-4.231760000000008,3.171170000000018,5.288110424953339,0.5882399999999848,-0.1534399999999891,0.6079228003620022,-1.3906900000000064,3.0643099999999777,3.365117301402713,3.4788599999999974,-0.7632100000000435,3.561594643372551,-5.979399999999998,1.3727199999999868,6.134947804048535,-1.6972000000000094,-3.5068899999999985,3.895993494873936,-3.956429999999955,1.0184500000000014,4.085410474774799,-1.1219899999999257,-3.854509999999976,4.014487377013365,-7.459300000000042,2.6749100000000112,7.924411649964979,-6.407540000000097,-5.051759999999973,8.15946370475419,-5.03240999999997,2.223710000000011,5.501821205037451,-5.553439999999966,-5.036149999999992,7.496899536214924,-4.110019999999963,3.9752300000000105,5.717929516293444,0.9838400000000432,-3.995539999999977,4.114885300612874,-6.829409999999996,7.534940000000006,10.16937371482138,-4.790079999999989,0.3089400000000069,4.800032325932806,-7.255170000000021,1.6512400000000014,7.440704621640367,-1.817670000000021,-0.9568699999999808,2.0541481022068586,-5.301140000000032,2.103470000000016,5.703215877073251,-0.8776200000000927,-0.5150799999999833,1.0176071298886156,-2.861200000000053,2.413909999999987,3.743451205518812,-0.9664400000000342,-1.381370000000004,1.6858793997496018,-1.3187599999999975,2.6705300000000136,2.9783986332423784,-0.8234999999999673,-1.2706099999999765,1.5141340832633965,-2.715940000000046,1.178229999999985,2.9604992850024834,-3.547580000000039,0.3592399999999713,3.5657225402434576,-1.4827999999999977,0.8311600000000112,1.6998596370288963,-3.2431000000000267,0.2946300000000121,3.2564558106782564,1.8773549999999943,-0.7359750000000247,162.59162,1.771702862351187,146.09276400000002,5.337747071386402,151.66912,6.038691391121123,0.0329164899999999,-0.375346232,0.2027115985715931,0,0
25,833.3333333333334,467.92218,165.75772,0.68031096,467.92526,162.599,0.7487564,467.72018,163.34425,0.20976244,473.31873,154.53378,0.85567105,471.22116,155.2941,0.10730645,491.06088,157.15366,0.99123585,485.60623,154.91838,0.8845593,499.289,195.43347,0.9878384,486.04297,183.2627,0.66085696,490.02142,218.54192,0.9618493,473.0452,206.43536,0.63356507,545.4061,165.52823,0.9881683,541.2911,166.46521,0.96027213,518.31635,203.29596,0.974648,514.448,204.68991,0.90920526,563.06366,221.41286,0.907848,554.97656,220.05144,0.81182796,0.30429601,0.06313088,0.25154093,-0.15917824,146.0159202108099,149.82874458487925,76.39078094763661,75.67994575722001,79.73753660925003,165.99672,156.03602,165.75772,95.34348,66.87907999999999,1.4256099003513525,-157.71650151554502,0.7808048135294118,-5.717099999999959,6.77367000000001,8.863850048308562,-3.3651799999999525,3.134520000000009,4.598875086670624,-5.373480000000029,6.793779999999998,8.661970560952067,-2.390080000000012,3.044129999999996,3.870298420445125,-5.547089999999969,6.714609999999993,8.709546194848475,-3.4110999999999763,3.000470000000007,4.542953161865075,-6.237909999999999,5.512879999999996,8.324864387033578,-2.006149999999991,2.3417099999999778,3.083543991351487,-8.902100000000019,5.312399999999997,10.366724563235984,-7.511410000000012,2.248090000000019,7.840611509072508,-4.992680000000007,5.324460000000016,7.2990908936661585,0.9867199999999912,3.951740000000029,4.073065846018231,-11.233640000000037,2.932200000000023,11.610015697215958,-7.277210000000082,1.9137500000000216,7.524641150686276,-10.413200000000018,11.598389999999997,15.587090326039055,-2.953899999999976,8.923479999999984,9.399681937193384,-17.678769999999986,3.4373799999999903,18.009844251889007,-12.646360000000016,1.2136699999999792,12.704464416830028,-11.328400000000045,10.818610000000008,15.66444920487475,-7.2183800000000815,6.843379999999996,9.94670094296602,-17.71715999999998,1.3667599999999993,17.76979998095643,-10.887749999999984,-6.168180000000007,12.513574412409096,0.1537000000000716,1.1140500000000202,1.1246026376014182,7.408870000000093,-0.5371899999999812,7.428319310113247,-5.0575999999999794,0.3297900000000027,5.068340872918848,0.2435400000000527,-1.773680000000013,1.7903218911693148,-5.473649999999907,1.807720000000017,5.764433703400451,-2.6124499999998534,-0.6061899999999696,2.68185781103309,-11.04114000000004,1.1511199999999917,11.100984179522142,-9.722380000000044,-1.519410000000022,9.840390216475203,4.272460000000024,-3.843009999999993,5.746532894859312,6.98840000000007,-5.0212399999999775,8.605264998685442,-3.6439400000000433,-2.7148699999999906,4.544097032469736,-2.161140000000046,-3.546030000000002,4.152692483257123,0.7219200000000114,-1.155434999999983,163.417934,2.2477042368811064,149.47223000000002,5.181009014918295,156.10293,6.722439978270605,-0.0014738699999999,-0.280674478,0.158221180813195,0,0
26,866.6666666666667,463.10522,170.06512,0.81819403,463.26547,166.48274,0.8645434,462.49677,168.01833,0.38082737,469.00226,158.32196,0.8987228,465.42206,160.89908,0.16514498,487.6653,160.98145,0.99370015,478.65698,163.05788,0.91990215,498.99194,195.4813,0.9884121,475.66852,190.97614,0.6849317,488.12003,219.93135,0.9614958,455.52377,214.51283,0.63791406,539.0186,169.72833,0.9878686,532.87665,172.30937,0.9603029,513.07166,204.4412,0.97341454,506.05432,207.20221,0.90630907,561.31396,221.3131,0.90625775,549.27185,220.61932,0.81000376,0.72442352,0.13313983,0.55024578,-0.45198761,137.85177807362084,145.5500655088104,72.49926168215359,69.69753937812553,80.32507451528866,171.01885,162.019665,170.06512,105.79018999999994,62.99114,1.6794455271099145,167.01995598029956,0.8151732447058824,-4.816960000000051,4.307400000000001,6.461950046356015,0.900139999999908,-2.4662700000000086,2.625402775289894,-4.659789999999987,3.883740000000017,6.06605961326626,0.7136900000000423,-2.910039999999981,2.9962787283061547,-5.223410000000001,4.674080000000004,7.009353456239744,0.3236799999999675,-2.0405299999999897,2.0660424543798555,-4.316470000000038,3.788179999999983,5.743014972407804,1.9214399999999612,-1.7247000000000128,2.5819608369609126,-5.79910000000001,5.604980000000012,8.065070465309045,3.1030000000000086,0.2925800000000151,3.116763073510732,-3.3955799999999954,3.827789999999993,5.116829078687299,1.5971000000000115,-1.496670000000023,2.188778083520599,-6.949250000000006,8.139499999999998,10.70250138110246,4.28439000000003,5.207299999999975,6.743290811028396,-0.2970599999999876,0.0478300000000047,0.3008859459994653,10.11614000000003,-11.55055999999999,15.3542087003271,-10.374450000000024,7.713439999999991,12.927736438994277,7.3043199999999615,4.276060000000001,8.46391043111867,-1.901389999999992,1.3894300000000044,2.3549521559895825,9.427010000000053,-9.429180000000002,13.333339904633837,-17.52143000000001,8.077470000000005,19.29367852032889,0.1957299999999691,6.710710000000006,6.713563803003593,-6.3875000000000455,4.200099999999992,7.6446711021469405,-6.541200000000117,3.086049999999972,7.23263451603227,-8.414449999999988,5.844159999999988,10.244860902330478,-3.3568500000000085,5.514369999999985,6.4557508021453165,-5.244690000000105,1.1452400000000011,5.36827233415939,0.2289599999998017,-0.6624800000000164,0.7009296911958651,-8.39367999999996,2.5123000000000104,8.761593190305026,2.6474600000000805,1.3611800000000187,2.9768868712130256,-1.7497000000000753,-0.0997600000000034,1.7525416250692205,-6.022160000000099,3.743249999999989,7.090721516749978,-5.704709999999977,0.567879999999974,5.732905361027663,-2.060769999999934,3.2827499999999645,3.875979947755083,5.022129999999976,4.300209999999964,165.29438599999995,3.781668758536772,153.30226000000002,6.080050336020282,160.50478400000003,7.315573404199525,-0.2928093699999999,-0.27035737,0.1407728008712572,0,0
27,900.0,457.0501,173.34763,0.7516431,457.30325,169.92624,0.8028226,457.4403,170.60056,0.29908624,463.45898,161.87985,0.8770453,462.29056,162.34326,0.1542062,483.1319,166.38377,0.99124664,474.69595,165.9485,0.92028,489.21756,207.26805,0.9837331,470.38498,200.07812,0.70852864,471.91833,231.35162,0.94590443,445.9663,226.4563,0.6417335,536.38525,173.95456,0.9813286,530.5609,175.32498,0.95006967,511.60202,210.4452,0.9541247,503.91913,211.58401,0.871089,556.3716,221.23357,0.8401877,545.3355,221.06943,0.72693026,1.18076407,0.32621714,0.95506947,-0.61288537,135.8439477320939,144.4081043393171,69.36552322077986,66.5926988516897,81.17186823950651,174.63977,166.166135,173.34763,110.40529999999995,69.47176999999999,1.5892109616724752,-177.04632699370143,0.7882329223529412,-6.055119999999988,3.282510000000002,6.887622965472186,-1.2381599999999366,-1.0248899999999992,1.6073082149046092,-5.962220000000002,3.4435,6.885184062782928,-1.3024300000000153,-0.440240000000017,1.3748218657339049,-5.056470000000047,2.58223000000001,5.677658023674949,0.1669399999999541,-2.0918499999999938,2.098500747224065,-5.5432799999999816,3.5578900000000147,6.586845558421717,-1.2268099999999436,-0.2302899999999681,1.248237261180681,-3.13149999999996,1.4441799999999887,3.44847040329473,2.66760000000005,-4.160800000000023,4.942504061708039,-4.533400000000029,5.402320000000003,7.052430569839046,-1.1378200000000334,1.57453000000001,1.9426217010267608,-3.961029999999994,2.890619999999984,4.903615262772953,2.9882200000000125,-5.248880000000014,6.039884106735842,-9.774380000000008,11.786749999999984,15.312281996714264,-9.47732000000002,11.73891999999998,15.087141450546552,-5.283540000000016,9.101980000000026,10.524344865691196,5.090910000000008,1.3885400000000343,5.276874828883113,-16.20169999999996,11.420269999999988,19.822150482803284,-14.300309999999968,10.030839999999984,17.467587618263114,-9.557470000000023,11.94346999999999,15.296787520319429,7.963959999999986,3.8659999999999854,8.852717937537582,-2.6333499999999503,4.226229999999987,4.979513252859121,3.754150000000095,0.0261299999999948,3.754240935182599,-2.3157500000000937,3.015610000000009,3.8021838112590634,6.098699999999894,-2.8285499999999786,6.722710524222993,-1.46963999999997,6.003999999999991,6.181250498855373,3.7750500000001352,4.8587599999999895,6.152930297029288,-2.135190000000023,4.381799999999998,4.87434175823773,6.258489999999938,1.869499999999988,6.531747647459995,-4.942360000000008,-0.0795300000000054,4.942999837194017,-3.192659999999933,0.0202299999999979,3.192724092135048,-3.936349999999948,0.4501100000000235,3.962000799419355,1.7683600000000297,-0.1177699999999504,1.7722773097063826,3.620920000000013,-1.4012099999999634,168.065517,4.631465667458325,157.368323,6.6131547028695845,164.699884,7.497912529079818,-0.16089776,-0.3144752899999999,0.2073598496119503,0,0
28,933.3333333333334,452.67935,175.84879,0.61589754,452.35464,173.3274,0.66313314,452.36615,173.5748,0.18063813,456.91214,166.05502,0.8189606,455.69824,165.99274,0.12515001,474.61398,168.06483,0.9910665,466.86166,165.47054,0.9152761,480.1612,211.40019,0.9870216,466.97586,199.90659,0.73650575,460.96338,233.89285,0.9538093,447.64255,227.22523,0.6643397,524.6961,175.08139,0.99113387,519.5136,175.95721,0.97422236,508.24976,211.27191,0.9803607,503.23166,212.97061,0.9404222,544.5056,219.63693,0.9323487,539.6362,220.4175,0.8728666,0.67810044,-0.00368468,0.25669948,-0.6276241,132.22417134907906,144.52307635443287,78.55320536905066,77.81653265616859,80.33112007460326,175.5193,166.767685,175.84879,96.86304999999992,68.42231000000001,1.4156646945175515,-161.49734128880246,0.7848913411764706,-4.370749999999987,2.5011599999999987,5.035797544391541,1.6843700000000013,-0.7813500000000033,1.8567741164180445,-4.948609999999974,3.4011600000000044,6.0047173353705645,1.0136100000000283,-0.0423399999999958,1.0144939170345268,-5.074149999999975,2.974240000000009,5.881590074129597,-0.0176799999999275,0.3920099999999991,0.3924084893322221,-6.546839999999975,4.1751700000000085,7.764866934758105,-1.0035599999999931,0.6172799999999938,1.1782051060829684,-6.592320000000029,3.649480000000011,7.535077123215161,-3.4608200000000693,2.2053000000000225,4.103732832726879,-8.517919999999947,1.6810600000000022,8.682218832187951,-3.984519999999918,-3.721260000000001,5.451988226142767,-7.83429000000001,-0.4779599999999959,7.848856322146568,-3.873260000000016,-3.36857999999998,5.1331738957491,-9.056359999999984,4.132140000000021,9.954508397163565,0.7180200000000241,-7.654609999999963,7.688212209122447,-3.409119999999973,-0.1715300000000184,3.413432541489552,1.8744200000000435,-9.273510000000044,9.46104846496946,-10.954950000000052,2.541230000000013,11.245833869278046,5.246749999999906,-8.879039999999975,10.313376599547723,1.6762500000000389,0.7689300000000117,1.8441983102150776,11.233720000000062,-11.17453999999998,15.845087858702485,-11.68915000000004,1.1268300000000124,11.743337411971138,-9.05580000000009,-3.0993999999999744,9.5715094943275,-11.04729999999995,0.6322299999999927,11.065376272992207,-8.731549999999856,-2.3833800000000167,9.050992521646318,-3.352260000000001,0.8267099999999914,3.452694097614209,-1.8826200000000315,-5.177289999999999,5.508955418997336,-0.6874700000000189,1.3865999999999872,1.5476674581123655,1.447720000000004,-2.995200000000011,3.326727556984503,-11.865999999999984,-1.5966399999999794,11.972936786336074,-6.923639999999978,-1.517109999999974,7.087906150740119,-5.699299999999994,-0.6519300000000214,5.736465219531969,-1.7629500000000462,-1.102040000000045,2.0790586485475253,0.8795299999999884,-2.741390000000024,170.489888,4.748210399747447,160.579439,6.469576852711999,168.80066200000002,6.662868141894506,-0.01473873,-0.401875938,0.2326587199870522,0,0
29,966.6666666666666,449.12302,183.62984,0.6604967,448.0902,180.98508,0.6888713,448.31528,181.2422,0.22154458,451.29895,172.65614,0.81269914,450.1569,172.97385,0.15408957,469.21582,172.61307,0.99177855,462.85303,170.9522,0.9250781,475.32736,212.16231,0.98765904,465.72458,203.43613,0.76355886,458.34427,236.67581,0.9583052,450.5553,228.83762,0.70712435,522.0741,177.09802,0.99135077,517.635,178.00662,0.97557765,505.20096,213.93152,0.9812826,501.4068,214.06831,0.9446054,536.67914,224.55038,0.9338956,532.77246,221.66724,0.87744063,0.6456822,-0.18914699,0.17342568,-0.5924968,136.50113794601253,144.10340191912343,84.02917854850952,79.39027257796917,83.88108328409963,177.55232,171.782635,183.62984,88.58893999999998,65.72361000000001,1.347901289233788,-165.37059630768647,0.7985504729411765,-3.5563300000000027,7.781049999999993,8.555245301649737,0.8144199999999842,5.279889999999995,5.342332669209202,-4.264440000000036,7.657679999999999,8.765016343167895,0.6841699999999378,4.256519999999995,4.311154265309915,-4.050870000000032,7.667399999999986,8.671710933656636,1.023279999999943,4.693159999999978,4.803420941787183,-5.613190000000031,6.60111999999998,8.66502667223247,0.9336499999999432,2.425949999999972,2.5994106495511167,-5.541339999999991,6.981110000000001,8.913043578245308,1.0509800000000382,3.33162999999999,3.4934678211341827,-5.3981600000000185,4.548239999999993,7.058797240550272,3.1197599999999284,2.8671799999999905,4.237171652175481,-4.008629999999982,5.481660000000005,6.791002196472912,3.825660000000028,5.959620000000001,7.0818602767917005,-4.833840000000009,0.7621199999999817,4.893550453402934,4.222519999999975,-3.3700200000000398,5.402472577514859,-1.2512800000000084,3.529539999999997,3.7447769292709543,2.1578399999999647,3.701070000000016,4.284179339208381,-2.619109999999978,2.7829600000000028,3.8215969899637376,8.335840000000076,0.2417299999999898,8.33934421273647,2.91274999999996,1.6123899999999765,3.329251278380725,1.236499999999921,0.8434599999999648,1.4967822225025744,-2.6219999999999573,2.016629999999992,3.307821119241448,9.067150000000083,0.8897999999999797,9.110705415197083,-1.8786000000000056,2.049409999999994,2.780147353666708,9.168699999999944,1.417180000000002,9.27757828543629,-3.0487999999999715,2.659610000000015,4.04582584796972,0.3034600000000296,1.8329000000000235,1.8578510116799205,-1.824860000000001,1.0977000000000032,2.129567869216666,-1.137389999999982,-0.2888999999999839,1.1735072313794876,-7.826459999999997,4.913449999999983,9.240966780272494,4.039539999999988,6.510089999999963,7.661537392697332,-6.863740000000007,1.2497400000000027,6.976587765892443,-1.1644400000000132,1.901670000000024,2.229858583520516,2.033020000000022,1.1534900000000334,172.945392,4.547397921830623,164.554428,5.889214310020522,173.72982000000002,6.701322697001954,0.0351272999999999,-0.488834424,0.1971217814683589,0,0
30,1000.0,445.09454,192.80112,0.5952618,443.81332,191.12148,0.6324276,444.71915,190.58047,0.15782633,447.6748,183.5316,0.78928816,449.1629,182.07521,0.11747576,463.33014,181.61673,0.98886555,462.42108,175.79164,0.89732033,467.754,217.42351,0.98687077,467.0956,200.74677,0.7413647,452.7349,236.6012,0.9595679,454.88153,223.92722,0.7039213,513.4293,180.50656,0.98875844,512.393,180.11829,0.96682566,507.76715,217.40717,0.96706575,504.01764,216.09552,0.9042384,533.0912,219.89503,0.8860788,525.0681,215.79639,0.8004417,0.72241346,-0.58758389,-0.17686472,-0.38124172,134.8904634844078,141.60516522341717,86.88717976888493,76.08104498708911,88.15903555138028,180.312425,178.704185,192.80112,89.27787999999998,60.809560000000005,1.4681553119582622,-98.8699980432885,0.7696234676470589,-4.028480000000002,9.171279999999996,10.017036884668038,-0.4721499999999992,1.3902300000000023,1.4682183336956416,-4.276880000000006,10.13639999999998,11.00174111195131,-0.0124399999999695,2.4787199999999814,2.4787512162377063,-3.59612999999996,9.338269999999994,10.006769587124488,0.4547400000000721,1.6708700000000078,1.7316451785802114,-3.624149999999986,10.875460000000004,11.463424158343788,1.9890400000000452,4.274340000000024,4.714473730672426,-0.9940000000000282,9.10136,9.15547867943561,4.547339999999963,2.120249999999998,5.01734602535042,-5.885680000000036,9.003659999999996,10.756724522734622,-0.4875200000000177,4.455420000000004,4.482013289449291,-0.4319499999999721,4.839439999999996,4.858678865298667,3.5766800000000103,-0.6422200000000089,3.633880343489599,-7.57335999999998,5.261200000000002,9.221497011310024,-2.7395199999999704,4.499080000000021,5.267512760003531,1.3710199999999872,-2.689359999999993,3.018667429512554,2.622299999999996,-6.218899999999991,6.749161021934493,-5.609370000000013,-0.0746100000000069,5.609866170328856,-2.990260000000035,-2.8575700000000097,4.136104589163608,4.32623000000001,-4.910399999999981,6.544332981511554,1.4134800000000496,-6.522789999999958,6.674182728581799,-8.644800000000032,3.4085400000000163,9.292508378882458,-6.022800000000075,1.3919100000000242,6.181547806828074,-5.241999999999962,2.111670000000004,5.651346228015022,-3.363399999999956,0.062260000000009,3.3639761990239623,2.566190000000006,3.4756500000000017,4.320355776854499,5.6149899999999775,0.8160399999999868,5.673978673003603,2.610839999999996,2.0272099999999966,3.305460011813782,4.435699999999997,0.9295099999999934,4.532044056504743,-3.5879400000000032,-4.655349999999999,5.87755026061879,4.238519999999994,-9.568799999999982,10.46551409298175,-7.704360000000065,-5.87084999999999,9.686281161111362,-0.8406200000000581,-7.120589999999993,7.170037931036348,2.76010500000001,0.7270849999999882,175.80853299999998,3.453858790106235,169.08806099999998,6.3955959098536495,179.1385,9.131291148099178,0.21125508,-0.53324712,0.1100778581183399,0,0
31,1033.3333333333337,432.2219,197.04579,0.32632563,431.8949,194.6572,0.29060704,431.67313,194.97267,0.09831106,439.82947,188.38051,0.47246057,435.58908,188.68523,0.093370445,459.34238,186.812,0.933691,444.36514,182.53537,0.83361757,468.89392,224.30751,0.93990403,455.5351,210.845,0.787017,453.36517,236.67184,0.88729167,448.9187,230.04791,0.74624413,497.93323,185.08167,0.9659593,485.32913,185.03024,0.9483217,508.25177,224.50049,0.9015656,481.7082,224.26091,0.8569857,535.20386,222.91664,0.7383551,500.28842,224.30017,0.6932766,1.23032168,-0.4957125,-1.10221109,-0.23041542,114.23610088340236,139.4561039239508,101.30585703796196,84.84769495679873,89.44939156829395,185.055955,184.673685,197.04579,103.53072999999996,54.13647,1.9124026388790645,-164.06373452286377,0.6772531850000001,-12.87263999999999,4.2446700000000135,13.554411974648692,-8.844159999999988,-4.926609999999982,10.123766700082514,-11.91841999999997,3.5357199999999978,12.431816086750931,-7.641539999999964,-6.600679999999983,10.097628931288732,-13.04602,4.3922000000000025,13.76553880821234,-9.44989000000004,-4.946069999999992,10.666022194660982,-7.84532999999999,4.848909999999989,9.222859155218613,-4.221180000000004,-6.026550000000015,7.357830216504062,-13.573819999999955,6.610019999999992,15.09771352863733,-12.579819999999929,-2.491340000000008,12.824143099170335,-3.98775999999998,5.195270000000022,6.54927936421253,1.897920000000056,-3.8083899999999744,4.255106898598438,-18.05594000000002,6.743729999999999,19.274202022301747,-17.62399000000005,1.9042900000000031,17.726571691226752,1.139919999999961,6.884000000000015,6.977741296895444,8.71327999999994,1.6228000000000122,8.863110526130146,-11.56049999999999,10.09823,15.349899328103094,-12.931519999999978,12.787589999999994,18.186441859761885,0.6302699999999959,0.0706399999999973,0.6342162742314285,6.2396400000000085,0.1452500000000043,6.241330378380887,-5.962829999999997,6.120689999999996,8.545068032789434,-10.289060000000006,11.031089999999978,15.084750653282262,-15.496070000000032,4.575109999999995,16.157345603687535,-6.85127,1.1665699999999788,6.949876702345153,-27.06387000000001,4.91194999999999,27.506005020347835,-21.821870000000047,2.8002799999999866,22.000808584579385,0.4846200000000067,7.093320000000006,7.109855495493568,-2.0815699999999997,3.617670000000004,4.173783642428058,-22.309439999999995,8.165390000000002,23.75678233611825,-24.92027999999999,6.1381800000000055,25.66510488953434,2.1126600000000053,3.0216100000000097,3.686930873734966,5.7006000000000085,7.676960000000008,9.56203718888398,-24.779679999999985,8.503780000000006,26.1982216035898,-17.07531999999992,14.374629999999996,22.32031677058588,4.743529999999964,1.9834249999999545,178.61595400000002,4.209579825153694,173.618865,7.96748261989055,184.534634,10.323219118997496,0.1508263,-0.488932682,0.1758931656395837,0,0
32,1066.6666666666667,429.94815,201.889,0.37604704,429.63727,200.57458,0.42331594,429.862,199.55753,0.095656,435.13553,194.45174,0.64369327,433.02664,191.70258,0.079958454,451.67874,192.33014,0.9667358,443.2965,183.41566,0.7830475,460.54892,225.60013,0.96537846,450.9214,203.56216,0.61663294,450.21127,235.77808,0.9135317,441.79868,224.61813,0.58403873,497.36572,187.71855,0.97442144,491.4681,186.21967,0.9358632,497.25687,224.2492,0.93803954,489.15457,221.68561,0.85047084,526.5025,220.4248,0.8354575,517.4392,218.02112,0.7390242,1.23539256,-0.07393928,1.22503381,-0.14149177,119.62550504101792,135.84453518943107,82.37908277239283,78.88575736640492,91.1032971281314,186.96911,187.8729,201.889,96.86523000000004,52.36241999999999,1.849899759218545,-133.23749900278204,0.689488973764706,-2.273750000000007,4.843209999999999,5.35038523534521,10.598889999999985,0.5985399999999856,10.615776908154183,-2.257630000000006,5.9173800000000085,6.333425556624166,9.660789999999963,2.3816600000000108,9.950033556712226,-1.8111299999999917,4.58486000000002,4.929617946301737,11.234890000000007,0.1926600000000178,11.236541780623618,-4.693939999999998,6.071230000000014,7.674171384358063,3.151389999999992,1.2223200000000247,3.380136848487057,-2.562440000000038,3.0173500000000217,3.9585982084698017,11.011379999999916,-3.59266999999997,11.582649404747515,-7.663639999999987,5.518139999999988,9.443582323948876,-3.6758800000000074,0.3228699999999662,3.690032359112861,-1.0686400000000162,0.8802900000000022,1.3845222763466245,16.987300000000005,-5.863439999999997,17.97076208522054,-8.34499999999997,1.2926199999999994,8.444518427027056,-9.484919999999931,-5.591380000000015,11.010324141949631,-4.613699999999994,-7.282839999999993,8.62125200626915,6.946799999999996,-17.381069999999994,18.717895837537394,-3.1538999999999646,-0.8937600000000145,3.27809276067652,-3.784169999999961,-0.964400000000012,3.905126111779199,-7.120020000000011,-5.429779999999994,8.954171968909245,-1.1571900000000142,-11.55046999999999,11.608292118869157,-0.5675099999999702,2.636879999999991,2.6972585590743647,14.92856000000006,-1.9382300000000043,15.053857950920817,6.138969999999972,1.1894300000000158,6.253134924643773,33.20283999999998,-3.7225199999999754,33.410862593114814,-10.99490000000003,-0.2512900000000115,10.997771259400729,-11.479520000000036,-7.344610000000017,13.628010694246653,7.446370000000002,-2.5752999999999986,7.879124079927922,29.75581,-10.74069,31.63495930821154,-8.701359999999909,-2.4918399999999963,9.051128793426727,-10.814019999999914,-5.513450000000006,12.138416678582846,17.150780000000054,-6.279050000000012,18.26405550557986,41.93046000000004,-14.782830000000018,44.46004429395571,1.9131550000000173,-2.830374999999947,181.081822,4.859138303462923,177.960218,8.765282613360469,190.242908,10.480677606742644,0.08892365,-0.394653962,0.2148616741764515,0,0
33,1100.0,426.00006,201.44865,0.6613249,424.2889,198.9689,0.6653929,423.53003,199.91907,0.31385124,427.97858,194.22473,0.72210974,424.67697,196.85435,0.2180199,446.5315,195.15967,0.9751296,440.2506,195.65303,0.88355273,460.93436,225.8339,0.95253336,455.1598,219.87756,0.68285596,448.11615,236.43593,0.87585455,450.5179,230.42856,0.6110596,499.7016,195.96124,0.9541741,495.45383,198.92001,0.9082336,512.5142,223.85342,0.8724978,510.71432,225.0112,0.7662568,534.862,222.30638,0.6976156,534.3635,220.02126,0.60053176,1.8668881,-1.3682451,0.9882316,0.79785639,104.44232661974084,124.64237738190438,110.71222199329564,108.40840293854208,87.85001239257112,197.440625,195.40635,201.44865,111.33196999999996,42.21120000000002,2.6374982791889745,175.5086813219637,0.7271173023529411,-3.9480899999999792,-0.4403500000000235,3.972571304658968,-1.6743399999999724,-5.283560000000023,5.542510325583539,-5.3483699999999885,-1.6056800000000069,5.584198234240964,-3.0907399999999825,-7.523060000000015,8.133210037322295,-6.3319700000000125,0.3615399999999908,6.342283126169956,-4.520840000000021,-4.2233200000000295,6.186632858672029,-7.156949999999995,-0.227010000000007,7.160549339443164,-2.463009999999997,-6.298240000000021,6.762709912283703,-8.349670000000003,5.151769999999999,9.811102040127809,-5.7872299999999655,2.1344199999999773,6.168288239803609,-5.147240000000011,2.829530000000005,5.873697271608416,2.516399999999976,-2.688609999999983,3.682511736858389,-3.0458999999999605,12.23737,12.610738730419392,-1.9772599999999445,11.357079999999996,11.5279149560534,0.3854400000000169,0.2337699999999927,0.4507908678090203,8.730439999999987,-1.0588500000000067,8.794415609697996,4.238400000000013,16.315399999999983,16.856936605445235,8.852100000000007,23.598239999999976,25.20390060104981,-2.0951200000000085,0.6578500000000247,2.195972321524128,1.058779999999956,1.5516100000000392,1.8784325062402507,8.719220000000007,5.810429999999997,10.477876416206676,15.839240000000018,11.24020999999999,19.42225127583567,2.335879999999974,8.24269000000001,8.567279253677917,2.903389999999945,5.60581000000002,6.313064172666067,3.9857299999999896,12.700339999999985,13.311073576105704,-2.1532399999999825,11.510909999999967,11.710571784746428,15.257329999999968,-0.395780000000002,15.26246246636823,26.25223,-0.1444899999999904,26.25262762721096,21.559750000000008,3.3255900000000054,21.81472825662975,14.113380000000006,5.900890000000004,15.297319955354933,8.359499999999912,1.8815799999999852,8.568639538829864,17.06085999999982,4.373419999999982,17.612488365815707,16.924300000000017,2.000140000000016,17.042079993639295,-0.2264800000000377,8.279190000000028,8.282287138616995,10.47151500000001,8.558359999999993,185.466087,7.664932922895006,183.687951,8.97748318540912,195.36288,7.528045343158995,0.93934816,-0.109557864,0.5352730810233518,0,0
34,1133.3333333333333,422.30725,205.80795,0.575496,420.13776,203.23055,0.48894247,420.00458,205.04597,0.36773264,422.01358,198.80576,0.50754124,419.55823,203.09933,0.32276687,438.83667,198.51988,0.93273985,431.31522,203.18077,0.8907623,462.33228,221.7764,0.8623106,452.35904,224.33488,0.7535293,458.12753,232.30661,0.74480623,454.63763,230.81363,0.6605269,485.337,195.8497,0.9228715,480.8185,201.12396,0.9065256,504.53058,221.54654,0.82773644,502.18823,226.35826,0.80015886,530.1437,220.19258,0.6786168,530.1554,223.40756,0.65900636,1.82157683,-0.90962506,1.20415394,1.02016551,112.93999192585292,154.5266298756498,123.73097550839272,124.2369195874024,92.81883172906282,198.48683,200.850325,205.80795,110.59717,36.45690999999999,3.0336407272684194,148.21434458181835,0.7001217623529412,-3.6928100000000086,4.359300000000019,5.713172690029615,0.2552799999999706,4.799650000000042,4.806434021278186,-4.151139999999998,4.261650000000003,5.949254072747273,1.1972299999999905,5.86733000000001,5.988231876088308,-3.525450000000035,5.126900000000006,6.222049607042708,2.8065199999999777,4.765360000000015,5.530389718636474,-5.965000000000032,4.581029999999998,7.521107688425979,1.191949999999963,4.808040000000005,4.953583898966481,-5.1187400000000025,6.244979999999998,8.074730607766428,3.2309300000000007,1.0932099999999991,3.410867451103898,-7.694829999999968,3.360209999999995,8.39651236960915,-2.547589999999957,0.5306799999999896,2.602275171940848,-8.93538000000001,7.527739999999994,11.683658898307502,-5.889480000000049,-4.709630000000004,7.540993927016558,1.3979199999999992,-4.0575000000000045,4.291559923431111,1.0124799999999825,-4.291269999999997,4.40909446069144,-2.800760000000025,4.45732000000001,5.264214866435472,-7.039160000000038,-11.858079999999973,13.789990384043056,10.011379999999974,-4.129320000000007,10.829543534553965,12.106499999999984,-4.787170000000032,13.01861508989723,4.119730000000004,0.3850699999999847,4.137687056532916,-4.599490000000003,-5.425360000000012,7.112653470379403,-14.364599999999996,-0.1115399999999908,14.365033043178142,-16.70047999999997,-8.354230000000001,18.67348899170423,-14.63533000000001,2.2039500000000203,14.800347286851087,-18.62106,-10.496389999999964,21.375642178790777,-7.983619999999973,-2.3068800000000067,8.31022765264584,-23.24094999999994,-1.911100000000005,23.319392361562453,-8.52609000000001,1.347059999999999,8.631846924714326,-30.08584000000002,-1.9785300000000063,30.15082667965343,-4.718299999999999,-2.1137999999999977,5.170155252020967,-13.077799999999913,-3.995379999999983,13.674498681282529,-4.208100000000059,3.386299999999977,5.401401049727778,-21.132400000000075,1.3861599999999612,21.177813137942337,1.0462049999999865,-9.425310000000025,189.652989,7.97286155034152,189.501489,8.749360394423423,199.798502,4.993681352056716,0.22230912,0.212974598,0.6459446620475997,0,0
35,1166.6666666666667,415.39084,216.36563,0.7590018,414.6849,213.74776,0.8208624,413.2633,214.19513,0.38073358,420.96185,204.82858,0.8506989,415.86115,206.41016,0.19755809,441.90262,200.65033,0.9853741,432.73322,201.79425,0.87108546,464.47894,224.93085,0.9700674,449.19495,221.67703,0.5923521,453.03268,235.382,0.90996736,435.6371,232.99652,0.53111166,494.44296,201.2232,0.9637419,489.31824,203.93764,0.9016423,508.35657,229.81332,0.8957713,503.23047,229.62372,0.7494841,534.8601,221.25241,0.7427955,533.687,218.15755,0.60514855,2.35138164,-0.55122837,1.93715994,1.21348847,89.4809798942115,90.23592280819622,98.04925550882724,97.81091453347427,88.57413435511926,202.58042,201.22229,216.36563,121.59679999999996,34.73167000000001,3.501035121517763,172.88885785313187,0.7486703823529413,-6.916409999999985,10.557680000000005,12.621463238091687,-3.2235999999999763,6.198379999999986,6.9865235693010925,-5.452859999999987,10.517210000000006,11.846745897658984,-1.3017199999999889,6.255560000000003,6.389562259810918,-6.741279999999961,9.149159999999997,11.364505477318376,-3.215829999999926,4.022259999999989,5.149770683875102,-1.0517299999999636,6.022819999999996,6.113959171052737,4.913270000000068,1.4417899999999977,5.1204472946218935,-3.6970799999999713,3.310829999999981,4.962861655869491,1.4216600000000312,-2.9341500000000167,3.260422269906183,3.065949999999986,2.130449999999996,3.733479155559852,10.760779999999954,-1.2297599999999989,10.830821569299305,1.4180000000000064,-1.3865199999999902,1.9832200358003624,10.353380000000016,-8.914259999999985,13.662229275341565,2.146659999999997,3.154449999999997,3.815586974254416,0.748739999999998,7.211950000000002,7.250712681530004,-3.1640899999999874,-2.6578499999999963,4.132267192546956,-0.3633299999999622,-7.115170000000006,7.124440526651904,-5.094849999999951,3.0753899999999987,5.951094031738996,-15.106229999999924,7.204710000000006,16.736368512822544,-19.000530000000023,2.1828900000000147,19.12551042542397,-23.12026000000003,1.79782000000003,23.19005345444468,9.10596000000004,5.373499999999979,10.573221352624776,23.470560000000035,5.4850399999999695,24.102963521426187,8.499740000000031,2.8136799999999766,8.953344358953272,23.13507000000004,0.6097299999999564,23.143103391243837,3.8259899999999902,8.266780000000011,9.10921791640205,11.809609999999964,10.573660000000018,15.851472302209013,1.0422400000000491,3.2654599999999903,3.4277533792850443,9.56833000000006,1.9183999999999912,9.758749794358964,4.7164000000000215,1.0598300000000052,4.834011645507302,9.43470000000002,3.173630000000003,9.95416955184612,3.531600000000026,-5.250010000000003,6.327306185107546,7.739700000000084,-8.63630999999998,11.596930908912968,4.093590000000006,3.04738500000002,194.106588,7.66429548884493,194.00511,7.509787298935397,204.511404,7.317727837074168,0.1933229599999999,0.531920636,0.6723615332205246,0,0
36,1200.0,411.94223,219.66388,0.7460234,411.2264,216.84137,0.80022687,410.10455,217.66736,0.4153054,416.94824,207.18127,0.81809807,412.39474,209.72725,0.21867114,435.8264,201.4607,0.97786784,427.75186,205.79382,0.8581742,457.67563,216.18425,0.95442986,441.9376,219.65742,0.58521366,458.06247,232.16104,0.8765346,433.3929,232.39996,0.5145876,489.1272,202.36725,0.9560605,484.71375,207.05524,0.8961094,505.58533,230.96667,0.882324,498.79633,233.03146,0.7483055,534.896,217.8747,0.74641544,529.0467,216.6563,0.6270225,2.21530289,-0.77820475,1.28153226,1.63084007,125.36187498240706,100.49758270505768,95.85065571777044,90.03599307239519,88.87360333954598,204.711245,203.62726,219.66388,124.79144999999994,31.570760000000007,3.952753942168195,151.78022000653417,0.7424335282352942,-3.4486100000000306,3.298249999999996,4.771935036712066,3.4677999999999543,-7.259430000000009,8.045182456905486,-3.458500000000015,3.0936100000000124,4.640220369993238,1.994359999999972,-7.423599999999993,7.686826963682725,-3.1587499999999977,3.472229999999996,4.694047585549167,3.582529999999963,-5.676929999999999,6.712827677350263,-4.013610000000028,2.352690000000024,4.652334410615851,-2.9618800000000647,-3.670129999999972,4.716204761383901,-3.466409999999996,3.3170900000000074,4.797820792422329,0.230669999999975,0.0062600000000259,0.2307549273579847,-6.076220000000035,0.810370000000006,6.130020311981065,-9.14217000000002,-1.3200799999999902,9.236984546663503,-4.981359999999995,3.9995700000000056,6.388310233113292,-6.3993600000000015,5.386089999999996,8.364315506824212,-6.80331000000001,-8.7466,11.080976424309371,-8.949970000000008,-11.901049999999998,14.890834567055,-7.257350000000031,-2.01961,7.533123759410863,-4.093260000000043,0.6382399999999961,4.142719846332883,5.029789999999991,-3.220959999999991,5.9727188754954685,10.124639999999944,-6.29634999999999,11.922766392582666,-2.244199999999978,-0.5965600000000109,2.3221364028841878,16.756330000000048,-2.779450000000025,16.98528590784982,-5.315760000000012,1.144050000000021,5.437476876281882,-14.42172000000005,-4.229449999999957,15.029113582008126,-4.604489999999998,3.11760000000001,5.560643660593623,-13.10423000000003,0.3039200000000335,13.107753860189044,-2.771239999999977,1.153349999999989,3.00166409847935,-6.597229999999968,-7.113430000000022,9.701769428191946,-4.4341400000000135,3.407740000000018,5.59234203596313,-5.476380000000063,0.1422800000000279,5.478227952796479,0.0358999999999696,-3.3777100000000075,3.377900776236633,-4.680500000000052,-4.437540000000013,6.449716389237639,-4.640300000000025,-1.5012499999999989,4.8771032029782,-8.17190000000005,3.748760000000004,8.990725840976404,2.130825000000016,-1.9627649999999903,198.037646,6.860109488037582,197.795825,6.30972063836348,209.035022,8.451968709625065,0.4173516000000001,0.904171734,0.6599040433564631,0,0
37,1233.3333333333337,50.989243,126.860794,0.2108185,48.53751,123.86809,0.04343832,51.25349,124.48361,0.21390492,33.9944,123.23265,0.12256979,48.944042,125.19356,0.6857454,22.326134,132.33505,0.7816987,47.845425,135.83395,0.96069336,7.518799,148.52591,0.60261804,61.879616,146.1079,0.9509759,4.723789,165.34976,0.56939,76.56683,149.3216,0.8945869,19.863924,173.27792,0.9324878,34.4558,174.95703,0.97072494,17.628458,197.00009,0.85822386,29.29366,199.75949,0.9348327,11.712978,218.68639,0.7114181,19.909477,221.31337,0.8105243,1.93127916,-0.32449763,1.77675346,0.6838769,146.98816738715183,156.13575385553014,170.12572429103682,168.22966332032703,11.198870872482962,174.117475,134.0845,126.860794,71.843041,98.08072,0.7324889159409831,7.8070344665358355,0.6620383252941177,-360.952987,-92.803086,372.6921941701296,-357.504377,-96.101336,370.1956865701477,-362.68889,-92.97328000000002,374.4158940581857,-359.23039,-96.06689000000004,371.8538966500475,-358.85106,-93.18375,370.7523358351045,-355.69231,-96.65598,368.59109845857176,-382.95384,-83.94862,392.04720936470136,-378.94023,-86.30131000000003,388.64329920914497,-363.450698,-84.53368999999999,373.1519189575518,-359.984288,-87.85078,370.54884584016094,-413.500266,-69.12565000000001,419.2383874002872,-407.4240459999999,-69.93602000000001,413.3828735596704,-379.906435,-69.95987000000002,386.2942955375165,-374.9250750000001,-73.95944000000003,382.1502461452423,-450.156831,-67.65833999999998,455.2129429920882,-443.353521,-58.91173999999998,447.25041944410185,-380.057984,-73.54952,387.1092908913123,-372.800634,-71.52991,379.60089664726826,-453.338681,-66.81128000000001,458.23542729262886,-458.368471,-63.59032000000002,462.7584510352893,-356.82607,-83.07836,366.3698379123676,-354.58187000000004,-82.48179999999999,364.0488289555907,-469.263276,-29.089330000000015,470.1640259761492,-463.947516,-30.23338000000004,464.9315593383554,-450.25795,-32.098209999999995,451.400616551868,-445.65346,-35.215810000000005,447.04268217243833,-487.956872,-33.96657999999999,489.1376467712547,-485.185632,-35.11992999999998,486.4550410700297,-469.50267,-33.27197000000001,470.6801261205,-465.06853,-36.67971000000003,466.5127422933322,-523.1830219999999,0.8116899999999987,523.1836516460626,-523.2189219999999,4.189400000000006,523.2356939384028,-509.137223,4.6570700000000045,509.158521626749,-504.496923,6.158320000000003,504.534508454764,-30.593770000000006,-32.72459500000002,195.467319,12.297089043781387,187.038145,29.75432907966817,194.0293808,38.28000417362087,-0.94696317,1.069245468,0.3744210022684526,0,0
38,1266.6666666666663,36.909866,134.48018,0.077433065,34.51064,131.91093,0.020190531,38.1216,132.15018,0.051289678,25.619806,130.04434,0.11441959,41.799145,130.8037,0.35062113,20.626045,136.19493,0.73612076,44.31465,136.25017,0.91798264,8.127108,150.76958,0.68320376,56.25186,144.9696,0.93061775,10.389132,167.83638,0.64596117,63.47059,150.81004,0.8753268,23.20829,175.39026,0.95423865,37.11243,175.11859,0.97553605,19.561302,202.68163,0.9048107,30.450117,200.90096,0.94880104,10.93782,224.7753,0.78322524,21.483603,221.94812,0.8506663,1.37812447,-0.28372048,0.32818231,1.30806197,131.83430403889238,177.17072603687393,166.2900027153855,171.41364203409978,3.386957516982692,175.25442500000003,136.22255,134.48018,55.343482,94.73095999999998,0.584217466135491,0.1336090970042437,0.636496756117647,-14.079377,7.619385999999991,16.00886940808516,346.87361,100.422472,361.11767361487983,-14.026869999999995,8.042840000000012,16.169117392810904,348.66202000000004,101.01612000000004,363.0006345591352,-13.13189,7.666570000000007,15.206012973064308,345.71917,100.85032,360.1284931098778,-8.374593999999998,6.811689999999999,10.795042627101385,374.579246,90.76031,385.4180138566756,-7.144897,5.610139999999987,9.084229409267955,356.305801,90.14382999999998,367.53194951367215,-1.7000889999999984,3.859880000000004,4.217697976659902,411.800177,72.98553000000001,418.2179735097623,-3.5307749999999984,0.4162200000000098,3.555223085690263,376.37566,70.37609000000003,382.89872222837687,0.6083090000000002,2.2436699999999803,2.324670924750622,450.76514,69.90200999999996,456.1529375563197,-5.627755999999998,-1.1382999999999868,5.741721386965406,374.430228,72.41122000000001,381.3677758044332,5.665343,2.486619999999988,6.187034049692061,459.004024,69.2979,464.2056580790486,-13.096239999999996,1.488439999999997,13.180552180056791,343.72983,84.5668,353.9798577519191,3.344366000000001,2.112340000000017,3.9555990971730286,472.607642,31.20167000000004,473.6364929854847,2.65663,0.1615600000000085,2.6615380122215053,452.91458,32.25977,454.0620106736847,1.932844000000003,5.6815400000000125,6.00131508087487,489.889716,39.648120000000006,491.4915129095263,1.1564569999999996,1.1414699999999982,1.6249143219717757,470.659127,34.41344000000001,471.9155630841557,-0.7751579999999993,6.088909999999999,6.138053022992224,522.4078639999999,5.27722,522.4345178297189,1.5741259999999997,0.6347499999999968,1.6972861356813105,510.711349,-4.022320000000008,510.7271884828359,1.136950000000013,31.73072000000002,191.03007900000003,15.092177187208224,175.20138500000002,36.581873242491056,180.6356868,45.97700904734393,0.62418507,1.1712865840000002,0.3507433858806353,0,0
40,1333.3333333333333,35.704185,124.49664,0.05971992,33.541985,121.72589,0.016068136,37.126007,122.05739,0.03974387,25.220974,122.43689,0.099168025,42.133995,123.27559,0.29926157,20.761703,134.23209,0.64764076,43.73597,133.90642,0.87841135,7.0784416,149.0305,0.59265006,54.87532,144.83441,0.8963199,7.7025146,150.02536,0.5629341,64.78456,145.11696,0.8242909,21.914898,180.94403,0.9160276,35.437546,180.58107,0.9536651,16.220144,208.64842,0.82049125,28.658592,207.20306,0.8968913,10.278534,228.51941,0.6289695,20.926031,226.81104,0.72230315,0.6681383,-0.06386781,0.41243869,0.52175091,105.14222930293457,137.18203659516757,174.96844322683927,172.76385509439004,4.375327061639929,180.76255,134.069255,124.49664,57.7061184,106.79352,0.5403522410315511,-0.8121376335372894,0.5796797935882353,-1.2056809999999984,-9.98353999999999,10.05607963400056,12.873696000000002,-17.602925999999982,21.80814188466985,-0.9686550000000054,-10.18504,10.230998597919218,13.05821499999999,-18.227880000000013,22.42259102513858,-0.9955929999999996,-10.092790000000008,10.141775752093375,12.136297,-17.759360000000015,21.51010396259882,-0.3988320000000023,-7.60745,7.617897509596989,7.975761999999996,-14.41914,16.4779967781355,0.3348499999999959,-7.528109999999998,7.535553376799872,7.479746999999996,-13.138249999999983,15.118208499901982,0.1356579999999994,-1.96284,1.967522289216567,1.8357469999999976,-5.822720000000004,6.105246534449615,-0.5786799999999985,-2.34375,2.414132267482459,2.952095,-2.75997000000001,4.041323952608236,-1.0486664,-1.7390800000000013,2.030788138848798,-1.6569754000000003,-3.9827499999999816,4.313683465288687,-1.3765399999999983,-0.1351900000000228,1.383162574573214,4.251215999999999,1.003109999999964,4.367959151681243,-2.6866174000000003,-17.811019999999985,18.012505280898107,-8.3519604,-20.297639999999973,21.948791130555847,1.3139699999999976,-5.693079999999981,5.842745677102485,14.410209999999992,-7.181519999999978,16.100570851820734,-1.2933920000000008,5.553769999999986,5.702387577021037,-4.637758000000002,3.4414299999999685,5.775139800166208,-1.6748840000000058,5.462479999999999,5.713486165543417,-4.331514000000006,5.300919999999991,6.845565453532378,-3.341158,5.966789999999975,6.838561229166827,-5.274002000000003,0.2852499999999622,5.28171039138876,-1.791525,6.302099999999996,6.551795649715042,-2.947982,5.160629999999998,5.943290323484456,-0.6592859999999998,3.7441100000000063,3.801712472280886,0.1158719999999995,-2.344799999999992,2.347661253329356,-0.5575720000000004,4.862920000000003,4.894780634674452,-2.131698,4.228170000000006,4.735140748922259,5.508124999999978,4.371174999999965,187.485223,14.98402687019176,161.845171,37.06405109018385,164.3734248,49.12022332496428,-0.7863110600000001,1.071603664,0.4586554483076424,0,0
41,1366.6666666666667,36.137554,126.201385,0.0066225193,33.860886,123.38022,0.002666541,37.229275,123.72249,0.0059773065,26.175451,122.257385,0.15145533,40.623528,123.38641,0.3809223,20.180033,132.97299,0.88543916,45.051044,133.9373,0.95942944,5.5843964,147.43324,0.8310959,56.470497,147.0909,0.96638006,4.9479904,152.52513,0.66584015,68.0049,148.02318,0.87372726,22.693048,175.81673,0.9888082,37.92195,175.79443,0.9941316,15.344635,202.85956,0.9421061,29.181355,202.79681,0.96583873,11.704155,225.27011,0.8091842,20.639124,225.91708,0.8658654,6.9336373,-0.81677109,4.59602617,5.12686597,141.8571574198097,135.5842120922821,174.0247612848885,177.65889444760046,3.119478750701175,175.80558000000002,133.45514500000002,126.201385,63.0569096,103.659695,0.6083069122641456,2.220385484697802,0.6644405998117646,0.433368999999999,1.7047450000000026,1.758966800478624,1.6390499999999977,11.688284999999992,11.802647632786671,0.3189010000000039,1.6543299999999874,1.6847865136868114,1.2875560000000092,11.839369999999988,11.909176396797378,0.1032679999999999,1.6650999999999954,1.6682992207107168,1.0988609999999994,11.757890000000003,11.809126671749317,0.9544770000000008,-0.179505000000006,0.9712097551785626,1.353309000000003,7.427944999999994,7.550219345986308,-1.5104669999999984,0.1108200000000039,1.5145268668759218,-1.8453169999999943,7.638930000000002,7.858654234370476,-0.581669999999999,-1.2590999999999894,1.3869653200062255,-0.7173279999999984,0.7037400000000105,1.0048927540708077,1.3150739999999956,0.0308799999999962,1.3154365054520831,1.8937539999999944,2.374629999999996,3.037296799691456,-1.4940451999999995,-1.5972599999999773,2.1871009504005445,-0.4453787999999994,0.141820000000024,0.4674132945150857,1.5951769999999996,2.2564900000000137,2.763392259783084,2.971716999999998,2.3916800000000364,3.814608125415921,-2.7545242,2.499769999999984,3.7197114970499463,-0.0679067999999993,20.31078999999997,20.310903518986667,3.2203400000000078,2.9062199999999905,4.337822541782916,1.9063700000000097,8.599299999999971,8.808076240979045,0.7781500000000001,-5.127299999999991,5.186012216771178,2.071542000000001,-10.681069999999975,10.880098464750375,2.484404000000005,-4.786640000000006,5.392975590971656,4.159288000000011,-10.249120000000003,11.060928416789622,-0.875509000000001,-5.78886,5.854691803048303,2.465648999999999,-11.755649999999974,12.01144170837541,0.5227630000000012,-4.40625,4.437152264309734,2.314288000000001,-10.708349999999996,10.955577970579366,1.4256209999999996,-3.249300000000005,3.548287717426679,2.0849069999999994,-6.993410000000012,7.297576352923562,-0.2869069999999993,-0.8939599999999928,0.9388717208697824,0.270665000000001,-5.756879999999995,5.763239269423486,-4.956969999999984,-10.465094999999964,182.130255,12.87686803652228,148.291742,30.9513102312056,146.3405758,41.16789514787983,4.60511506,1.854279164,1.8843815737423424,1,1
