frame_id,timestamp_ms,nose_x,nose_y,nose_conf,left_eye_x,left_eye_y,left_eye_conf,right_eye_x,right_eye_y,right_eye_conf,left_ear_x,left_ear_y,left_ear_conf,right_ear_x,right_ear_y,right_ear_conf,left_shoulder_x,left_shoulder_y,left_shoulder_conf,right_shoulder_x,right_shoulder_y,right_shoulder_conf,left_elbow_x,left_elbow_y,left_elbow_conf,right_elbow_x,right_elbow_y,right_elbow_conf,left_wrist_x,left_wrist_y,left_wrist_conf,right_wrist_x,right_wrist_y,right_wrist_conf,left_hip_x,left_hip_y,left_hip_conf,right_hip_x,right_hip_y,right_hip_conf,left_knee_x,left_knee_y,left_knee_conf,right_knee_x,right_knee_y,right_knee_conf,left_ankle_x,left_ankle_y,left_ankle_conf,right_ankle_x,right_ankle_y,right_ankle_conf,acc_x,acc_y,acc_z,acc_mag,left_elbow_angle,right_elbow_angle,left_knee_angle,right_knee_angle,spine_angle,hip_height,shoulder_height,head_height,bbox_width,bbox_height,bbox_aspect_ratio,shoulder_tilt,avg_confidence,nose_vx,nose_vy,nose_speed,nose_ax,nose_ay,nose_accel,left_eye_vx,left_eye_vy,left_eye_speed,left_eye_ax,left_eye_ay,left_eye_accel,right_eye_vx,right_eye_vy,right_eye_speed,right_eye_ax,right_eye_ay,right_eye_accel,left_ear_vx,left_ear_vy,left_ear_speed,left_ear_ax,left_ear_ay,left_ear_accel,right_ear_vx,right_ear_vy,right_ear_speed,right_ear_ax,right_ear_ay,right_ear_accel,left_shoulder_vx,left_shoulder_vy,left_shoulder_speed,left_shoulder_ax,left_shoulder_ay,left_shoulder_accel,right_shoulder_vx,right_shoulder_vy,right_shoulder_speed,right_shoulder_ax,right_shoulder_ay,right_shoulder_accel,left_elbow_vx,left_elbow_vy,left_elbow_speed,left_elbow_ax,left_elbow_ay,left_elbow_accel,right_elbow_vx,right_elbow_vy,right_elbow_speed,right_elbow_ax,right_elbow_ay,right_elbow_accel,left_wrist_vx,left_wrist_vy,left_wrist_speed,left_wrist_ax,left_wrist_ay,left_wrist_accel,right_wrist_vx,right_wrist_vy,right_wrist_speed,right_wrist_ax,right_wrist_ay,right_wrist_accel,left_hip_vx,left_hip_vy,left_hip_speed,left_hip_ax,left_hip_ay,left_hip_accel,right_hip_vx,right_hip_vy,right_hip_speed,right_hip_ax,right_hip_ay,right_hip_accel,left_knee_vx,left_knee_vy,left_knee_speed,left_knee_ax,left_knee_ay,left_knee_accel,right_knee_vx,right_knee_vy,right_knee_speed,right_knee_ax,right_knee_ay,right_knee_accel,left_ankle_vx,left_ankle_vy,left_ankle_speed,left_ankle_ax,left_ankle_ay,left_ankle_accel,right_ankle_vx,right_ankle_vy,right_ankle_speed,right_ankle_ax,right_ankle_ay,right_ankle_accel,hip_velocity,hip_acceleration,hip_height_mean_5,hip_height_std_5,shoulder_height_mean_5,shoulder_height_std_5,head_height_mean_5,head_height_std_5,acc_mag_diff,acc_mag_mean_5,acc_mag_std_5,label_binary,label_3class
0,0.0,528.4688,61.734863,0.9523695,530.94275,59.37796,0.9306176,526.32806,59.448624,0.89766294,535.2248,60.95305,0.7614438,523.53973,61.30693,0.5934022,541.44617,75.156494,0.9886774,520.1345,76.17597,0.9883553,549.2549,92.04738,0.9540063,516.4273,93.88548,0.93227535,548.125,108.66965,0.9287184,514.03577,110.06181,0.89899737,538.6234,109.2191,0.98747766,524.69104,109.54748,0.98690295,540.6296,135.04149,0.96257985,523.88574,135.11166,0.9557022,543.293,156.1193,0.9097916,525.105,155.99193,0.8994442,1.0249235,0.12871821,0.99560097,0.20658781,151.29999109756483,176.58654365769706,177.24076453813183,174.85384171800663,1.472849131852995,109.38329,75.66623200000001,61.734863,35.219130000000064,96.74134,0.3640545979200357,177.261257419605,0.9134367423529411,0.0,0.0,0.0,0.0,0.0,0.0,0.0,0.0,0.0,0.0,0.0,0.0,0.0,0.0,0.0,0.0,0.0,0.0,0.0,0.0,0.0,0.0,0.0,0.0,0.0,0.0,0.0,0.0,0.0,0.0,0.0,0.0,0.0,0.0,0.0,0.0,0.0,0.0,0.0,0.0,0.0,0.0,0.0,0.0,0.0,0.0,0.0,0.0,0.0,0.0,0.0,0.0,0.0,0.0,0.0,0.0,0.0,0.0,0.0,0.0,0.0,0.0,0.0,0.0,0.0,0.0,0.0,0.0,0.0,0.0,0.0,0.0,0.0,0.0,0.0,0.0,0.0,0.0,0.0,0.0,0.0,0.0,0.0,0.0,0.0,0.0,0.0,0.0,0.0,0.0,0.0,0.0,0.0,0.0,0.0,0.0,0.0,0.0,0.0,0.0,0.0,0.0,0.0,0.0,109.38329,0.0,75.66623200000001,0.0,61.734863,0.0,0.0,0.20658781,0.0,0,0
1,33.333333333333336,528.30914,61.568962,0.954304,530.81464,59.236176,0.9319416,526.174,59.28398,0.904096,535.0707,60.93492,0.7586186,523.3196,61.220444,0.6118536,541.1768,75.25763,0.98878914,519.6346,76.24834,0.98905504,548.8433,92.24823,0.95352125,515.7378,94.127045,0.937184,548.10596,108.966255,0.9278127,513.63556,110.60067,0.9039158,538.5062,109.47925,0.98696184,524.3686,109.829834,0.98675865,541.02716,135.51363,0.95848644,523.64386,135.5899,0.95243657,544.0659,156.55904,0.8976981,524.9409,156.43399,0.888643,1.00321808,0.16679325,0.97496675,0.16753019,153.18878250011846,174.9765938984797,177.3146813667506,174.82776619795405,1.7431559084623565,109.654542,75.752985,61.568962,35.207739999999944,97.322864,0.3617622641914615,177.36686439087083,0.9136515488235296,-0.1596600000000307,-0.165900999999998,0.2302486859919274,-0.1596600000000307,-0.165900999999998,0.2302486859919274,-0.1281099999999924,-0.1417840000000012,0.1910886567957355,-0.1281099999999924,-0.1417840000000012,0.1910886567957355,-0.1540600000000722,-0.1646440000000026,0.2254819955917171,-0.1540600000000722,-0.1646440000000026,0.2254819955917171,-0.1540999999999712,-0.0181299999999993,0.1551628399456233,-0.1540999999999712,-0.0181299999999993,0.1551628399456233,-0.2201299999999264,-0.0864860000000007,0.236510137406344,-0.2201299999999264,-0.0864860000000007,0.236510137406344,-0.2693700000000945,0.101136000000011,0.287730233719109,-0.2693700000000945,0.101136000000011,0.287730233719109,-0.4999000000000251,0.0723699999999922,0.5051113014970304,-0.4999000000000251,0.0723699999999922,0.5051113014970304,-0.4116000000000213,0.2008500000000026,0.4579904829797434,-0.4116000000000213,0.2008500000000026,0.4579904829797434,-0.6894999999999527,0.2415649999999942,0.730591472181911,-0.6894999999999527,0.2415649999999942,0.730591472181911,-0.0190400000000181,0.2966049999999995,0.2972154902171157,-0.0190400000000181,0.2966049999999995,0.2972154902171157,-0.4002099999999018,0.5388599999999997,0.6712213820342146,-0.4002099999999018,0.5388599999999997,0.6712213820342146,-0.1171999999999116,0.2601499999999959,0.2853311453381441,-0.1171999999999116,0.2601499999999959,0.2853311453381441,-0.3224400000000287,0.2823540000000122,0.4285922711809272,-0.3224400000000287,0.2823540000000122,0.4285922711809272,0.3975599999999986,0.472139999999996,0.6172277806450347,0.3975599999999986,0.472139999999996,0.6172277806450347,-0.2418800000000374,0.4782399999999995,0.5359285698673076,-0.2418800000000374,0.4782399999999995,0.5359285698673076,0.7729000000000497,0.4397400000000004,0.8892388192156689,0.7729000000000497,0.4397400000000004,0.8892388192156689,-0.1640999999999621,0.4420599999999979,0.4715356334361018,-0.1640999999999621,0.4420599999999979,0.4715356334361018,0.271252000000004,0.271252000000004,109.518916,0.1918041286104162,75.7096085,0.0613436345882676,61.6519125,0.1173097221056255,-0.03905762,0.187059,0.0276179079590073,0,0
2,66.66666666666667,528.0046,61.294006,0.95697004,530.5399,58.949768,0.93337554,525.82806,58.999863,0.91230005,534.7843,60.6549,0.7521793,522.8808,60.943474,0.6371491,540.77576,74.97676,0.9891255,519.1184,75.993065,0.9903252,548.52405,91.9713,0.9537065,515.13055,93.85658,0.94581574,548.06354,108.84743,0.9287293,512.84424,110.52804,0.9145935,538.2393,109.305824,0.9872918,524.0145,109.69659,0.98774827,540.96875,135.26964,0.9574995,523.4154,135.37556,0.95377755,544.30945,156.19681,0.8935715,524.9083,156.12706,0.88826454,1.02845855,0.15230017,1.00247904,0.17195181,153.92734014642286,175.22441968775112,176.93132182561942,174.54863775366402,1.986497103171228,109.501207,75.48491250000001,61.294006,35.679809999999975,97.247042,0.3668986624097143,177.31327821920428,0.9166131135294118,-0.3045399999999745,-0.274955999999996,0.4102991756462377,-0.1448799999999437,-0.1090549999999979,0.1813372753324126,-0.2747400000000652,-0.2864080000000015,0.3968773236959209,-0.1466300000000728,-0.1446240000000003,0.2059525631693411,-0.3459399999999277,-0.2841170000000019,0.4476571827737729,-0.1918799999998555,-0.1194729999999992,0.2260348029152687,-0.2863999999999578,-0.2800200000000004,0.4005448294510566,-0.1322999999999865,-0.261890000000001,0.293410398759139,-0.4388000000000147,-0.2769699999999986,0.5189005886487431,-0.2186700000000883,-0.1904839999999978,0.2900012468180746,-0.4010399999999663,-0.2808700000000073,0.4896131518862387,-0.1316699999998718,-0.3820060000000183,0.4040613479856496,-0.5162000000000262,-0.2552749999999975,0.5758713099512996,-0.016300000000001,-0.3276449999999897,0.3280502035131106,-0.3192500000000109,-0.2769300000000072,0.422623694792437,0.0923500000000103,-0.4777800000000098,0.4866233152038764,-0.6072500000000218,-0.2704650000000015,0.6647585115852428,0.0822499999999308,-0.5120299999999958,0.5185940448944476,-0.0424199999999928,-0.118825000000001,0.1261698736822687,-0.0233799999999746,-0.4154300000000006,0.4160873818081958,-0.7913200000000415,-0.0726299999999895,0.7946461220568967,-0.3911100000001397,-0.6114899999999892,0.7258698589968425,-0.2669000000000778,-0.1734259999999921,0.3182957547251279,-0.1497000000001662,-0.4335759999999879,0.4586918767277652,-0.3541000000000167,-0.1332440000000048,0.3783394950781812,-0.031659999999988,-0.415598000000017,0.4168021751430928,-0.0584099999999807,-0.2439899999999966,0.2508841330176065,-0.4559699999999793,-0.7161299999999926,0.8489704457753348,-0.2284600000000409,-0.2143399999999928,0.3132660326304396,0.0134199999999964,-0.6925799999999924,0.6927100062796765,0.2435499999999137,-0.3622300000000109,0.4364941871319318,-0.5293500000001359,-0.8019700000000114,0.9609200296591608,-0.0326000000000021,-0.3069299999999941,0.3086564188543574,0.1314999999999599,-0.748989999999992,0.7604460994048017,-0.1533349999999984,-0.4245870000000025,109.513013,0.1360108381821113,75.63470983333333,0.1367879803110691,61.53261033333333,0.2226652338474303,0.00442162,0.18202327,0.0213880842974493,0,0
3,100.0,527.635,61.35972,0.96834,530.2244,58.988243,0.95072037,525.45624,59.19729,0.9289924,534.63696,60.485336,0.82564676,522.7852,61.26924,0.690859,540.49805,74.872696,0.9953269,519.5326,76.47493,0.9962369,547.4743,91.49571,0.9762264,515.965,93.66625,0.97387516,548.9788,108.645226,0.9580978,512.387,110.02609,0.95131725,538.14703,110.13014,0.9936005,524.50684,110.81813,0.994344,540.5762,135.58298,0.9716916,524.3905,135.95244,0.9710934,544.05176,157.08057,0.9069142,526.2715,157.30234,0.90527105,0.98590751,0.13215725,0.95678899,0.19774458,162.24709630238118,179.38708684477632,176.26802109575067,174.6998382690634,2.1584766728167017,110.474135,75.673813,61.35972,36.59180000000004,98.314097,0.3721928059595282,175.629802812532,0.9387384523529412,-0.3695999999999912,0.0657139999999998,0.3753964435047214,-0.0650600000000167,0.3406699999999958,0.3468268335927878,-0.3155000000000427,0.0384749999999982,0.3178373414579017,-0.0407599999999774,0.3248829999999998,0.32742990286319,-0.3718200000000706,0.1974270000000046,0.420984005312618,-0.0258800000001429,0.4815440000000066,0.4822389431972638,-0.1473399999999856,-0.1695640000000011,0.2246353171164235,0.1390599999999722,0.1104559999999992,0.1775900096739456,-0.0955999999999903,0.3257660000000015,0.3395038243613747,0.3432000000000244,0.6027360000000002,0.693597091758621,-0.2777099999999564,-0.1040639999999939,0.2965672945487659,0.1233300000000099,0.1768060000000133,0.2155705233467859,0.4142000000000507,0.4818649999999991,0.6354175935753127,0.9304000000000768,0.7371399999999966,1.1870212886044371,-1.0497500000000173,-0.4755899999999968,1.1524586372621073,-0.7305000000000064,-0.1986599999999896,0.7570310730742862,0.8344500000000608,-0.1903299999999887,0.855881014744513,1.4417000000000826,0.0801350000000127,1.443925381806567,0.9152599999999892,-0.2022040000000089,0.9373298913488164,0.957679999999982,-0.0833790000000078,0.9613027827073876,-0.4572400000000698,-0.5019500000000079,0.67898617077233,0.3340799999999717,-0.4293200000000183,0.5439899896137768,-0.0922699999999849,0.824315999999996,0.8294640563375791,0.1746300000000928,0.997741999999988,1.0129090459977188,0.4923400000000129,1.121539999999996,1.224847193408224,0.8464400000000296,1.2547840000000008,1.5135863240185716,-0.3925500000000284,0.3133399999999824,0.5022722947764601,-0.3341400000000476,0.557329999999979,0.6498201816656731,0.9750999999999976,0.5768799999999885,1.1329653765230348,1.2035600000000386,0.7912199999999814,1.4403422378032462,-0.257690000000025,0.8837599999999952,0.9205628026919208,-0.5012399999999388,1.245990000000006,1.3430311305773794,1.3631999999998925,1.1752799999999866,1.7998881405242035,1.395799999999895,1.4822099999999807,2.035977437031081,0.972927999999996,1.1262629999999945,109.75329349999998,0.4932256144906402,75.644485625,0.113385325840227,61.48938775,0.2013106333081154,0.0257927699999999,0.1859535975,0.0191508919802418,0,0
4,133.33333333333334,526.64343,61.522766,0.9678705,529.2315,59.169785,0.95082575,524.57404,59.395493,0.9263094,533.84314,60.5793,0.82907254,522.20966,61.42833,0.67815137,539.9481,74.780815,0.9953023,519.089,76.45221,0.99617505,546.98,91.131805,0.97671825,515.1888,93.42618,0.9739402,548.547,107.8957,0.9589344,511.7585,109.718506,0.95167553,537.82166,110.24472,0.9935855,524.2363,110.94195,0.99430686,540.59753,135.77118,0.97122777,524.11755,136.11685,0.9704772,544.4374,157.34204,0.9045083,526.18536,157.47916,0.9024775,0.98153675,0.10439931,0.97177336,0.09039752,162.06960170623873,178.949241425828,176.11262864653276,174.20089545074987,2.472747626970315,110.593335,75.6165125,61.522766,36.7885,98.30937500000002,0.3742115095919233,175.41879968448475,0.9377387305882352,-0.9915700000000244,0.1630459999999942,1.0048855969791022,-0.621970000000033,0.0973319999999944,0.6295396723988409,-0.9928999999999631,0.1815420000000003,1.0093601476994856,-0.6773999999999205,0.143067000000002,0.6923430699363523,-0.8822000000000116,0.1982029999999994,0.9041909473164506,-0.510379999999941,0.0007759999999947,0.5103805899286725,-0.7938200000000961,0.0939640000000068,0.7993618865671254,-0.6464800000001105,0.263528000000008,0.69812849618401,-0.5755400000000463,0.159089999999999,0.5971230356468029,-0.479940000000056,-0.1666760000000025,0.5080583554829647,-0.5499500000000808,-0.0918810000000007,0.5575725250235066,-0.2722400000001244,0.0121829999999931,0.2725124640985574,-0.4435999999999467,-0.0227200000000067,0.4441814476089169,-0.8577999999999975,-0.5045850000000058,0.9952019203282324,-0.4942999999999529,-0.3639050000000026,0.6138072490814648,0.5554500000000644,0.1116849999999942,0.56656706727895,-0.7762000000000171,-0.2400700000000029,0.8124777196329926,-1.610650000000078,-0.0497400000000141,1.6114178508693058,-0.4317999999999529,-0.7495259999999888,0.8650089390728529,-1.3470599999999422,-0.5473219999999799,1.4540055073086289,-0.6284999999999172,-0.3075839999999914,0.6997286381561717,-0.1712599999998474,0.1943660000000164,0.2590523683658463,-0.3253700000000208,0.1145800000000036,0.34495537870863,-0.2331000000000358,-0.7097359999999924,0.7470346710133379,-0.2705399999999827,0.1238200000000091,0.2975286271940784,-0.7628799999999956,-0.9977199999999868,1.2559582368852744,0.0213300000000344,0.1881999999999948,0.189404880876918,0.4138800000000628,-0.1251399999999876,0.4323848679128919,-0.2729499999999234,0.1644100000000037,0.31864141381804,-1.248049999999921,-0.4124699999999848,1.3144429631596004,0.3856400000000803,0.2614700000000027,0.4659235672297157,0.6433300000001054,-0.6222899999999925,0.8950521398221034,-0.0861400000000003,0.1768200000000206,0.1966860747485885,-1.4493399999998928,-0.998459999999966,1.7599740927637604,0.1192000000000064,-0.8537279999999896,109.9213018,0.5688475845397496,75.638891,0.0989882479457738,61.4960634,0.174977998122045,-0.10734706,0.166842382,0.0458395057474049,0,0
5,166.66666666666666,526.2241,61.546455,0.9602376,528.7822,59.1781,0.9371295,524.0081,59.284134,0.9197819,533.108,60.693947,0.7562256,521.12787,61.184555,0.6561898,539.30945,74.64314,0.9900935,517.64307,76.067116,0.9917576,547.5395,91.07673,0.95762366,513.7236,93.78183,0.95513946,547.56525,107.55606,0.93437016,510.98312,110.55638,0.9268791,537.367,109.13855,0.98840207,523.1149,109.74243,0.989233,541.3164,135.2453,0.95777214,523.207,135.50105,0.9558552,545.36707,155.83145,0.8892811,524.9199,155.90173,0.88688153,0.97366059,0.12429659,0.95973673,0.10710141,153.48751770554156,176.80252355313127,177.47071587305985,175.4053971021574,2.963741481647619,109.44049,75.35512800000001,61.546455,36.58213000000001,96.72363,0.3782129519103766,176.23976659601192,0.920756054117647,-0.4193299999999453,0.0236890000000045,0.4199985924035394,0.5722400000000789,-0.1393569999999897,0.5889643376717197,-0.4492999999999938,0.0083150000000031,0.4493769344603642,0.5435999999999694,-0.1732269999999971,0.5705335691516896,-0.565939999999955,-0.1113590000000002,0.5767919126348332,0.3162600000000566,-0.3095619999999996,0.4425483244167077,-0.7351400000000012,0.1146469999999979,0.7440260440394553,0.0586800000000948,0.0206829999999911,0.0622183967087771,-1.0817899999999554,-0.2437749999999994,1.1089165228838929,-0.506249999999909,-0.4028649999999985,0.6469847530853464,-0.6386499999999842,-0.1376750000000015,0.6533209227668897,-0.0886999999999034,-0.0457940000000007,0.0998237468540574,-1.4459300000000894,-0.3850939999999951,1.4963325010625996,-1.0023300000001427,-0.3623739999999884,1.06582378692553,0.5594999999999573,-0.0550750000000022,0.5622041494198993,1.05379999999991,0.3088300000000004,1.0981213088269488,-1.4651999999999816,0.3556499999999971,1.5077459873930834,-0.6889999999999645,0.59572,0.9108256245846136,-0.9817500000000337,-0.3396400000000028,1.038839926119548,-0.5499500000000808,0.409885999999986,0.6858946970899231,-0.775380000000041,0.8378739999999993,1.1415984338969911,-0.1468800000001238,1.1454579999999908,1.1548366828967702,-0.4546599999999898,-1.106170000000006,1.1959631200417526,-0.129289999999969,-1.2207500000000095,1.2275774788582656,-1.1213999999999942,-1.1995200000000068,1.642067657071414,-0.8508600000000115,-1.323340000000016,1.573274132247798,0.7188700000000381,-0.5258800000000008,0.8906872915339342,0.6975400000000036,-0.7140799999999956,0.9982345906649392,-0.9105500000000576,-0.6158000000000072,1.0992319784741134,-0.6376000000001341,-0.780210000000011,1.0076018083053386,0.9296699999999872,-1.5105900000000076,1.77374419153383,0.544029999999907,-1.7720600000000104,1.8536896408244652,-1.2654599999999618,-1.577430000000021,2.022294344673883,-1.1793199999999615,-1.7542500000000416,2.11380905592252,-1.1528449999999992,-1.2720450000000056,109.9327418,0.5557470692290751,75.57667020000001,0.1578064186355358,61.458381800000005,0.1233731624025202,0.01670389,0.146945102,0.0458661560419964,0,0
6,200.0,525.9177,61.66774,0.96152276,528.50214,59.293503,0.9385122,523.69196,59.420273,0.9228028,532.83777,60.81357,0.7583143,520.82355,61.369995,0.6661131,538.8784,74.70683,0.9905504,517.4469,76.18486,0.99245703,546.8968,90.81996,0.95891494,513.17737,93.444405,0.9588198,546.97205,107.05982,0.9368172,510.06586,109.9198,0.9323932,536.9785,108.78336,0.98933417,522.9554,109.42703,0.99031115,540.9242,134.32944,0.9617368,523.6018,134.62137,0.9606788,544.6911,154.69365,0.9006694,525.5089,154.80345,0.8995888,0.98251844,0.13092902,0.97152771,0.06583298,153.80910558335268,176.80035219897476,178.3002744780076,176.07156866257247,3.068419152448089,109.105195,75.44584499999999,61.66774,36.90618999999998,95.509947,0.3864119997217461,176.05482569860763,0.9246786382352942,-0.3064000000000533,0.1212850000000003,0.329531502629161,0.112929999999892,0.0975959999999958,0.1492587153769414,-0.2800599999999349,0.1154030000000005,0.3029050280351313,0.1692400000000589,0.1070879999999974,0.2002748544975613,-0.3161400000000185,0.136139,0.3442068083594682,0.2497999999999365,0.2474980000000002,0.3516465555127313,-0.2702299999999695,0.1196229999999971,0.2955231209719179,0.4649100000000317,0.0049759999999992,0.464936628666778,-0.3043200000000752,0.1854399999999998,0.3563687079417126,0.7774699999998802,0.4292149999999992,0.88807945428594,-0.4310499999999138,0.063689999999994,0.43572986884069,0.2076000000000704,0.2013649999999955,0.2892155307465825,-0.1961699999999382,0.1177440000000018,0.2287931782986026,1.2497600000001512,0.502837999999997,1.347125128503056,-0.6426999999999907,-0.256770000000003,0.6920940130502428,-1.202199999999948,-0.2016950000000008,1.21900193315059,-0.5462300000000369,-0.3374249999999961,0.6420458266549496,0.9189699999999448,-0.6930749999999932,1.151025115505691,-0.5932000000000244,-0.4962400000000002,0.7733953565932686,0.3885500000000093,-0.1565999999999974,0.4189208308260719,-0.9172599999999989,-0.6365800000000092,1.116512428950081,-0.1418799999999578,-1.4744540000000086,1.4812645045757402,-0.3884999999999081,-0.3551899999999932,0.5263954655009139,0.0661600000000817,0.7509800000000126,0.7538886562351431,-0.15949999999998,-0.3153999999999968,0.353436571395762,0.9619000000000142,0.88412000000001,1.3064914023444796,-0.3922000000000025,-0.9158599999999808,0.9963033572160472,-1.1110700000000406,-0.38997999999998,1.177523224951455,0.394800000000032,-0.8796799999999791,0.9642115651660628,1.3053500000000895,-0.2638799999999719,1.3317549612823745,-0.6759700000000066,-1.1377999999999986,1.3234516541604404,-1.605639999999994,0.372790000000009,1.6483483229281326,0.5890000000000555,-1.0982799999999884,1.246250359438279,1.854460000000017,0.4791500000000326,1.9153607007819955,-0.3352949999999879,0.8175500000000113,109.8228724,0.6675517530527499,75.5152422,0.1292021588309419,61.4781374,0.1504453434168013,-0.0412684299999999,0.12660566,0.0559056863460538,0,0
7,233.3333333333333,525.6355,61.739136,0.96141,528.2044,59.341896,0.93932223,523.3659,59.50923,0.922327,532.4654,60.820343,0.7628559,520.43427,61.48378,0.6631331,538.5997,74.68004,0.9904757,517.03766,76.33195,0.99215126,546.6782,90.71828,0.95887053,512.91815,93.59743,0.95675963,546.805,107.034164,0.9363751,510.06464,109.889336,0.9294841,536.79156,108.779144,0.98875916,522.71606,109.506874,0.98961556,540.5604,134.42297,0.95915705,523.4785,134.79662,0.9573807,543.9645,154.72449,0.8937,525.4657,154.94154,0.89146054,0.99677211,0.08081735,0.99265322,0.04077714,153.7107633791214,176.5147633680102,178.84218501897675,176.0931111405462,3.2926138620062573,109.143009,75.50599500000001,61.739136,36.74035999999995,95.599644,0.3843148162317961,175.61901628138892,0.9231316211764706,-0.2821999999999889,0.071396,0.2910914440789934,0.0242000000000643,-0.0498890000000002,0.0554486457995427,-0.2977400000000898,0.0483929999999972,0.3016471283620204,-0.0176800000001549,-0.0670100000000033,0.0693031204204105,-0.326059999999984,0.0889570000000006,0.3379770279900539,-0.0099199999999655,-0.0471819999999993,0.0482135616191052,-0.3723699999999326,0.0067730000000025,0.3724315916097208,-0.102139999999963,-0.1128499999999945,0.1522094021405748,-0.3892799999999852,0.113785,0.4055686681993427,-0.08495999999991,-0.0716549999999998,0.1111424339529447,-0.2787000000000716,-0.0267899999999912,0.2799846318997517,0.1523499999998421,-0.0904799999999852,0.1771924177270269,-0.409240000000068,0.1470900000000057,0.4348710679041057,-0.2130700000001297,0.0293460000000038,0.2150814092757798,-0.2186000000000376,-0.1016800000000017,0.2410908177430588,0.424099999999953,0.1550900000000012,0.451568065854928,-0.2592200000000275,0.1530249999999995,0.3010177055008793,0.2870100000000093,0.4904499999999956,0.5682569336136613,-0.1670500000000174,-0.0256559999999979,0.1690086768068602,0.4261500000000069,0.4705840000000023,0.6348646497923853,-0.0012199999999893,-0.0304639999999949,0.0304884190472327,0.9160400000000096,0.6061160000000143,1.0984106186012743,-0.1869400000000496,-0.0042159999999995,0.1869875350284573,0.2015599999998585,0.3509739999999937,0.4047334706642613,-0.2393400000000838,0.0798439999999942,0.252306757610729,-0.0798400000001038,0.395243999999991,0.4032272871917394,-0.3638000000000829,0.093529999999987,0.3756305377629166,0.0283999999999196,1.0093899999999678,1.0097894493902828,-0.1232999999999719,0.175249999999977,0.2142789128682172,-0.518100000000004,1.0549299999999562,1.17528928987714,-0.7265999999999622,0.0308400000000119,0.7272541960002333,-0.0506299999999555,1.1686400000000106,1.1697362294551794,-0.0432000000000698,0.1380900000000053,0.1446896267878507,-0.6322000000001253,1.2363699999999938,1.3886279620186766,0.0378139999999973,0.3731089999999852,109.7512328,0.7272526768044215,75.5194587,0.1283058036789487,61.567163400000005,0.1458791955516669,-0.0250558399999999,0.100370726,0.05993889759359,0,0
8,266.6666666666667,525.74054,61.63137,0.9630335,528.19305,59.218292,0.93710667,523.33453,59.42563,0.9305613,532.08496,60.75009,0.74034935,519.9855,61.487503,0.70309263,538.09656,74.67236,0.9903861,516.2751,76.49318,0.993087,546.5647,90.683754,0.95593524,512.3114,93.9288,0.9632386,546.73413,106.76044,0.93284047,509.53714,109.99696,0.9373318,536.4459,108.92056,0.98847884,522.2315,109.78623,0.9901418,540.23145,134.71106,0.9556826,523.42017,135.24675,0.95741236,543.35596,154.9116,0.8827503,525.5147,155.41676,0.886959,1.01442386,0.19749893,0.99461838,0.02800358,152.73024683836812,176.98828950973763,179.55775448890827,176.74445247284024,3.6476839857276064,109.353395,75.58277,61.63137,37.19699000000003,96.19846800000002,0.386669251461788,175.23019149930263,0.924022797647059,0.1050400000000308,-0.1077660000000051,0.1504889110732335,0.3872400000000198,-0.1791620000000051,0.4266776767584838,-0.011349999999993,-0.1236040000000002,0.1241240158712241,0.2863900000000967,-0.1719969999999975,0.3340691546806657,-0.031370000000038,-0.0836000000000041,0.0892918635711176,0.2946899999999459,-0.1725570000000047,0.3414939448203581,-0.3804400000000214,-0.070253000000001,0.3868721721822551,-0.0080700000000888,-0.0770260000000035,0.0774475924480676,-0.4487699999999677,0.0037229999999937,0.4487854427551889,-0.0594899999999825,-0.1100620000000063,0.1251107666989508,-0.5031400000000303,-0.0076800000000076,0.5031986108884152,-0.2244399999999586,0.0191099999999835,0.2252520936639231,-0.7625600000000077,0.1612299999999891,0.7794182872501826,-0.3533199999999397,0.0141399999999833,0.3536028308709602,-0.1134999999999308,-0.0345259999999996,0.1186351325534905,0.1051000000001067,0.0671540000000021,0.1247223705516485,-0.60674999999992,0.3313699999999926,0.6913404656172659,-0.3475299999998924,0.1783449999999931,0.3906200710728044,-0.0708699999998998,-0.2737240000000014,0.2827496862526757,0.0961800000001176,-0.2480680000000035,0.266060754385205,-0.527499999999975,0.1076240000000012,0.5383671380907028,-0.5262799999999856,0.1380879999999962,0.5440946003628264,-0.3456599999999525,0.1414159999999924,0.3734693034989155,-0.1587199999999029,0.145631999999992,0.2154082584859895,-0.4845599999999876,0.279356000000007,0.559319379546241,-0.2452199999999038,0.1995120000000128,0.3161295407644751,-0.3289499999999634,0.288090000000011,0.4372687395641064,0.0348500000001195,0.194560000000024,0.1976565609839898,-0.058330000000069,0.4501300000000015,0.4538936062559258,0.0649699999999029,0.2748800000000244,0.2824537401062355,-0.6085400000000618,0.1871099999999899,0.6366561738490183,0.1180599999999003,0.1562699999999779,0.1958532014034224,0.0489999999999781,0.4752200000000073,0.4777395194036231,0.092200000000048,0.3371300000000019,0.3495103387598286,0.2103859999999997,0.1725720000000024,109.5270848,0.6123849929784344,75.50125010000001,0.1053266612024293,61.6214934,0.0886762898964714,-0.01277356,0.066422526,0.0330288538255246,0,0
9,300.0,525.24634,61.800056,0.96079874,527.7399,59.35562,0.9370779,522.82837,59.577126,0.9238376,531.7309,60.90605,0.75219715,519.5254,61.673477,0.6764038,537.90906,74.88808,0.9900677,515.8951,76.77414,0.9919469,546.3762,90.88401,0.955549,511.96167,94.371544,0.95524085,546.6755,106.85305,0.931396,509.7926,110.469604,0.9264609,536.4617,108.966324,0.98802173,522.11237,109.84453,0.9890514,540.07495,134.35474,0.95702606,522.99115,134.88103,0.9558531,542.94385,154.71848,0.8909404,525.0987,155.15898,0.8898725,1.01442386,0.19749893,0.99461838,0.02800358,153.18008906435958,175.07404865026373,179.91925903185583,176.076628888299,4.063210361444117,109.405427,75.83111,61.800056,36.88290000000006,95.80336,0.3849854495188333,175.10310592976165,0.9218671605882351,-0.494199999999978,0.168686000000001,0.5221959465526121,-0.5992400000000089,0.2764520000000061,0.6599350618841326,-0.4531499999999369,0.1373280000000036,0.4735017445416055,-0.4417999999999438,0.2609320000000039,0.5131011095524471,-0.5061600000000226,0.1514960000000016,0.5283455153741946,-0.4747899999999845,0.2350960000000057,0.5298072039109962,-0.354060000000004,0.1559600000000003,0.3868875872911961,0.0263800000000173,0.2262130000000013,0.2277459676240207,-0.4601000000000113,0.1859740000000016,0.4962643838479757,-0.0113300000000435,0.1822510000000079,0.1826028365086476,-0.1875,0.2157200000000045,0.2858170190873909,0.3156400000000303,0.2234000000000122,0.3866990685274851,-0.3799999999999954,0.2809600000000074,0.4725870518751023,0.3825600000000122,0.1197300000000183,0.4008583621430563,-0.1884999999999763,0.2002560000000102,0.275017664043594,-0.0750000000000454,0.2347820000000098,0.2464702568749654,-0.3497300000000223,0.4427440000000047,0.5642103530032214,0.2570199999998976,0.111374000000012,0.2801132775788218,-0.0586299999999937,0.0926099999999934,0.1096087998292018,0.0122399999999061,0.3663339999999948,0.3665384252107737,0.2554599999999709,0.4726440000000025,0.5372635873907587,0.7829599999999459,0.3650200000000012,0.863866865900016,0.0157999999998992,0.0457640000000054,0.0484147053693122,0.3614599999998518,-0.0956519999999869,0.3739019078633998,-0.1191299999999273,0.0583000000000026,0.1326304900842299,0.3654300000000603,-0.2210560000000043,0.4270887964300234,-0.1565000000000509,-0.3563200000000108,0.3891737303570524,0.1724499999999125,-0.6444100000000219,0.6670856396295741,-0.4290200000000368,-0.3657199999999818,0.5637457572346051,-0.3706899999999677,-0.8158499999999833,0.8961151145918413,-0.4121099999999842,-0.1931199999999933,0.455115355157332,0.1964300000000776,-0.3802299999999832,0.4279714918075942,-0.41599999999994,-0.2577799999999968,0.4893940420560393,-0.4649999999999181,-0.7330000000000041,0.8680518417697931,0.0520319999999969,-0.1583540000000027,109.2895032,0.1547155183787241,75.5441696,0.1807529651300407,61.67695140000001,0.0977413568393836,0.0,0.053943738,0.0334896814885483,0,0
10,333.3333333333333,525.2903,61.88955,0.9612196,527.7318,59.429916,0.93512344,522.82043,59.675766,0.92673624,531.5898,60.980362,0.73993737,519.37354,61.788315,0.69320536,537.6765,74.9948,0.9902293,515.64056,76.89205,0.9927689,546.12805,90.84082,0.9546893,511.18668,94.3349,0.9602595,546.45544,106.212,0.9313269,509.00516,110.1044,0.9334939,536.24615,109.1644,0.9892652,522.02295,110.05882,0.9906651,539.3157,134.28166,0.9634566,523.28564,134.82904,0.964111,541.4239,155.37805,0.9083086,525.55524,155.8779,0.91018754,1.00170635,0.16630196,0.98700338,0.03979456,153.1467129011425,173.55227697768154,178.7392202029167,176.76403027561963,4.20608787075122,109.61161,75.94342499999999,61.88955,37.45027999999997,96.44798400000002,0.3882951002034926,175.07908433126985,0.9261755205882354,0.04395999999997,0.0894940000000019,0.0997078614553422,0.538159999999948,-0.079191999999999,0.543955474707208,-0.008100000000013,0.0742959999999968,0.0747362403121787,0.4450499999999238,-0.0630320000000068,0.449491418743376,-0.0079399999999623,0.0986400000000031,0.0989590480956644,0.4982200000000603,-0.0528559999999984,0.5010158930972748,-0.1411000000000513,0.074311999999999,0.159472515951854,0.2129599999999527,-0.0816480000000012,0.2280753329581699,-0.1518599999999423,0.1148379999999988,0.1903922946024398,0.3082400000000689,-0.0711360000000027,0.3163419480499588,-0.2325599999999212,0.1067199999999957,0.2558775332067324,-0.0450599999999212,-0.1090000000000088,0.1179466133468648,-0.2545399999999063,0.1179099999999948,0.2805234031234311,0.1254600000000891,-0.1630500000000125,0.2057316555613804,-0.2481500000000096,-0.0431900000000098,0.2518805244555553,-0.0596500000000332,-0.24344600000002,0.2506473167939639,-0.7749900000000025,-0.0366439999999954,0.7758558389520591,-0.4252599999999802,-0.4793880000000001,0.6408267489298362,-0.2200600000001031,-0.6410499999999928,0.677769508092564,-0.1614300000001094,-0.7336599999999862,0.7512101174105784,-0.7874400000000037,-0.3652040000000056,0.8680067483700861,-1.0428999999999746,-0.8378480000000081,1.3377704141981763,-0.2155500000000074,0.1980760000000003,0.2927386279191787,-0.2313499999999066,0.1523119999999949,0.2769869452590776,-0.0894200000000182,0.2142899999999912,0.2321984937504968,0.029709999999909,0.1559899999999885,0.1587940937188503,-0.7592499999999518,-0.0730800000000044,0.7627589716941567,-0.6027499999999009,0.2832400000000064,0.6659823271678341,0.2944899999999961,-0.0519900000000177,0.2990440104733742,0.723510000000033,0.3137299999999641,0.7886020751938364,-1.5199499999999944,0.6595700000000022,1.6568888277129477,-1.10784000000001,0.8526899999999955,1.3979948861494504,0.4565400000000181,0.7189199999999971,0.8516306347237707,0.8725399999999581,0.976699999999994,1.309682763725596,0.2061829999999958,0.1541509999999988,109.3237272,0.2066681715097851,75.661829,0.2151371733743486,61.7455704,0.103488537832965,0.01179098,0.040482368,0.0154487361865725,0,0
11,366.6666666666666,525.1015,61.921646,0.9588961,527.3163,59.390045,0.93566436,522.6075,59.85402,0.91329587,531.2277,60.596107,0.7859935,519.3292,61.865776,0.6772867,537.8198,74.677216,0.9938467,516.02594,76.87442,0.99497485,545.41473,90.98221,0.96254194,511.5634,94.49872,0.9571752,545.71173,106.59801,0.93367714,508.61765,108.99942,0.92081034,537.0283,109.23501,0.99255145,523.2237,110.23603,0.9932066,539.3598,133.73235,0.9720401,524.3618,134.43416,0.97062397,540.14105,156.15327,0.92479366,526.8062,156.84425,0.92273074,1.00950025,0.1616347,0.99265322,0.08720413,156.11330002534305,177.27422754450546,176.55897468881142,176.46780376115785,5.388300321649352,109.73552,75.775818,61.921646,37.09407999999996,97.454205,0.3806308780556887,174.2430311272556,0.9300064247058824,-0.1888000000000147,0.0320960000000027,0.1915087288245779,-0.2327599999999847,-0.0573979999999991,0.2397326594437912,-0.4155000000000655,-0.0398709999999979,0.4174086087289698,-0.4074000000000524,-0.1141669999999948,0.4230943912285313,-0.2129300000000284,0.1782539999999954,0.2776934882492035,-0.2049900000000661,0.0796139999999923,0.2199074557536099,-0.3620999999999412,-0.384254999999996,0.5279851465950102,-0.2209999999998899,-0.458566999999995,0.5090429191030427,-0.0443400000000338,0.0774609999999995,0.0892538073193683,0.1075199999999085,-0.0373769999999993,0.113831412751403,0.1432999999999538,-0.3175839999999965,0.3484171164796364,0.375859999999875,-0.4243039999999922,0.5668373876306144,0.385379999999941,-0.0176299999999969,0.3857830495238929,0.6399199999998473,-0.1355399999999917,0.6541167311725044,-0.713320000000067,0.1413900000000012,0.7271977409894066,-0.4651700000000573,0.184580000000011,0.5004527003624394,0.3767199999999775,0.1638200000000012,0.4107979440065194,1.15170999999998,0.2004639999999966,1.169025978922604,-0.7437099999999646,0.3860099999999988,0.8379190200729104,-0.5236499999998614,1.0270599999999916,1.1528493249769622,-0.3875099999999634,-1.1049799999999976,1.1709589234896185,0.3999300000000403,-0.739775999999992,0.8409592945416683,0.7821500000000015,0.070610000000002,0.7853307549052199,0.9977000000000088,-0.1274659999999983,1.0058095600838248,1.200749999999971,0.1772100000000023,1.213756131436596,1.2901699999999892,-0.0370799999999889,1.2907027370002635,0.0440999999999576,-0.5493099999999913,0.5510773866708619,0.8033499999999094,-0.4762299999999868,0.93389840742976,1.0761600000000726,-0.3948800000000005,1.1463204438551016,0.7816700000000765,-0.3428899999999828,0.8535698805605243,-1.2828500000000531,0.7752199999999903,1.4988896460047088,0.2370999999999412,0.115649999999988,0.2638016916169594,1.2509599999999637,0.9663499999999772,1.580738195938804,0.7944199999999455,0.24742999999998,0.832060539444038,0.1239100000000092,-0.0822729999999865,109.4497922,0.23086900995522,75.7278236,0.1800721946812062,61.7963516,0.1171440397920726,0.04740957,0.044756598,0.024513150063766,0,0
12,400.0,525.0819,62.066772,0.9602126,527.46545,59.598648,0.9318282,522.63495,59.889336,0.9263831,531.24603,61.058914,0.7304927,519.3107,61.969566,0.70289814,537.508,74.9922,0.99049884,515.4669,76.92997,0.99356824,545.81067,90.55545,0.95425785,510.2905,93.85762,0.9648578,546.13495,105.79015,0.93187696,507.9776,109.31271,0.940324,536.0252,108.69832,0.9910926,522.0597,109.6149,0.99262416,538.31085,133.25374,0.97255963,524.1252,133.82979,0.9741926,538.6319,154.92639,0.9336207,526.2929,155.46965,0.93693054,1.00665408,0.11225997,0.99732048,0.07811525,153.1403986766626,171.50791817993078,175.5308515498485,179.15512067082756,4.401298189390194,109.15661,75.961085,62.066772,38.15735000000001,95.871002,0.3980072055781038,174.9756903133041,0.9310716858823528,-0.0195999999999685,0.1451259999999976,0.1464435586702197,0.1692000000000462,0.1130299999999948,0.2034807629728532,0.1491500000000769,0.2086029999999965,0.2564389481124532,0.5646500000001424,0.2484739999999945,0.6169027080311433,0.0274500000000443,0.0353160000000016,0.0447294350065206,0.2403800000000728,-0.1429379999999938,0.2796673313850462,0.0183299999999917,0.4628069999999979,0.4631698480568417,0.380429999999933,0.847061999999994,0.9285693386839448,-0.0185000000000172,0.1037900000000036,0.1054258701647816,0.0258400000000165,0.026329000000004,0.0368906741738486,-0.3117999999999483,0.3149839999999955,0.4432089352167496,-0.4550999999999021,0.632567999999992,0.7792677874927854,-0.5590399999999818,0.0555499999999966,0.5617931328344796,-0.9444199999999228,0.0731799999999935,0.9472509956710804,0.3959399999999959,-0.4267600000000016,0.5821448111939143,1.109260000000063,-0.5681500000000028,1.2462953783514337,-1.2728999999999928,-0.6411000000000087,1.4252310760013596,-1.6496199999999703,-0.8049200000000098,1.835522364559996,0.4232200000000148,-0.8078600000000051,0.9120049056885718,1.1669299999999794,-1.193870000000004,1.669446375838398,-0.6400500000000306,0.3132899999999949,0.7126111328066914,-0.2525400000000672,1.4182699999999926,1.4405784409396154,-1.003099999999904,-0.5366900000000072,1.1376492280574952,-1.7852499999999054,-0.6073000000000093,1.8857175961685444,-1.1639999999999873,-0.6211299999999937,1.3193553262483777,-2.364749999999958,-0.798339999999996,2.4958744596032463,-1.0489499999999907,-0.4786100000000033,1.1529803270654635,-1.0930499999999483,0.070699999999988,1.095334100856851,-0.2366000000000667,-0.6043699999999887,0.6490320923498452,-1.3127600000001394,-0.2094899999999881,1.329370105614069,-1.509149999999977,-1.2268799999999942,1.944933998083204,-0.2262999999999237,-2.0020999999999844,2.0148489025234384,-0.5132999999999583,-1.3745999999999867,1.467311163318783,-1.764259999999922,-2.340949999999964,2.9313239756293665,-0.5789100000000076,-0.7028200000000169,109.4525124,0.2263873186516957,75.8188416,0.1528770359809216,61.8618788,0.160682452673617,-0.00908888,0.05222422,0.0283800757125654,0,0
13,433.33333333333337,525.1185,62.172585,0.9609338,527.4691,59.699463,0.93350255,522.6443,60.00264,0.92718625,531.1727,61.09381,0.73592436,519.2707,62.040726,0.70303416,537.4649,74.9861,0.9908393,515.48395,76.86815,0.9937698,545.7235,90.59785,0.95616686,510.24554,93.522224,0.9658808,545.9374,105.92494,0.9344247,507.3552,108.564026,0.9420611,535.7015,108.61616,0.99139166,521.83417,109.488846,0.99285406,537.76404,133.09094,0.973214,524.0172,133.64684,0.9746873,537.528,154.60822,0.9346057,525.84265,155.14961,0.93765086,1.01327627,0.07271105,1.00788324,0.07492186,152.9207542153404,173.41645937280575,174.55445014616822,179.68890459293232,3.9605340274598952,109.052503,75.92712499999999,62.172585,38.5822,95.450147,0.4042130977104405,175.10616411162795,0.93224278,0.0366000000000212,0.1058129999999977,0.111964061059793,0.0561999999999898,-0.0393129999999999,0.068585362643926,0.0036499999999932,0.1008150000000043,0.1008810523587101,-0.1455000000000836,-0.1077879999999922,0.1810759590448789,0.0093500000000403,0.1133039999999994,0.1136891327964138,-0.018100000000004,0.0779879999999977,0.0800608402653868,-0.0733300000000554,0.0348959999999962,0.0812097267327496,-0.0916600000000471,-0.4279110000000017,0.4376178464379739,-0.0399999999999636,0.071159999999999,0.0816317683257991,-0.0214999999999463,-0.0326300000000046,0.0390764238383963,-0.0431000000000949,-0.0061000000000035,0.0435295302066106,0.2686999999998534,-0.321083999999999,0.418682009472488,0.0170500000000402,-0.0618199999999973,0.0641281131797984,0.576090000000022,-0.1173699999999939,0.5879246592889465,-0.0871700000000146,0.0424000000000006,0.0969348693711535,-0.4831100000000106,0.4691600000000022,0.6734288215542993,-0.0449600000000032,-0.3353960000000029,0.3383960378255074,1.2279399999999896,0.3057040000000057,1.2654215025895434,-0.1975499999999783,0.1347900000000095,0.2391533955435172,-0.6207699999999932,0.9426500000000146,1.1286914615606956,-0.6223999999999705,-0.7486839999999972,0.9736064358127255,0.0176500000000601,-1.0619739999999922,1.0621206613073608,-0.3237000000000307,-0.0821600000000017,0.3339640034495038,0.6793999999998732,0.4545300000000054,0.8174239297328116,-0.2255300000000488,-0.1260540000000105,0.2583667776940849,0.9384699999999384,0.4950759999999832,1.0610495684348906,-0.5468099999999367,-0.1628000000000042,0.5705304690373093,0.502140000000054,0.315809999999999,0.5931951919057112,-0.1079999999999472,-0.1829500000000052,0.2124492939503225,0.1286000000001195,0.4214199999999835,0.4406050117736029,-1.1038999999999533,-0.3181700000000091,1.1488373944557615,0.4052500000000236,0.908709999999985,0.99497810357816,-0.4502499999999827,-0.3200400000000059,0.5524044388851236,0.0630499999999756,1.0545599999999808,1.0564431343427607,-0.104106999999999,0.4748030000000085,109.392334,0.2902933577254241,75.88771259999999,0.0802573574590742,61.9701218,0.148405443789007,-0.0031933899999999,0.0616078759999999,0.0260287977523555,0,0
14,466.6666666666667,525.374,62.261032,0.9632354,527.7333,59.782722,0.93609005,522.8727,60.09326,0.93169594,531.42096,61.19848,0.738041,519.4446,62.15438,0.7165523,537.62305,75.14169,0.99160516,515.56757,76.93425,0.9946556,545.59314,90.75302,0.959294,509.71515,93.2189,0.97088873,545.81165,105.88144,0.93955874,506.40778,107.705246,0.9498371,535.7177,108.65448,0.9925249,521.9482,109.49431,0.994011,537.21204,132.87396,0.9768884,524.59766,133.41786,0.97875845,536.0031,154.67256,0.9429278,526.3757,155.22314,0.94664943,1.02145497,0.04175972,1.0179547,0.07344799,153.78171884986264,173.09318032567515,173.2949848854918,178.34209887310556,3.874894191440621,109.074395,76.03797,62.261032,39.40386999999998,95.440418,0.4128635478853041,175.35349634932734,0.9366596470588237,0.2554999999999836,0.0884470000000021,0.2703758898441057,0.2188999999999623,-0.0173659999999955,0.2195877682294334,0.2641999999999598,0.0832589999999982,0.2770084855757643,0.2605499999999665,-0.0175560000000061,0.2611407965753011,0.228399999999965,0.0906200000000012,0.2457204598725638,0.2190499999999247,-0.0226839999999981,0.2202214030378676,0.2482600000000729,0.1046700000000058,0.2694231550925745,0.3215900000001284,0.0697740000000095,0.3290722400569271,0.1739000000000032,0.1136540000000039,0.2077460991595318,0.2138999999999669,0.0424940000000049,0.2180801459005066,0.1581500000000915,0.1555900000000036,0.2218550666539533,0.2012500000001864,0.1616900000000072,0.2581573524036791,0.0836199999999962,0.0661000000000058,0.1065904048214479,0.066569999999956,0.1279200000000031,0.144205032159058,-0.130359999999996,0.1551700000000124,0.2026609446834856,-0.0431899999999814,0.1127700000000118,0.1207578113415486,-0.5303900000000112,-0.3033239999999892,0.6109983642171274,-0.485430000000008,0.0320720000000136,0.4864883329371925,-0.1257500000000391,-0.0435000000000087,0.1330613110562593,0.0717999999999392,-0.1782900000000182,0.1922044851193587,-0.9474200000000224,-0.8587799999999959,1.278713316111174,-0.3250200000000518,-0.1100959999999986,0.3431605012469141,0.0162000000000261,0.038320000000013,0.0416036344566414,0.3399000000000569,0.1204800000000148,0.3606209095435846,0.1140300000000706,0.0054640000000034,0.114160834772772,0.3395600000001195,0.131518000000014,0.3641400526227304,-0.5520000000000209,-0.2169799999999782,0.593114087170431,-0.0051900000000841,-0.0541799999999739,0.0544280120893464,0.5804600000000164,-0.228980000000007,0.623991708278261,0.6884599999999637,-0.0460300000000017,0.6899970525299004,-1.5249000000000024,0.0643400000000156,1.5262567430154106,-0.4210000000000491,0.3825100000000248,0.5688188640508157,0.5330500000000029,0.0735300000000052,0.5380975407860584,0.9832999999999856,0.3935700000000111,1.0591393840755712,0.0218920000000082,0.1259990000000073,109.32612760000002,0.3225206498137691,75.9290846,0.095629746566193,62.06231700000001,0.1591408940248084,-0.00147387,0.070696758,0.0180824082989508,0,0
15,500.0,525.605,62.188416,0.96457434,527.98615,59.731903,0.9389162,523.1399,60.01555,0.93288267,531.6748,61.169914,0.74835944,519.75,62.053604,0.7160055,537.8016,75.123764,0.9923307,515.7592,76.79445,0.9950747,545.48914,90.7573,0.9634314,509.6427,92.95551,0.9729586,545.7868,105.969055,0.9452977,506.05463,107.512764,0.9533423,535.74457,108.51648,0.99338293,522.00305,109.294334,0.9946635,537.09216,132.72913,0.9795197,524.5707,133.2161,0.9809152,535.76666,154.64987,0.94858396,526.2938,155.13037,0.9514396,1.03104733,0.14075484,1.02139374,0.00122823,154.93609584231032,173.11603608407177,173.3540670485764,178.3694589292633,3.635717211486003,108.905407,75.95910699999999,62.188416,39.73217,95.398467,0.4164864576231978,175.665599774027,0.9395104964705884,0.2309999999999945,-0.0726160000000035,0.2421447572341759,-0.024499999999989,-0.1610630000000057,0.1629157450002955,0.2528499999999667,-0.050818999999997,0.2579063652975297,-0.011349999999993,-0.1340779999999952,0.134557543764735,0.2672000000000025,-0.0777100000000032,0.2782708825946435,0.0388000000000374,-0.1683300000000045,0.1727438244916571,0.2538399999999683,-0.0285660000000049,0.2554422869377429,0.0055799999998953,-0.1332360000000108,0.1333527956062478,0.3053999999999632,-0.1007760000000033,0.3215975158112671,0.1314999999999599,-0.2144300000000072,0.251540205335037,0.1785499999999729,-0.0179260000000027,0.1794476078859521,0.0203999999998814,-0.1735160000000064,0.1747110822357797,0.1916299999999182,-0.1398000000000081,0.2372047573299721,0.108009999999922,-0.2059000000000139,0.2325101505310873,-0.1039999999999281,0.0042799999999942,0.104088031972869,0.0263600000000678,-0.1508900000000181,0.153175199363373,-0.0724500000000034,-0.2633900000000011,0.273172646141595,0.4579400000000078,0.0399339999999881,0.4596778958749334,-0.0248500000000149,0.0876149999999995,0.0910709104214988,0.1009000000000241,0.1311150000000083,0.1654447134997279,-0.3531500000000278,-0.1924819999999982,0.4021992576124663,0.5942699999999945,0.6662979999999976,0.8928100905030085,0.0268699999999171,-0.1380000000000052,0.1405915961215214,0.0106699999998909,-0.1763200000000182,0.1766425523479665,0.0548499999999876,-0.1999759999999923,0.2073618168226629,-0.059180000000083,-0.2054399999999958,0.2137939802707459,-0.1198799999999664,-0.1448300000000131,0.1880078277625582,0.4321200000000544,0.072149999999965,0.4381019480669334,-0.0269600000000309,-0.2017599999999788,0.203553283441936,-0.6074200000000474,0.0272200000000282,0.6080295920430675,-0.2364400000000159,-0.0226900000000114,0.2375262294989925,1.2884599999999864,-0.087030000000027,1.2913959085036508,-0.0819000000000187,-0.0927700000000015,0.1237492743413203,-0.6149500000000216,-0.1663000000000067,0.6370393963484745,-0.168988000000013,-0.1908800000000212,109.184887,0.3208735597310693,75.932221,0.0964711175923354,62.1220902,0.1318063360814536,-0.07221976,0.062983492,0.0349333370109472,0,0
16,533.3333333333334,525.8014,62.0474,0.9656889,528.1724,59.611862,0.94029534,523.34393,59.874245,0.93458843,531.80066,61.068542,0.7502532,519.9172,61.892853,0.71920633,537.7881,74.99627,0.9926628,515.9585,76.56613,0.9953891,545.34875,90.67933,0.96527004,509.7721,92.66586,0.9748454,545.6573,105.639984,0.9482222,505.76865,107.02403,0.95644563,535.8078,108.22273,0.9938338,522.20703,108.964096,0.99508214,537.0288,132.62167,0.98102367,524.73376,133.07594,0.98242056,536.03326,154.78336,0.95190763,526.606,155.22678,0.95474195,1.03791184,0.14787855,1.02728923,-0.00835194,155.44324409123183,174.56040423111503,174.56303450197808,178.84897382256747,3.721318016457545,108.593413,75.7812,62.0474,39.888649999999984,95.614918,0.4171801892129406,175.88669630387608,0.9412868894117646,0.1963999999999259,-0.1410159999999933,0.241781869163031,-0.0346000000000685,-0.0683999999999898,0.0766532452020353,0.1862500000000864,-0.1200410000000005,0.2215827253669209,-0.0665999999998803,-0.0692220000000034,0.0960585513319066,0.2040299999999888,-0.1413049999999955,0.2481840928121586,-0.0631700000000137,-0.0635949999999923,0.0896368948870985,0.1258599999999887,-0.1013719999999978,0.1616076173452127,-0.1279799999999795,-0.0728059999999928,0.1472399199809403,0.1671999999999798,-0.1607509999999976,0.2319412080700462,-0.1381999999999834,-0.0599749999999943,0.1506527152924723,-0.0135000000000218,-0.1274939999999986,0.1282067472327422,-0.1920499999999947,-0.1095679999999958,0.2211070987643704,0.1992999999999938,-0.2283199999999965,0.3030684945684654,0.0076700000000755,-0.0885199999999883,0.0888516702150224,-0.1403900000000248,-0.0779700000000076,0.1605885207603836,-0.0363900000000967,-0.0822500000000019,0.0899405058914355,0.1294000000000323,-0.2896500000000088,0.3172404175069966,0.2018500000000358,-0.0262600000000077,0.2035510012257735,-0.1295000000000072,-0.329070999999999,0.3536353673503277,-0.1046499999999923,-0.4166859999999985,0.4296264017678583,-0.285979999999995,-0.488734000000008,0.5662556694250442,0.0671700000000328,-0.2962520000000097,0.3037713883893777,0.0632300000000896,-0.2937500000000028,0.3004781113492512,0.0363600000001724,-0.1557499999999976,0.159937838237272,0.2039800000000013,-0.3302380000000084,0.3881558669452339,0.1491300000000137,-0.1302620000000161,0.1980099632442981,-0.0633599999999887,-0.1074600000000032,0.1247483114114145,0.0565199999999777,0.0373700000000098,0.0677571199210696,0.1630599999999731,-0.1401600000000087,0.215019508882319,0.190020000000004,0.0615999999999701,0.1997552512451121,0.2666000000000394,0.1334899999999947,0.2981528804154332,0.5030400000000554,0.1561800000000062,0.5267270963222395,0.3121999999999616,0.0964099999999916,0.3267471929488827,0.3940999999999803,0.1891799999999932,0.4371543004477732,-0.3119939999999985,-0.1430059999999855,108.9564656,0.2222625010179839,75.93329739999999,0.0942952238520835,62.147241,0.089063988070476,-0.00958017,0.043872278,0.0434662633245953,0,0
17,566.6666666666666,526.2042,62.102905,0.96703386,528.6235,59.685387,0.94190365,523.7661,59.91266,0.93792456,532.2484,61.278557,0.75112695,520.29425,62.009888,0.72996235,538.06976,75.4164,0.9928498,516.1245,76.842804,0.99566144,545.63995,91.12347,0.9657385,509.5447,92.771355,0.97644675,545.7908,106.00404,0.94890213,505.18045,107.06674,0.9586133,535.7986,108.79991,0.99378467,522.1368,109.47847,0.9951338,536.94037,133.11154,0.98000175,524.69617,133.51717,0.98178697,536.08765,155.02585,0.9483417,526.8314,155.43976,0.9519518,1.04664244,0.10046898,1.04153666,0.02382761,154.84857062098558,174.53230179554367,175.08279474742517,179.48565615654127,3.2433690247714404,109.13919,76.129602,62.102905,40.61034999999998,95.75437300000002,0.4241096077762461,176.28110456175358,0.9421861164705884,0.4028000000000702,0.0555049999999965,0.4066062530570037,0.2064000000001442,0.1965209999999899,0.2849937954430861,0.4510999999999967,0.0735249999999965,0.4570526617633864,0.2648499999999103,0.193565999999997,0.3280446903334229,0.422170000000051,0.0384150000000005,0.4239141671671791,0.2181400000000621,0.1797199999999961,0.2826381750578391,0.4477399999999534,0.2100149999999985,0.4945476800319233,0.3218799999999646,0.3113869999999963,0.4478488563890444,0.3770500000000538,0.1170349999999942,0.3947960153358177,0.209850000000074,0.2777859999999919,0.3481408971896674,0.281659999999988,0.4201300000000003,0.5058078414773673,0.2951600000000098,0.547623999999999,0.6221024601912492,0.1660000000000536,0.2766739999999998,0.3226522931516491,-0.0332999999999401,0.5049939999999964,0.5060907330074247,0.2912000000000034,0.4441400000000044,0.5310911217484302,0.4315900000000283,0.5221100000000121,0.6773985386757467,-0.2274000000000455,0.1054950000000047,0.2506789880006334,-0.3568000000000779,0.3951450000000136,0.5323962913329378,0.1335000000000263,0.364056000000005,0.3877615519053052,0.2630000000000336,0.693127000000004,0.7413460987480971,-0.5881999999999721,0.0427099999999995,0.5897485770224182,-0.302219999999977,0.5314440000000076,0.6113670366776363,-0.009200000000078,0.5771799999999985,0.577253317357293,-0.0724300000001676,0.8709300000000013,0.8739365936954617,-0.0702300000000377,0.5143740000000037,0.5191462845634255,-0.2742100000000391,0.8446120000000121,0.8880093212596599,-0.0884300000000166,0.4898699999999962,0.4977875870288443,-0.0250700000000279,0.5973299999999995,0.597855863733058,-0.0375899999999091,0.4412299999999902,0.4428283200067319,-0.2006499999998823,0.581389999999999,0.6150404495640523,0.0543900000000121,0.2424900000000036,0.2485149335553159,-0.2122100000000273,0.1090000000000088,0.2385667288202894,0.225400000000036,0.2129800000000159,0.3101058535404049,-0.0867999999999256,0.1165700000000242,0.14533686696772,0.5457770000000011,0.8577709999999996,108.9529816,0.2184446220779284,75.9670008,0.1300481702820746,62.1544676,0.082095794778528,0.03217955,0.03301475,0.0393606472320253,0,0
18,600.0,526.2774,61.98233,0.96666044,528.7819,59.6326,0.9436651,524.0103,59.768234,0.93474114,532.6041,61.34639,0.7654321,520.8142,61.855408,0.71172214,538.4132,75.67918,0.9930669,516.5707,76.726776,0.9954426,545.826,91.62284,0.9678018,509.84256,92.429375,0.9746901,545.82196,106.49423,0.95112795,505.1019,106.44307,0.95624745,535.599,109.08417,0.99391866,521.9982,109.56509,0.99501956,536.9357,133.56659,0.980507,524.5284,133.79117,0.981384,536.66144,155.41202,0.94917375,526.85547,155.56494,0.9510257,1.05361753,0.13535064,1.04350183,0.05379635,155.0489671900991,175.49621376446729,176.15555950504665,179.86205083022853,2.2591922617265765,109.32463,76.202978,61.98233,40.72410000000002,95.93234,0.4245085606740277,177.2541206590113,0.9418603758823528,0.0731999999999288,-0.1205750000000023,0.1410552041754934,-0.3296000000001413,-0.1760799999999989,0.3736847955163452,0.158399999999915,-0.0527870000000021,0.1669641499513393,-0.2927000000000817,-0.1263119999999986,0.3187914856831146,0.244199999999978,-0.1444260000000028,0.2837120185610579,-0.177970000000073,-0.1828410000000033,0.2551551531539726,0.3557000000000698,0.0678330000000002,0.3621102123512256,-0.0920399999998835,-0.1421819999999982,0.1693726150355424,0.5199499999999944,-0.1544799999999995,0.542413193884509,0.1428999999999405,-0.2715149999999937,0.3068237364106297,0.3434399999999868,0.2627800000000064,0.4324400097123234,0.0617799999999988,-0.1573499999999938,0.1690437543951208,0.4461999999999761,-0.116028,0.4610389753415417,0.2801999999999225,-0.3927019999999999,0.4824177658461144,0.1860500000000229,0.499369999999999,0.5329024295309672,-0.1051499999999805,0.0552299999999945,0.1187723679986018,0.2978600000000142,-0.3419800000000066,0.4535095368346877,0.5252600000000598,-0.4474750000000114,0.6900231468763008,0.0311599999999998,0.4901899999999983,0.4911793783334133,-0.1023400000000265,0.1261339999999933,0.1624292509248372,-0.078550000000007,-0.62366999999999,0.6285971455550754,0.5096499999999651,-0.6663799999999895,0.8389311216661058,-0.1995999999999185,0.2842600000000033,0.3473383186462002,-0.1903999999998404,-0.2929199999999952,0.3493626860440829,-0.1385999999999967,0.0866199999999963,0.1634410731731729,-0.0683699999999589,-0.4277540000000073,0.4331834962414895,-0.0046700000000328,0.4550499999999999,0.455073962559934,0.0837599999999838,-0.0348199999999963,0.0907092608281923,-0.1677700000000186,0.2740000000000009,0.3212830105996997,-0.1301800000001094,-0.1672299999999893,0.2119261788926156,0.5737899999999172,0.3861700000000212,0.6916373565676751,0.519399999999905,0.1436800000000175,0.5389065804013775,0.0240699999999378,0.1251800000000003,0.1274731238339952,-0.2013300000000981,-0.0878000000000156,0.2196420016755499,0.1854399999999998,-0.3603370000000012,109.007407,0.2758077296768028,76.02217139999999,0.1631918275736144,62.1164166,0.1107052372601122,0.02996874,0.028789648,0.0345812586437786,0,0
19,633.3333333333333,526.4573,61.852287,0.96737915,529.0134,59.529343,0.94516087,524.23987,59.63011,0.93585384,532.9516,61.347237,0.7698108,521.1795,61.78302,0.7119331,538.8202,75.81647,0.99320364,516.92285,76.76259,0.995539,546.2493,91.77457,0.9685324,510.07666,92.46332,0.9752491,546.1519,106.519516,0.9521006,505.07162,106.63454,0.9570459,535.7154,109.20976,0.993954,522.0548,109.61347,0.99504894,537.3544,133.86206,0.9801972,524.5771,134.0001,0.98109376,537.179,155.67448,0.94760233,526.76166,155.71367,0.94952744,1.0368018,0.15303711,1.02360455,0.06141136,154.65776740058675,175.8931117147084,175.73558337392936,179.83996282043097,1.752828181134331,109.411615,76.28953,61.852287,41.17767999999995,96.184327,0.4281121556518017,177.5259569082492,0.9423077688235296,0.1799000000000887,-0.1300430000000005,0.2219801609356838,0.1067000000001598,-0.0094679999999982,0.1071192467488176,0.2315000000000964,-0.1032569999999992,0.2534842362929981,0.0731000000001813,-0.0504699999999971,0.0888303489806621,0.2295699999999669,-0.1381239999999977,0.2679190629200994,-0.014630000000011,0.0063020000000051,0.0159295983628083,0.3474999999999681,0.0008470000000002,0.3475010322416005,-0.0082000000001016,-0.0669859999999999,0.0674860296357821,0.3652999999999338,-0.0723879999999965,0.3724031586116733,-0.1546500000000605,0.0820920000000029,0.1750877464702176,0.4070000000000391,0.137289999999993,0.4295317730972063,0.0635600000000522,-0.1254900000000134,0.140668453108755,0.3521500000000515,0.035814000000002,0.3539664745368358,-0.0940499999999247,0.151842000000002,0.1786096175013721,0.4232999999999265,0.1517300000000006,0.4496719725532579,0.2372499999999036,-0.3476399999999984,0.4208813753303336,0.2341000000000122,0.0339450000000027,0.2365482467172519,-0.063760000000002,0.3759250000000094,0.3812937754868381,0.329939999999965,0.0252859999999941,0.3309075178897823,0.2987799999999652,-0.4649040000000042,0.5526347958787821,-0.0302800000000047,0.1914699999999953,0.1938495274691133,0.0482700000000022,0.8151399999999853,0.8165679472646329,0.1163999999999987,0.1255900000000025,0.1712361179774884,0.3159999999999172,-0.1586700000000007,0.3535988813612791,0.056600000000003,0.0483800000000087,0.0744592801469447,0.1951999999999998,-0.0382399999999876,0.1989103757977421,0.418700000000058,0.295470000000023,0.5124570332233349,0.4233700000000908,-0.1595799999999769,0.4524466082313686,0.0486999999999397,0.2089300000000093,0.2145307318311249,0.2164699999999584,-0.0650699999999915,0.2260384166463322,0.5175600000000031,0.2624599999999759,0.5803047520053498,-0.056229999999914,-0.1237100000000452,0.1358895764950408,-0.0938099999999622,0.1487300000000004,0.1758434786962344,-0.1178799999999,0.0235500000000001,0.1202093877364677,0.0869850000000127,-0.098454999999987,109.074851,0.3318255808545803,76.0724834,0.2031630065115653,62.0346676,0.126943821138787,0.0076150099999999,0.026382322,0.0309204070510975,0,0
20,666.6666666666666,526.7882,61.852356,0.9663561,529.3539,59.551804,0.9432088,524.60724,59.638626,0.93447953,533.32263,61.457993,0.7646556,521.6111,61.85025,0.71117777,539.16144,76.01189,0.9928445,517.3636,76.88779,0.9953355,546.5104,91.89798,0.9664052,510.51154,92.54422,0.97412825,546.45746,106.36458,0.94909626,505.63022,106.5921,0.95509815,535.9454,109.33322,0.9936342,522.3536,109.68263,0.994808,537.3141,133.93254,0.9794335,524.65,134.01253,0.9804904,537.1307,155.62386,0.946406,526.83264,155.58723,0.9486267,1.04731696,0.1102948,1.04055408,0.04421618,154.96490480609077,175.52451525687056,176.3309351416482,179.61515746929427,1.5369963275459813,109.507925,76.44984,61.852356,40.88018,96.072056,0.4255158188192015,177.69892849122607,0.9409520270588236,0.3308999999999287,6.900000000342743e-05,0.3309000071939449,0.1509999999998399,0.130112000000004,0.1993241895605064,0.3404999999999063,0.0224609999999998,0.3412400130713515,0.1089999999998099,0.1257179999999991,0.1663911521805121,0.3673700000000508,0.0085160000000001,0.3674686913956579,0.1378000000000838,0.1466399999999978,0.2012265628589389,0.3710300000000188,0.110756000000002,0.3872081513036812,0.0235300000000506,0.1099090000000018,0.1123995070318494,0.4316000000000031,0.0672300000000021,0.4368047995386531,0.0663000000000693,0.1396179999999987,0.1545602663170869,0.3412399999999707,0.1954199999999986,0.3932349348671598,-0.0657600000000684,0.0581300000000055,0.0877694394422662,0.44074999999998,0.1251999999999924,0.4581873006751502,0.0885999999999285,0.0893859999999904,0.1258563347471458,0.2611000000000558,0.1234100000000069,0.2887961878211533,-0.1621999999998706,-0.0283199999999936,0.1646537652164616,0.434880000000021,0.0808999999999997,0.4423408464069515,0.2007800000000088,0.0469549999999969,0.206197430694476,0.305560000000014,-0.1549359999999922,0.3425960853483387,-0.0243799999999509,-0.1802219999999863,0.1818635578778571,0.5586000000000126,-0.0424399999999991,0.5602098835258211,0.5888800000000174,-0.2339099999999945,0.633635180920392,0.2299999999999045,0.1234599999999943,0.2610409385517043,0.1135999999999057,-0.0021300000000081,0.1136199669951484,0.2988000000000284,0.0691599999999965,0.3066994385388021,0.2422000000000252,0.0207799999999878,0.2430897949318558,-0.040300000000002,0.070479999999975,0.081188178942483,-0.45900000000006,-0.2249900000000479,0.5111765840686334,0.0729000000000041,0.0124299999999948,0.0739521122078367,0.0242000000000643,-0.1965000000000145,0.1979845701058767,-0.0482999999999265,-0.0506199999999807,0.0699662375720672,-0.5658599999999296,-0.3130799999999567,0.6466967032542328,0.0709799999999631,-0.1264400000000023,0.1450008068942906,0.1647899999999253,-0.2751700000000028,0.3207401954853444,0.0963099999999883,0.0093249999999756,109.19535460000002,0.3628598547349758,76.17063,0.2482341882618517,61.96745560000001,0.1134356857136027,-0.0171951799999999,0.034979912,0.0280179035020532,0,0
21,700.0,527.2469,61.811737,0.96385443,529.8289,59.51529,0.93962115,525.08813,59.597397,0.9300981,533.8296,61.506546,0.7575667,522.11664,61.86686,0.7013183,539.56866,76.148285,0.9921725,517.8118,76.97197,0.9947438,546.8286,91.91145,0.96308243,510.86697,92.48797,0.9705738,546.93854,106.27365,0.94440293,506.5119,106.25514,0.949763,536.2561,109.447266,0.99319434,522.7001,109.77103,0.99435776,537.2617,133.91776,0.97921455,524.78973,133.98412,0.98000175,536.79645,155.6069,0.9478653,526.8529,155.55075,0.9495258,1.04731696,0.1102948,1.04055408,0.04421618,155.70950283696058,173.44122152838673,176.41793386626415,179.4679213434036,1.3657130857030686,109.609148,76.5601275,61.811737,40.42663999999996,96.09161,0.4207093582810258,177.8318954881948,0.9383150964705882,0.4587000000000216,-0.0406189999999995,0.4604949436867031,0.1278000000000929,-0.0406880000000029,0.1341206671025163,0.4750000000000227,-0.0365139999999968,0.4764013771978639,0.1345000000001164,-0.0589749999999966,0.1468615015074778,0.4808899999999312,-0.0412290000000012,0.4826541438141125,0.1135199999998803,-0.0497450000000014,0.1239409352271193,0.5069700000000239,0.0485529999999982,0.5092896766173688,0.135940000000005,-0.0622030000000037,0.1494954742090938,0.5055399999999963,0.01661,0.505812795112971,0.0739399999999932,-0.0506200000000021,0.0896075220056843,0.4072200000000521,0.1363950000000073,0.4294551483275575,0.0659800000000814,-0.0590249999999912,0.0885285887440306,0.4481999999999289,0.0841800000000034,0.4560367445721198,0.0074499999999488,-0.0410199999999889,0.0416910410040134,0.3182000000000471,0.013469999999998,0.318484977510761,0.0570999999999912,-0.1099400000000088,0.1238838714280472,0.3554299999999557,-0.0562499999999914,0.3598535082501872,-0.0794500000000653,-0.1371499999999912,0.1585005520495369,0.4810800000000199,-0.0909300000000001,0.4895980303269399,0.1755200000000059,0.064005999999992,0.1868262252361831,0.8816800000000171,-0.3369600000000048,0.943875873195217,0.3230800000000045,-0.2945200000000056,0.4371758419675156,0.3106999999999971,0.1140460000000018,0.3309697571017609,0.0807000000000925,-0.0094139999999924,0.0812472362361625,0.3464999999999918,0.0883999999999929,0.357598671697747,0.0476999999999634,0.0192399999999963,0.0514341093049774,-0.0524000000000342,-0.0147800000000017,0.0544445442629804,-0.0121000000000321,-0.0852599999999768,0.0861143286567155,0.1397299999999859,-0.028410000000008,0.1425889231321862,0.0668299999999817,-0.0408400000000028,0.0783208433304812,-0.3342499999999972,-0.0169600000000116,0.3346800025397373,-0.2859500000000707,0.0336599999999691,0.2879242923062213,0.0202600000000074,-0.0364800000000116,0.0417283836255509,-0.0507199999999556,0.0899599999999907,0.103273036171083,0.1012230000000045,0.0049130000000161,109.3985016,0.1797337383055865,76.32641550000001,0.1769094517282003,61.920323,0.1206445031425553,0.0,0.045493536,0.0140977787909346,0,0
22,733.3333333333333,527.67944,61.43538,0.9631793,530.2534,59.158768,0.9376281,525.5464,59.222015,0.92991936,534.2594,61.21013,0.7490249,522.585,61.492134,0.7046332,539.8669,75.95386,0.9917311,518.14075,76.58677,0.9945581,546.93134,91.9879,0.96052086,511.20306,92.06815,0.96984947,547.33014,106.81883,0.94100165,507.4731,105.7111,0.94844186,536.4533,109.22521,0.9927538,522.87854,109.48034,0.99406683,537.36383,133.72076,0.97793305,524.7547,133.73955,0.9791101,536.834,155.482,0.9452285,526.55115,155.38174,0.9476218,1.02138597,0.03414472,1.01991987,0.04274231,157.76248074107394,171.1522571617688,176.47649436961433,179.6772576788113,1.1466211303803002,109.352775,76.27031500000001,61.43538,39.85704000000004,96.323232,0.413784284005501,178.33137398687683,0.936894234117647,0.4325400000000172,-0.3763569999999987,0.5733545526539525,-0.0261600000000044,-0.3357379999999992,0.3367556239233425,0.42450000000008,-0.3565219999999982,0.5543538459179901,-0.0504999999999427,-0.3200080000000014,0.3239681621147287,0.4582699999999704,-0.3753820000000019,0.592387574839289,-0.0226199999999607,-0.3341530000000006,0.3349177388688133,0.4298000000000002,-0.2964160000000007,0.5221019872170576,-0.0771700000000237,-0.3449689999999989,0.3534951482849559,0.4683600000000751,-0.3747260000000025,0.5998171927146406,-0.0371799999999211,-0.3913360000000025,0.3930982285587104,0.2982399999999643,-0.1944249999999954,0.3560171038376905,-0.1089800000000877,-0.3308200000000028,0.348308071683705,0.3289500000000771,-0.3851999999999975,0.5065443144484486,-0.1192499999998517,-0.469380000000001,0.4842913863573929,0.1027399999999261,0.0764499999999941,0.1280629146161523,-0.215460000000121,0.062979999999996,0.2244760388104967,0.3360900000000129,-0.4198200000000014,0.5377781331553095,-0.0193399999999428,-0.3635700000000099,0.3640840294492537,0.3916000000000394,0.545180000000002,0.671246446843507,-0.0894799999999804,0.6361100000000022,0.6423726352359659,0.9611999999999624,-0.5440399999999954,1.1044840250541983,0.0795199999999454,-0.2070799999999906,0.2218232557690636,0.1972000000000662,-0.2220559999999949,0.2969793042217317,-0.1134999999999308,-0.3361019999999968,0.3547489315050606,0.1784400000000232,-0.2906899999999979,0.3410887123608858,-0.1680599999999685,-0.3790899999999908,0.414672631964038,0.1021299999999882,-0.1969999999999743,0.2218998352860756,0.1545300000000224,-0.1822199999999725,0.2389218476824522,-0.0350300000000061,-0.2445699999999817,0.2470659543522569,-0.174759999999992,-0.2161599999999737,0.2779679895239483,0.0375499999998965,-0.1248999999999966,0.1304224386368825,0.3717999999998937,-0.107939999999985,0.3871514995449686,-0.30174999999997,-0.1690099999999859,0.3458575466864604,-0.3220099999999775,-0.1325299999999742,0.3482163709534327,-0.2563729999999964,-0.3575960000000009,109.4412186,0.1171980933603587,76.35455809999999,0.1463211357659,61.786818,0.2067220271004291,-0.00147387,0.049276476,0.0080869213425151,0,0
23,766.6666666666667,528.1531,61.40145,0.96316075,530.78,59.144302,0.94135964,526.0737,59.1335,0.9253538,534.92004,61.252068,0.7688705,523.1967,61.355896,0.6743696,540.7112,76.127106,0.9920695,518.8432,76.42419,0.9940003,548.187,92.46286,0.9644202,512.061,91.80642,0.9657012,548.0419,107.13026,0.9457648,507.51337,104.94685,0.94362265,536.6389,109.3985,0.99280167,522.98035,109.441666,0.9936283,537.2878,134.01895,0.9781854,524.6303,133.86182,0.9775698,536.9677,155.73318,0.94501203,526.50214,155.4107,0.9441696,0.99213468,0.04175972,0.99117935,0.01228227,154.8427553298905,175.29644409207287,177.64568767512247,178.90078735044594,0.0577921125615284,109.420083,76.27564799999999,61.40145,40.67363,96.59968,0.4210534608287164,179.2216657994539,0.9358858670588236,0.4736599999999953,-0.0339300000000051,0.4748737100535213,0.041119999999978,0.3424269999999936,0.3448870898265022,0.5265999999999167,-0.0144659999999987,0.5267986571318422,0.1020999999998366,0.3420559999999994,0.3569687901427326,0.527300000000082,-0.088515000000001,0.5346776554383835,0.0690300000001116,0.2868670000000008,0.295055616094688,0.6606399999999439,0.0419380000000018,0.6619697919421444,0.2308399999999437,0.3383540000000025,0.4095980162500494,0.611699999999928,-0.1362379999999987,0.6266878669991238,0.1433399999998528,0.2384880000000038,0.2782496751911125,0.8442999999999756,0.1732459999999918,0.86189133103655,0.5460600000000113,0.3676709999999872,0.6583034921986993,0.7024499999999989,-0.1625800000000055,0.72101890328895,0.3734999999999218,0.222619999999992,0.4348125048799057,1.2556600000000344,0.47496000000001,1.3424861404126658,1.1529200000001083,0.3985100000000159,1.2198502967578695,0.8579400000000419,-0.26173,0.8969747134117393,0.521850000000029,0.1580900000000014,0.5452704563792455,0.7117600000000266,0.3114300000000014,0.7769111548304856,0.3201599999999871,-0.2337500000000005,0.3964107567914776,0.0402700000000209,-0.7642500000000041,0.76531022167485,-0.9209299999999416,-0.2202100000000086,0.9468920260514904,0.1856000000000222,0.1732899999999944,0.2539227916119509,-0.011600000000044,0.3953459999999893,0.3955161434328472,0.1018100000000004,-0.0386740000000003,0.1089080087780513,-0.0766300000000228,0.2520159999999976,0.263408847907587,-0.0760300000000597,0.2981899999999768,0.3077301366457229,-0.178160000000048,0.4951899999999511,0.5262643078339712,-0.1243999999999232,0.1222699999999861,0.1744285323563135,-0.0893699999999171,0.3668399999999678,0.3775693082070649,0.1337000000000898,0.251180000000005,0.2845471532101956,0.0961500000001933,0.3760800000000017,0.3881764919466897,-0.0490099999999529,0.0289599999999836,0.0569268100282673,0.252740000000017,0.1979699999999695,0.3210445895821896,0.067307999999997,0.3236809999999934,109.4603092,0.0999664059132057,76.3690921,0.1302244125282348,61.670642,0.2311575352189672,-0.03046004,0.04097366,0.0177837807857706,0,0
24,800.0,529.13745,61.018417,0.9600131,531.6468,58.482407,0.9387469,526.69434,58.711967,0.9130362,536.0998,60.214005,0.7831995,523.5068,60.77951,0.65749085,541.94934,75.74245,0.99315757,519.91895,75.934784,0.9944564,548.5992,93.562515,0.9529016,513.14545,92.3649,0.9453041,549.6063,108.26672,0.91512215,508.1552,104.14195,0.8985865,538.0692,110.57322,0.991433,524.5857,110.49313,0.9921394,537.05597,135.16507,0.9679373,524.8635,134.83359,0.9658948,536.58984,158.28345,0.9231527,528.64844,157.7402,0.920441,0.84707431,-0.01793212,0.84428338,0.06632427,163.45418927857517,179.44076178971093,178.7957205859968,171.27148297226162,0.6496351577158814,110.533175,75.838617,61.018417,41.45110000000005,99.801043,0.4153373385552966,179.49979793862755,0.9242948864705882,0.9843499999999494,-0.3830329999999975,1.0562476989744871,0.5106899999999541,-0.3491029999999924,0.6186090693717219,0.866800000000012,-0.6618950000000012,1.0906178207901347,0.3402000000000953,-0.6474290000000025,0.7313688194345368,0.6206399999999803,-0.4215329999999966,0.7502560094320956,0.0933399999998982,-0.3330179999999956,0.345851621253939,1.1797599999999877,-1.038063000000001,1.5714351560178907,0.5191200000000435,-1.0800010000000029,1.198285330962977,0.310100000000034,-0.5763859999999994,0.6545096110799447,-0.3015999999998939,-0.4401480000000006,0.5335661363916723,1.238140000000044,-0.3846559999999925,1.296514904633226,0.3938400000000683,-0.5579019999999844,0.6829089157450182,1.075749999999971,-0.4894060000000024,1.1818444463362934,0.373299999999972,-0.3268259999999969,0.496153327385776,0.4121999999999843,1.0996549999999985,1.1743721552493416,-0.8434600000000501,0.6246949999999885,1.049604027538514,1.084449999999947,0.558480000000003,1.2198080639591986,0.2265099999999051,0.820210000000003,0.8509119955670867,1.5643999999999778,1.1364599999999996,1.9336206172876649,0.8526399999999512,0.8250299999999982,1.1864524729208137,0.6418299999999704,-0.8049000000000035,1.02947062070754,0.6015599999999495,-0.0406499999999994,0.6029318834660672,1.4302999999999884,1.1747200000000078,1.8508714618795077,1.2446999999999662,1.0014300000000134,1.5975419039574337,1.6053499999999303,1.0514639999999955,1.9190427733106332,1.50353999999993,1.090137999999996,1.857157341380579,-0.2318299999999453,1.1461199999999965,1.169331519843695,-0.1557999999998855,0.8479300000000194,0.8621246574016992,0.2332000000000107,0.9717699999999924,0.999359381253806,0.3575999999999339,0.8495000000000061,0.9216984376681796,-0.3778600000000551,2.5502699999999834,2.5781107913547774,-0.511560000000145,2.2990899999999783,2.3553149389625263,2.1462999999999965,2.329499999999996,3.167518577688214,2.195309999999949,2.300540000000012,3.179916710811752,1.1130919999999946,1.0457839999999976,109.6846212,0.4840102432337699,76.2789095,0.2748830604653012,61.503868,0.3417125742396728,0.054042,0.041956242,0.0192690032519449,0,0
25,833.3333333333334,528.92834,61.492073,0.96225023,531.6474,59.235947,0.94197315,526.8788,59.13878,0.92121404,535.96295,61.333008,0.7743189,523.97034,61.19905,0.65265125,541.68884,76.14046,0.9917589,519.41754,76.10907,0.993119,549.3061,92.79971,0.96456814,512.8647,91.721344,0.96020067,548.78644,107.09862,0.9456431,509.1006,104.55975,0.93662274,537.12445,109.427124,0.99204445,523.1325,109.29881,0.9925598,537.728,134.07928,0.9757801,524.38074,133.76067,0.97373986,537.8991,155.72502,0.93869966,526.6578,155.19482,0.9353914,0.96589327,0.08302816,0.94647188,0.17391697,153.34690532863075,173.57169608927458,179.05040978656942,176.85707315225358,0.7322157773504211,109.362967,76.124765,61.492073,40.20550000000003,96.58624,0.4162652939356034,-179.91924524711206,0.9325020817647058,-0.209109999999896,0.4736559999999983,0.5177615266084907,-1.1934599999998454,0.8566889999999958,1.469102724223403,0.000599999999963,0.753540000000001,0.7535402388724848,-0.8662000000000489,1.4154350000000022,1.6594452926279586,0.1844599999999445,0.4268129999999956,0.46496755646924,-0.4361800000000357,0.8483459999999923,0.9539098113113303,-0.1368499999999812,1.1190029999999993,1.1273400713666633,-1.3166099999999687,2.1570660000000004,2.5271318961336227,0.4635399999999663,0.4195399999999978,0.6252064804526317,0.1534399999999323,0.9959259999999972,1.0076767492980938,-0.2604999999999791,0.3980099999999993,0.475680785926853,-1.498640000000023,0.7826659999999919,1.6907063367587098,-0.5014099999999644,0.1742860000000092,0.5308366960713695,-1.5771599999999353,0.6636920000000117,1.7111168097075695,0.7069000000000187,-0.7628050000000002,1.039989941309543,0.2947000000000344,-1.862459999999999,1.8856312846365315,-0.2807500000000118,-0.6435560000000038,0.702128825527062,-1.365199999999959,-1.2020360000000068,1.8189726730481424,-0.8198600000000624,-1.1681000000000097,1.4271047717669942,-2.38426000000004,-2.3045600000000093,3.3159753529241187,0.9454000000000063,0.4177999999999997,1.0336043730557702,0.3035700000000361,1.2227000000000032,1.2598214297669452,-0.9447499999999992,-1.146096,1.4852907471993484,-2.3750499999999874,-2.320816000000008,3.320700138277465,-1.4531999999999243,-1.1943199999999905,1.8810078421951772,-3.0585499999998547,-2.2457839999999862,3.794505748731322,0.6720299999999497,-1.0857899999999745,1.27693548975658,0.9038599999998952,-2.2319099999999708,2.4079836269583894,-0.4827600000000984,-1.072919999999982,1.1765264739903036,-0.7159600000001092,-2.0446899999999744,2.1664154536238085,1.3092599999999948,-2.558429999999987,2.873973871227767,1.68712000000005,-5.1086999999999705,5.38007338094936,-1.9906400000000983,-2.5453799999999944,3.2313475446012245,-4.136940000000095,-4.87487999999999,6.39364743929478,-1.1702080000000024,-2.283299999999997,109.6556296,0.5012736216756397,76.2138945,0.2625125366759056,61.4318114,0.2827562560922428,0.1075927,0.0678964,0.0623081964401457,0,0
26,866.6666666666667,529.0943,61.433792,0.96165323,531.79565,59.177277,0.94005543,527.0495,59.068916,0.92128646,536.0598,61.178406,0.76713777,524.10815,61.001266,0.6583741,541.66925,75.83984,0.9916706,519.37494,75.79198,0.9932307,549.196,92.51058,0.96390533,512.9157,91.60428,0.9611976,548.88837,107.2341,0.9450181,509.83676,105.14311,0.9378174,537.02637,109.09691,0.9922733,523.0144,108.96695,0.9928768,537.5628,133.82452,0.97694856,524.1048,133.49873,0.97538185,537.569,155.67284,0.942135,526.2889,155.15652,0.939686,0.96589327,0.08302816,0.94647188,0.17391697,154.50412664144497,170.5922914104526,178.77349938273872,176.7864549495464,0.8654701070798508,109.03193,75.81591,61.433792,39.35924,96.603924,0.4074289942152971,-179.87700127094806,0.9329793076470588,0.1659599999999272,-0.0582810000000009,0.1758959822195378,0.3750699999998232,-0.5319369999999992,0.6508720894836916,0.1482500000000755,-0.0586700000000064,0.159437233418117,0.1476500000001124,-0.8122100000000074,0.8255214149857321,0.1707000000000107,-0.0698639999999954,0.1844436729627856,-0.0137599999999338,-0.4966769999999911,0.496867567797486,0.0968500000000176,-0.154601999999997,0.1824327298047214,0.2336999999999989,-1.2736049999999963,1.2948688682739231,0.1378100000000586,-0.1977839999999986,0.241060379896854,-0.3257299999999077,-0.6173239999999964,0.6979892218909511,-0.0195899999999937,-0.3006200000000092,0.3012576181609442,0.2409099999999853,-0.6986300000000085,0.7390003416778674,-0.042599999999993,-0.3170900000000074,0.3199387880517211,0.4588099999999713,-0.4913760000000167,0.6722774646498201,-0.1100999999999885,-0.2891300000000001,0.3093835271956113,-0.8170000000000073,0.473675,0.9443818113586326,0.0510000000000445,-0.1170639999999991,0.1276909554197334,0.3317500000000564,0.5264920000000046,0.6222956600877451,0.1019300000000384,0.1354800000000011,0.169542193273557,0.9217900000001008,1.3035800000000108,1.5965643176835107,0.7361600000000408,0.583359999999999,0.9392765488396156,-0.2092399999999656,0.1655599999999992,0.266817336768032,-0.0980799999999817,-0.3302140000000122,0.3444720194674808,0.8466700000000174,0.8158819999999878,1.1758033538070938,-0.1181000000000267,-0.331860000000006,0.3522480228475531,1.3350999999998976,0.8624599999999845,1.5894430664857735,-0.1651999999999134,-0.2547600000000045,0.3036341509118724,-0.8372299999998631,0.83102999999997,1.179646105321304,-0.2759399999999914,-0.2619400000000098,0.3804674062255535,0.206820000000107,0.8109799999999723,0.8369367197106358,-0.3301000000000158,-0.0521799999999927,0.3341986870111995,-1.6393600000000106,2.5062499999999943,2.9947938613700957,-0.3688999999999396,-0.0382999999999924,0.3708828656057797,1.621740000000159,2.507080000000002,2.9858819055683576,-0.3310370000000091,0.8391709999999932,109.540186,0.5756095688806869,76.065051,0.2254959878457131,61.3562224,0.1916353164693306,0.0,0.093836558,0.0755718115983844,0,0
27,900.0,529.37213,61.349365,0.96047413,532.08685,59.10195,0.9375024,527.345,58.955902,0.9200998,536.2812,61.220642,0.76119405,524.345,60.94262,0.6623121,541.73895,76.003525,0.9915992,519.3623,76.04118,0.993148,549.2368,92.677055,0.96312624,513.4033,92.5664,0.9604321,548.7912,107.749016,0.9437563,510.75677,107.5497,0.9362641,536.9396,109.299225,0.9923211,522.7946,109.199,0.9928987,537.39905,134.14294,0.9771856,523.44617,133.84407,0.97562134,537.58435,155.73326,0.94310033,525.5923,155.27446,0.9406938,1.18197719,0.30509164,1.13168854,0.15254582,154.09377901874075,170.18762507325002,179.43223595866135,175.79566480248675,1.178578927359227,109.2491125,76.0223525,61.349365,38.48003,96.777358,0.3976139708462183,179.9035838456117,0.932454664117647,0.2778299999999944,-0.084426999999998,0.2903746325507733,0.1118700000000672,-0.0261459999999971,0.1148847692952154,0.2912000000000034,-0.0753269999999943,0.3007849679239326,0.1429499999999279,-0.0166569999999879,0.1439171919854574,0.2955000000000609,-0.1130139999999997,0.3163738519474009,0.1248000000000502,-0.0431500000000042,0.132049091250235,0.2214000000000169,0.0422359999999955,0.2253926345203123,0.1245499999999992,0.1968379999999925,0.2329332538389417,0.236850000000004,-0.058646000000003,0.2440026143630478,0.0990399999999454,0.1391379999999955,0.1707873082052292,0.0697000000000116,0.1636850000000009,0.177906911684178,0.0892900000000054,0.4643050000000102,0.4728126871447195,-0.012640000000033,0.2492000000000018,0.2495203590891969,0.02995999999996,0.5662900000000093,0.5670819744093513,0.0407999999999901,0.1664749999999912,0.1714017666915842,0.1508999999999787,0.4556049999999914,0.4799445030677877,0.4875999999999294,0.9621199999999988,1.0786234998366802,0.4365999999998848,1.079183999999998,1.1641553443831691,-0.0971700000000055,0.5149159999999995,0.5240042900167904,-0.199100000000044,0.3794359999999983,0.4285002778248997,0.9200099999999908,2.4065900000000084,2.5764498497351007,0.1838499999999499,1.8232300000000092,1.8324760449730348,-0.0867700000000013,0.2023150000000129,0.220137212040594,0.0113099999999803,0.5325290000000251,0.5326490889328792,-0.2198000000000775,0.2320500000000009,0.3196235950302082,-0.1017000000000507,0.563910000000007,0.5730073106863631,-0.16375000000005,0.3184200000000032,0.3580577591674539,0.0014499999998633,0.5731800000000078,0.5731818340631606,-0.6586299999999028,0.3453399999999931,0.7436754618110424,-0.3826899999999114,0.6072800000000029,0.7178026431408119,0.0153500000000121,0.0604199999999934,0.0623393848221137,0.345450000000028,0.1125999999999862,0.3633379453071427,-0.6965999999999894,0.1179400000000043,0.7065135551424235,-0.3277000000000498,0.1562399999999968,0.3630402561700722,0.2171825000000069,0.5482195000000161,109.5194535,0.5858236124995401,76.0154585,0.1941562090579648,61.3390194,0.1865460803160981,-0.02137115,0.1157972599999999,0.0729197983014249,0,0
28,933.3333333333334,529.8698,61.232727,0.9603255,532.5056,59.002167,0.9329932,527.7944,58.84568,0.92445743,536.4146,61.097,0.7378199,524.5515,60.766846,0.69050944,541.5407,75.736725,0.9911248,519.33813,75.81656,0.9935415,548.8739,92.320854,0.9590415,513.6301,92.625656,0.96393824,548.6422,107.57593,0.93851703,511.14914,108.36454,0.93985844,536.94025,108.989136,0.99197793,522.83124,108.94928,0.99303174,537.573,134.02188,0.97550255,523.2806,133.77992,0.97556645,538.0985,155.38144,0.9389308,525.2392,155.03198,0.9394506,1.17734159,0.31344358,1.12259966,0.16630196,155.2756939578325,170.20151538167323,179.96122936419005,175.7712345487706,0.9557395240767974,108.969208,75.77664250000001,61.232727,37.72476000000006,96.53576,0.3907853380883387,179.7939793076399,0.9321521794117648,0.4976700000000846,-0.1166380000000018,0.5111554087986203,0.2198400000000901,-0.0322110000000037,0.2221872501315948,0.4187499999999318,-0.0997830000000021,0.4304744006197619,0.1275499999999283,-0.0244560000000078,0.1298733938725792,0.4493999999999687,-0.1102220000000002,0.4627194066429156,0.1538999999999077,0.0027919999999994,0.1539253236604413,0.1333999999999378,-0.1236419999999967,0.1818870643118487,-0.0880000000000791,-0.1658779999999922,0.1877751604552938,0.2065000000000054,-0.175773999999997,0.2711802888780842,-0.0303499999999985,-0.1171279999999939,0.1209962432639893,-0.19825000000003,-0.2667999999999892,0.3323932949083151,-0.2679500000000416,-0.4304849999999902,0.5070646287456994,-0.0241700000000264,-0.2246200000000016,0.2259166512234147,-0.0115299999999933,-0.4738200000000034,0.4739602655286655,-0.3628999999999678,-0.3562009999999986,0.5085032570210103,-0.403699999999958,-0.5226759999999899,0.6604270519716432,0.2268000000000256,0.0592560000000048,0.2344131257758665,-0.2607999999999038,-0.902863999999994,0.9397765918003804,-0.1490000000000009,-0.1730859999999978,0.2283851207850448,-0.0518299999999953,-0.6880019999999973,0.689951520691125,0.3923699999999712,0.8148400000000038,0.904388435629284,-0.5276400000000194,-1.5917500000000049,1.6769233828950074,0.0006499999999505,-0.3100890000000049,0.3100896812552829,0.0874199999999518,-0.5124040000000178,0.5198077679450451,0.0366400000000339,-0.2497199999999964,0.2523936766244366,0.2564400000001114,-0.4817699999999973,0.5457690047080859,0.1739499999999907,-0.1210599999999999,0.2119295309766828,0.3377000000000407,-0.4394800000000032,0.5542417887529145,-0.1655700000000024,-0.0641499999999837,0.177563080058887,0.4930599999999003,-0.4094899999999768,0.6409291877422051,0.5141499999999724,-0.3518200000000036,0.6229988241561729,0.4987999999999601,-0.412239999999997,0.6471037456234957,-0.3531000000000404,-0.2424800000000004,0.4283411728984604,0.343499999999949,-0.3604200000000048,0.4978903758860664,-0.2799044999999864,-0.4970869999999934,109.4292785,0.6373764940604216,75.9156574,0.1502662155997853,61.30527479999999,0.1876864171036352,0.01375614,0.146601198,0.0457169184305238,0,0
29,966.6666666666666,529.945,61.130318,0.9616484,532.5264,58.883293,0.93343246,527.8055,58.745758,0.9280671,536.2793,60.938065,0.7327555,524.3882,60.638298,0.70414203,541.31244,75.5514,0.9914746,519.0763,75.7348,0.99404234,548.7995,92.177795,0.9601277,513.56036,92.80853,0.9669973,549.0414,107.97362,0.9402639,511.21323,109.14201,0.9440911,536.9762,108.96126,0.99244237,522.8009,109.00334,0.993583,537.7413,134.03131,0.97653526,523.1341,133.87494,0.97712666,538.3569,155.48439,0.94094443,524.8671,155.26797,0.9424359,1.21842874,0.24024124,1.16411374,0.26775353,156.63477378946334,170.27357683874055,179.89556532390478,176.13624691805012,0.525745927381345,108.9823,75.6431,61.130318,37.82816999999994,96.738632,0.3910347792489475,179.52744461510514,0.9341241205882352,0.0751999999999952,-0.1024089999999944,0.1270537023506129,-0.4224700000000894,0.0142290000000073,0.4227095519870301,0.0208000000000083,-0.1188739999999981,0.1206800226880982,-0.3979499999999234,-0.0190909999999959,0.3984076665689792,0.0111000000000558,-0.0999219999999994,0.1005366405048483,-0.4382999999999128,0.0103000000000008,0.4384210077082571,-0.1352999999999156,-0.1589349999999996,0.2087257152939642,-0.2686999999998534,-0.0352930000000029,0.2710079073549726,-0.1633000000000493,-0.1285480000000021,0.2078255958827416,-0.3698000000000547,0.0472259999999948,0.372803346385249,-0.2282599999999774,-0.1853250000000059,0.2940203789280463,-0.0300099999999474,0.0814749999999833,0.0868261235170275,-0.2618300000000317,-0.0817599999999885,0.27429846244559,-0.2376600000000053,0.1428600000000131,0.2772927247513109,-0.0744000000000824,-0.1430589999999938,0.1612489921860304,0.2884999999998854,0.2131420000000048,0.3586945248591563,-0.0697400000000243,0.1828739999999982,0.1957206363059417,-0.29654000000005,0.1236179999999933,0.3212746201056473,0.3991999999999507,0.3976899999999972,0.5634873344627707,0.5481999999999516,0.5707759999999951,0.7913965391483219,0.0640900000000215,0.7774699999999939,0.7801071266178725,-0.3282799999999497,-0.0373700000000098,0.3304001744853772,0.035949999999957,-0.0278760000000062,0.0454914703653032,0.0353000000000065,0.2822129999999987,0.2844121434977764,-0.0303400000000237,0.0540599999999926,0.0619919285068681,-0.0669800000000577,0.303779999999989,0.3110765320624509,0.1683000000000447,0.0094299999999805,0.1685639786550338,-0.0056499999999459,0.1304899999999804,0.1306122605270817,-0.14650000000006,0.0950200000000052,0.1746168674556343,0.0190699999999424,0.1591699999999889,0.1603083085806667,0.2584000000000515,0.1029499999999927,0.2781533075482388,-0.2557499999999209,0.4547699999999963,0.5217507215135943,-0.3720999999999321,0.2359899999999868,0.4406242050772327,-0.0189999999998917,0.4784699999999873,0.4788470955325757,0.0130919999999861,0.2929964999999725,109.1191035,0.1768861387644334,75.876554,0.1943107535672669,61.32765499999999,0.1472437454919554,0.10145157,0.18688705,0.0460404700948638,0,0
30,1000.0,530.0905,60.872818,0.95923775,532.6165,58.59912,0.9293348,527.8936,58.49507,0.9245685,536.225,60.62422,0.7228125,524.2865,60.393867,0.69884795,541.0751,75.1966,0.9907126,518.8881,75.569786,0.99330795,548.36926,91.77227,0.95641106,513.4247,92.920845,0.96268314,548.9784,107.97682,0.9347686,511.48874,109.75743,0.9375045,537.1188,108.718765,0.9917448,522.92444,108.89757,0.99286735,538.1497,133.74889,0.975198,523.27765,133.73633,0.97550404,538.80206,155.24667,0.93951005,524.80286,155.20161,0.9404969,1.19815345,0.22083525,1.13807532,0.30263518,158.40077298366043,169.08149748496348,179.3796512860693,176.75038944949537,0.0700177227150408,108.8081675,75.383193,60.872818,37.48965999999996,96.7516,0.387483613837046,179.03637415157095,0.9309123817647058,0.14549999999997,-0.2575000000000003,0.2957642642375704,0.0702999999999747,-0.1550910000000058,0.1702800877407521,0.0901000000000067,-0.2841730000000027,0.2981145818791874,0.0692999999999983,-0.1652990000000045,0.1792379686366738,0.0880999999999403,-0.2506880000000038,0.2657180523487092,0.0769999999998845,-0.1507660000000044,0.1692908348257032,-0.054300000000012,-0.3138450000000006,0.3185077299297486,0.0809999999999036,-0.154910000000001,0.1748087758094103,-0.101699999999937,-0.2444309999999987,0.2647440344200159,0.0616000000001122,-0.1158829999999966,0.1312380649393043,-0.2373400000000174,-0.3547999999999973,0.4268645166794804,-0.0090800000000399,-0.1694749999999913,0.1697180662893547,-0.1881999999999379,-0.1650140000000135,0.2502975433278983,0.0736300000000937,-0.083254000000025,0.1111422755571343,-0.4302399999999124,-0.4055249999999972,0.5912334422416601,-0.35583999999983,-0.2624660000000034,0.4421657005647101,-0.1356599999999161,0.1123149999999952,0.1761201147653958,-0.0659199999998918,-0.0705590000000029,0.0965609594038199,-0.0629999999999881,0.0032000000000067,0.0630812174898246,-0.4621999999999389,-0.3944899999999904,0.6076604315733714,0.275509999999997,0.6154200000000003,0.6742755642168852,0.2114199999999755,-0.1620499999999936,0.2663805903214188,0.1426000000000158,-0.242494999999991,0.2813158101227163,0.1066500000000587,-0.2146189999999848,0.2396571252039171,0.1235400000000481,-0.1057699999999925,0.1626327903591718,0.1538800000000719,-0.1598299999999852,0.2218663636066031,0.4084000000000287,-0.2824200000000019,0.4965396423247841,0.240099999999984,-0.2918499999999824,0.3779211987967624,0.1435500000000047,-0.1386099999999999,0.1995478253452072,0.2900500000000647,-0.2336300000000051,0.3724405716353147,0.4451599999999871,-0.2377199999999959,0.5046565406293538,0.1867599999999356,-0.3406699999999887,0.3885039851790046,-0.0642400000000407,-0.066360000000003,0.0923603118228042,0.3078599999998914,-0.3023499999999899,0.4315012191175444,-0.1741324999999989,-0.187224499999985,109.0081436,0.1587498950957463,75.72823960000001,0.2360282003123185,61.20380399999999,0.2178709188866127,0.0348816499999999,0.212630692,0.0678134032702862,0,0
31,1033.3333333333337,530.12866,60.773834,0.9571413,532.59357,58.46669,0.9257613,527.91095,58.399033,0.9201123,536.19336,60.40857,0.71744275,524.3097,60.248108,0.6908847,541.2115,74.96071,0.9906831,518.8526,75.43792,0.99309266,548.5271,91.733025,0.95638776,513.6843,93.19502,0.96091783,549.0358,108.233574,0.93494576,513.0158,110.23908,0.93545705,537.37256,108.423874,0.9923994,523.0532,108.65484,0.9933288,538.0805,133.47235,0.978986,523.1574,133.52008,0.97890764,538.1172,155.6315,0.9501557,524.42975,155.67166,0.9504324,1.01557401,0.28568565,0.95408689,0.19872716,158.20038648758202,166.01817323406044,178.47598130462956,176.9527372040705,0.3110749660474601,108.539357,75.19931500000001,60.773834,36.01999999999998,97.272627,0.3702994433336373,178.77731156963603,0.9310021441176471,0.038159999999948,-0.0989840000000015,0.106084955841987,-0.1073400000000219,0.1585159999999987,0.1914398021729137,-0.0229299999999739,-0.1324299999999993,0.1344004828860322,-0.1130299999999806,0.1517430000000033,0.1892134216935908,0.0173499999999648,-0.0960369999999954,0.0975916383149597,-0.0707499999999754,0.1546510000000083,0.1700661468399842,-0.0316400000000385,-0.2156500000000036,0.2179587394439691,0.0226599999999734,0.0981949999999969,0.1007756598837149,0.0231999999999743,-0.1457589999999982,0.1475937874065107,0.1248999999999114,0.0986720000000005,0.1591734072763977,0.1363999999999805,-0.2358899999999977,0.2724867925239563,0.3737399999999979,0.1189099999999996,0.3922004279701876,-0.0354999999999563,-0.131865999999988,0.136560945939876,0.1526999999999816,0.0331480000000254,0.1562564555594298,0.1578399999999646,-0.0392450000000081,0.1626457365718188,0.5880799999998771,0.366279999999989,0.6928196914059584,0.2595999999999776,0.2741749999999996,0.3775766023272471,0.3952599999998938,0.1618600000000043,0.4271172288727269,0.0574000000000296,0.2567540000000008,0.2630919544874069,0.1204000000000178,0.253553999999994,0.2806880669283988,1.527060000000006,0.4816500000000019,1.6012179633329184,1.2515500000000088,-0.1337699999999984,1.2586785989282656,0.2537600000000566,-0.2948910000000069,0.3890434930454856,0.1111600000000407,-0.0523960000000158,0.1228897327526215,0.1287599999999429,-0.2427300000000087,0.2747671568801292,0.0052199999998947,-0.1369600000000161,0.1370594396603288,-0.0692000000000234,-0.2765399999999829,0.2850666792173259,-0.4776000000000522,0.0058800000000189,0.4776361946084594,-0.1202499999999417,-0.2162500000000022,0.2474350924989965,-0.2637999999999465,-0.0776400000000023,0.2749880171934263,-0.6848599999999578,0.3848299999999938,0.7855745340194891,-1.130019999999945,0.6225499999999897,1.2901603399964916,-0.3731099999999969,0.4700500000000147,0.6001317143761122,-0.3088699999999562,0.5364100000000178,0.618980100649441,-0.2688105000000007,-0.0946780000000018,108.909629,0.260516586909754,75.6049206,0.3236025726159529,61.0718124,0.2422507779085444,-0.1039080199999999,0.21759273,0.0651269481048521,0,0
32,1066.6666666666667,529.8869,60.51831,0.9544177,532.3509,58.203682,0.9228799,527.7064,58.145355,0.91363215,536.0338,60.115448,0.71714765,524.23,59.9935,0.67269343,541.1432,74.67267,0.9901884,518.9391,75.20622,0.9923558,548.5168,91.38985,0.9548076,513.89996,92.970795,0.9563312,548.63715,107.63571,0.93283904,513.3632,109.81258,0.92961526,537.25555,108.23653,0.9923056,523.0696,108.478935,0.9930617,537.7078,133.31604,0.9801349,523.253,133.37854,0.9795105,537.64276,155.79633,0.9542821,524.6641,155.8352,0.95361185,0.95569734,0.21518541,0.91159023,0.18988392,156.62316420421058,165.9888001765449,178.80114468352377,176.82646281865695,0.2086540274972893,108.3577325,74.939445,60.51831,35.27395000000001,97.689845,0.3610810278071276,178.62348479051468,0.928812634117647,-0.2417599999999993,-0.2555240000000012,0.3517675541831569,-0.2799199999999473,-0.1565399999999996,0.3207179103199108,-0.2426699999999755,-0.2630079999999992,0.3578574254699596,-0.2197400000000016,-0.1305779999999998,0.2556096275260395,-0.2045499999999265,-0.2536780000000007,0.3258730277024631,-0.2218999999998914,-0.1576410000000052,0.2721953248697586,-0.1595599999999422,-0.2931219999999968,0.3337362738510449,-0.1279199999999036,-0.0774719999999931,0.1495507846317574,-0.0797000000000025,-0.2546080000000046,0.2667907863176739,-0.1028999999999769,-0.1088490000000064,0.1497882331860438,-0.068300000000022,-0.2880400000000094,0.2960269102632536,-0.2047000000000025,-0.0521500000000116,0.2112385203981562,0.0865000000000009,-0.2317000000000035,0.2473199142810821,0.1219999999999572,-0.0998340000000155,0.1576414525307118,-0.0103000000000292,-0.3431750000000022,0.3433295364879085,-0.1681399999999939,-0.303929999999994,0.347339177893877,0.2156599999999571,-0.2242250000000041,0.311104622635189,-0.0439400000000205,-0.4984000000000037,0.5003331725960267,-0.3986499999999751,-0.5978640000000013,0.718584153037055,-0.4560500000000047,-0.8546180000000021,0.96868649646003,0.3473999999999932,-0.4265000000000043,0.550080912230191,-1.1796600000000126,-0.9081500000000062,1.488735751602695,-0.1170100000000502,-0.1873439999999959,0.2208825806531837,-0.3707700000001068,0.1075470000000109,0.3860527815067281,0.0164000000000896,-0.175904999999986,0.176667849437859,-0.1123599999998532,0.0668250000000227,0.1307300662623945,-0.3727000000000089,-0.156310000000019,0.4041510931570179,-0.3034999999999854,0.1202299999999638,0.3264467841777316,0.0955999999999903,-0.1415400000000204,0.1708008536278549,0.2158499999999321,0.0747099999999818,0.2284136742841111,-0.4744400000000723,0.1648300000000233,0.5022571477839577,0.2104199999998854,-0.2199999999999704,0.3044282779242736,0.2343499999999494,0.1635399999999833,0.2857713318371366,0.6074599999999464,-0.3065100000000313,0.680408724003414,-0.181624499999998,0.0871860000000026,108.73135299999998,0.2747292336466951,75.38833910000001,0.3365060000806552,60.9056014,0.2854560982109021,-0.00884324,0.22506035,0.0574976703583597,0,0
33,1100.0,529.42053,60.068176,0.95240825,531.90875,57.743576,0.92163706,527.2943,57.698654,0.90826565,535.77637,59.584183,0.7214762,524.06964,59.533394,0.6559608,541.14813,74.150375,0.9897676,518.9775,74.80536,0.99174654,548.31464,90.85389,0.95346695,513.9606,92.81111,0.9525536,548.0244,106.90493,0.930972,513.4296,110.06058,0.92473423,537.13116,107.870186,0.99209654,523.0341,108.11577,0.99273396,537.4556,133.09006,0.9804401,523.3985,133.12863,0.9794295,536.9138,155.89342,0.9557263,524.73944,155.85912,0.9544469,0.9325633,0.13682451,0.90348393,0.18619924,155.74270582204832,166.19390259203723,177.90188685249987,177.45851504797142,0.03665239683002,107.992978,74.4778675,60.068176,34.885040000000004,98.194766,0.3552637382397374,178.30780794448933,0.9269330694117648,-0.4663699999999835,-0.4501339999999985,0.6481678755199021,-0.2246099999999842,-0.1946099999999972,0.2971913595648296,-0.4421499999999696,-0.4601060000000032,0.6381176644914135,-0.1994799999999941,-0.197098000000004,0.2804280513857328,-0.4121000000000094,-0.4467010000000044,0.6077566893099671,-0.2075500000000829,-0.1930230000000037,0.283434085863073,-0.2574299999999994,-0.5312649999999977,0.5903496465019669,-0.0978700000000571,-0.2381430000000008,0.2574696590843504,-0.1603599999999687,-0.4601059999999961,0.4872503061425271,-0.0806599999999662,-0.2054979999999915,0.2207611007491833,0.0049300000000584,-0.5222949999999997,0.5223182668881112,0.0732300000000805,-0.2342549999999903,0.2454343861911107,0.0383999999999105,-0.4008600000000086,0.4026950454127789,-0.0481000000000904,-0.169160000000005,0.1758656180156042,-0.2021599999999352,-0.5359599999999887,0.5728191575008309,-0.191859999999906,-0.1927849999999864,0.2719858743114405,0.0606400000000348,-0.159684999999996,0.1708113252246553,-0.1550199999999222,0.064540000000008,0.1679184683111924,-0.6127500000000055,-0.73078000000001,0.9536781275147403,-0.2141000000000303,-0.1329160000000087,0.2520029227132402,0.0664000000000442,0.2480000000000046,0.2567351943150923,-0.280999999999949,0.674500000000009,0.7306923087045487,-0.1243899999999484,-0.366343999999998,0.3868860277084011,-0.0073799999998982,-0.179000000000002,0.1791520705992516,-0.03550000000007,-0.3631650000000093,0.3648959676743656,-0.0519000000001597,-0.1872600000000233,0.1943191128016626,-0.2522000000000162,-0.2259799999999927,0.3386322494978954,0.1204999999999927,-0.0696699999999737,0.1391910877175495,0.14549999999997,-0.2499099999999998,0.2891803210801025,0.0498999999999796,-0.1083699999999794,0.1193066087859072,-0.7289599999999155,0.0970899999999801,0.7353972733834909,-0.2545199999998431,-0.0677400000000432,0.2633802156577558,0.0753399999999828,0.0239200000000039,0.0790460751713682,-0.1590099999999665,-0.1396199999999794,0.2116079499923942,-0.3647545000000036,-0.1831300000000055,108.536107,0.3872732382634946,75.12858410000001,0.4454662883403993,60.67269120000001,0.4027949453793958,-0.00368468,0.229039806,0.0529206611620516,0,0
34,1133.3333333333333,529.10535,59.803543,0.95322305,531.59174,57.454575,0.92336494,526.9299,57.426865,0.9092366,535.4259,59.234596,0.72584975,523.64624,59.232826,0.65545225,540.79645,73.769226,0.9899204,518.6581,74.461365,0.99185705,547.7451,90.67261,0.9545263,513.79926,92.56604,0.95322835,547.4795,106.99144,0.9325091,513.2936,109.84932,0.92592525,536.94916,107.49856,0.99213856,522.8655,107.772575,0.9927724,537.45386,132.97113,0.98046094,523.41504,133.02972,0.9794206,536.7797,156.00548,0.9554948,524.6091,155.98329,0.9541592,0.88466595,0.14763291,0.85484613,0.17342568,156.72095077033376,166.65308011540978,177.18848728637622,178.2685500372554,0.30808083160513,107.6355675,74.1152955,59.803543,34.45150000000001,98.578615,0.3494824881696453,178.20927348849244,0.9276199729411764,-0.3151799999999412,-0.2646330000000034,0.4115447206428054,0.1511900000000423,0.185500999999995,0.2393095006492867,-0.3170100000000957,-0.2890009999999989,0.4289719316004953,0.1251399999998739,0.1711050000000042,0.211983349876753,-0.364400000000046,-0.2717889999999983,0.454595007144857,0.0476999999999634,0.1749120000000061,0.1812994697841079,-0.3504700000000866,-0.3495869999999996,0.4950154456873649,-0.0930400000000872,0.181677999999998,0.2041159897803587,-0.4234000000000151,-0.3005679999999984,0.5192385604170898,-0.2630400000000463,0.1595379999999977,0.3076400738590856,-0.3516799999999875,-0.3811489999999935,0.518607156334143,-0.356610000000046,0.1411460000000062,0.3835269031189788,-0.3193999999999732,-0.3439949999999925,0.4694133786173736,-0.3577999999998837,0.0568650000000161,0.3622905853385079,-0.5695400000000745,-0.181280000000001,0.5976941107289625,-0.3673800000001392,0.3546799999999876,0.510652491230674,-0.1613399999999956,-0.2450699999999983,0.2934108050157624,-0.2219800000000305,-0.0853850000000022,0.2378354864712453,-0.5448999999999842,0.086510000000004,0.5517245599934658,0.0678500000000212,0.8172900000000141,0.8201015587108866,-0.1360000000000809,-0.2112599999999957,0.2512504479598399,-0.2024000000001251,-0.4592600000000004,0.5018819658047607,-0.1820000000000163,-0.3716260000000062,0.4137993280275001,-0.0576100000000678,-0.0052820000000082,0.0578516345837168,-0.1685999999999694,-0.3431949999999943,0.3823725513487936,-0.1330999999998994,0.0199700000000149,0.1345897875025212,-0.0017400000000407,-0.1189300000000059,0.1189427278146989,0.2504599999999755,0.1070499999999867,0.2723782555564685,0.0165399999999635,-0.0989099999999894,0.1002833969308813,-0.1289600000000064,0.1510000000000104,0.1985741211739455,-0.1340999999999894,0.1120600000000138,0.1747576996873106,0.594859999999926,0.0149700000000336,0.595048334591328,-0.1303399999999328,0.1241700000000207,0.1800186226477351,-0.2056799999999157,0.1002500000000168,0.2288106747946185,-0.3574104999999861,0.0073440000000175,108.2667605,0.4607243635842206,74.82302320000001,0.5217640064445195,60.4073362,0.4590492885989337,-0.0127735599999999,0.210174236,0.0524809856971692,0,0
35,1166.6666666666667,528.8603,59.582184,0.9525574,531.39954,57.22174,0.9223104,526.6727,57.18142,0.90875095,535.2385,59.104607,0.72410136,523.3428,59.059174,0.65669805,540.3234,73.81717,0.9898548,518.32275,74.47972,0.991839,546.8469,90.8055,0.953926,513.5485,92.644226,0.9528475,547.04193,107.499695,0.9318553,513.27386,110.1084,0.9254452,536.4997,107.588936,0.9923516,522.49005,107.87874,0.99299,537.0881,133.12549,0.98161983,523.16174,133.20892,0.9806803,536.2675,156.30994,0.9589643,524.0839,156.31003,0.9577695,0.88466595,0.14763291,0.85484613,0.17342568,159.66259280790533,166.1747469429347,176.65294806792608,179.23302689393657,0.2934169439658342,107.733838,74.14844500000001,59.582184,33.768069999999966,99.12861,0.3406490785995172,178.27505782473636,0.927915381764706,-0.245049999999992,-0.2213589999999996,0.3302261488449937,0.0701299999999491,0.0432740000000038,0.0824066500714184,-0.192199999999957,-0.2328350000000014,0.3019155133890674,0.1248100000001386,0.0561659999999974,0.1368654655347152,-0.2572000000000116,-0.2454449999999965,0.3555208686209634,0.1072000000000343,0.0263440000000017,0.1103895209519792,-0.1873999999999114,-0.1299890000000019,0.2280699456766877,0.1630700000001752,0.2195979999999977,0.2735235026538966,-0.3034400000000232,-0.1736520000000041,0.3496152895741483,0.1199599999999918,0.1269159999999942,0.1746369739087246,-0.4730500000000575,0.0479440000000011,0.4754733742661669,-0.1213700000000699,0.4290929999999946,0.445927661789457,-0.3353499999999485,0.0183549999999996,0.3358519443519204,-0.0159499999999752,0.3623499999999922,0.3627008753780359,-0.8981999999999744,0.132889999999989,0.907977418276441,-0.3286599999998998,0.31416999999999,0.4546649145248926,-0.2507600000000138,0.0781860000000023,0.2626663819296396,-0.0894200000000182,0.3232560000000006,0.3353958525921328,-0.4375700000000506,0.5082550000000055,0.6706643347644556,0.1073299999999335,0.4217450000000013,0.4351879753910796,-0.0197399999999561,0.2590799999999973,0.2598309334932946,0.1162600000001248,0.4703399999999931,0.4844957205177591,-0.4494600000000446,0.0903760000000062,0.4584562279826082,-0.2674600000000282,0.4620020000000124,0.5338358358184907,-0.3754500000000007,0.10616499999999,0.3901713850668682,-0.2068500000000313,0.4493599999999844,0.4946830622732083,-0.3657599999999092,0.1543600000000253,0.3969979687604729,-0.3640199999998685,0.2732900000000313,0.4551900531645231,-0.2532999999999674,0.1792000000000086,0.3102797608610439,-0.269839999999931,0.2781099999999981,0.3875032873408452,-0.5122000000000071,0.3044600000000059,0.5958563011330927,-0.3781000000000176,0.1923999999999921,0.4242373981628803,-0.5252000000000407,0.3267400000000009,0.618541888314804,-0.3948600000001079,0.2025699999999801,0.4437893920544712,0.0982704999999839,0.45568099999997,108.0518946,0.3902293662846043,74.5760736,0.4809614672888316,60.1492094,0.4934472160462408,0.0,0.184332336,0.0109479069192463,0,0
36,1200.0,528.71136,59.22328,0.9512404,531.2669,56.87201,0.9190447,526.52563,56.810944,0.9078633,535.0318,58.86915,0.7167437,523.1214,58.7688,0.66134864,539.88184,73.7062,0.9897125,518.0112,74.39671,0.9919117,546.10034,90.59065,0.9523931,513.3243,92.78721,0.95317954,546.199,106.8089,0.929941,513.1723,110.49594,0.9254988,535.9925,107.62971,0.9926494,522.0542,107.9377,0.9933436,536.6397,133.30154,0.98301804,522.8198,133.39493,0.98236233,535.841,156.72429,0.9627479,523.7498,156.7319,0.9619544,0.91043428,0.26824482,0.8482137,0.19356861,160.12991687020556,166.1940571189975,176.6028575398001,179.44049989377842,0.1312426930783019,107.783705,74.051455,59.22328,33.026700000000005,99.920956,0.3305282594521188,178.19163176160595,0.9279384147058825,-0.1489400000000387,-0.3589039999999954,0.3885810144821904,0.0961099999999532,-0.1375449999999958,0.1677967792449839,-0.1326400000000376,-0.3497299999999939,0.3740380227998294,0.0595599999999194,-0.1168949999999924,0.1311938818123338,-0.1470699999999851,-0.3704760000000036,0.3986001147465945,0.1101300000000264,-0.125031000000007,0.1666174296435027,-0.2067000000000689,-0.2354570000000038,0.3133127652187671,-0.0193000000001575,-0.1054680000000019,0.1072193500446933,-0.2214000000000169,-0.2903739999999999,0.3651506810564748,0.0820400000000063,-0.1167219999999957,0.1426695022911345,-0.4415599999999813,-0.1109700000000089,0.4552906483774792,0.0314900000000761,-0.15891400000001,0.1620039490136212,-0.3115500000000111,-0.0830100000000015,0.3224190791501135,0.0237999999999374,-0.1013650000000012,0.1041215790554353,-0.746560000000045,-0.2148499999999984,0.7768605770021197,0.1516399999999294,-0.3477399999999875,0.379364992059059,-0.2241999999999961,0.1429839999999984,0.2659136405978411,0.0265600000000176,0.0647979999999961,0.0700300964157585,-0.8429300000000239,-0.6907950000000085,1.0898296733549937,-0.4053599999999733,-1.199050000000014,1.265716252601669,-0.1015600000000631,0.3875400000000013,0.4006266156909871,-0.081820000000107,0.128460000000004,0.1523039198445613,-0.5072000000000116,0.0407739999999989,0.5088362792451141,-0.057739999999967,-0.0496020000000072,0.0761200762216966,-0.4358499999999594,0.0589600000000132,0.4398198541448148,-0.0603999999999587,-0.0472049999999768,0.0766581504146351,-0.448400000000106,0.1760499999999751,0.4817220801458932,-0.0826400000001967,0.0216899999999498,0.0854390174336663,-0.3419400000000223,0.1860099999999818,0.3892591472271506,-0.0886400000000549,0.0068099999999731,0.08890121315263,-0.4265000000000327,0.4143499999999847,0.5946328047627504,0.0856999999999743,0.1098899999999787,0.1393567440061331,-0.3340999999999212,0.4218699999999842,0.5381422738458056,0.1911000000001195,0.0951299999999832,0.2134687960804634,0.0498670000000061,-0.0484034999999778,107.9007642,0.2868884427600444,74.34650160000001,0.3703289243829207,59.8390986,0.4899761324725749,0.02014293,0.183300626,0.0093835272611306,0,0
37,1233.3333333333337,528.15845,58.832024,0.9531761,530.7355,56.495728,0.9214231,525.98584,56.440536,0.9120221,534.5548,58.600082,0.7198301,522.68463,58.525116,0.6714941,539.5118,73.57922,0.9900675,517.6594,74.26694,0.9925237,545.65546,90.64779,0.95347565,513.06354,92.7249,0.95717806,545.6973,106.60187,0.93148506,513.06616,110.091324,0.93059546,535.7098,107.46651,0.9928086,521.71893,107.761215,0.9936566,536.65015,133.46661,0.9828902,522.35767,133.52728,0.98269755,535.9886,157.16737,0.9617431,523.09973,157.12752,0.9616815,0.90611747,0.25596255,0.85067016,0.17858423,160.35442907124505,166.00955283236294,176.32981582861476,179.61910354315364,0.219425921596838,107.6138625,73.92308,58.832024,32.63376000000005,100.726834,0.3239827797627122,178.19743129416958,0.9299263811764706,-0.5529099999999971,-0.3912560000000056,0.6773409227530854,-0.4039699999999584,-0.0323520000000101,0.4052633869521981,-0.5313999999999623,-0.3762820000000033,0.6511329384418841,-0.3987599999999247,-0.0265520000000094,0.3996430235897287,-0.5397899999999254,-0.3704079999999976,0.6546566508971842,-0.3927199999999402,6.800000000595219e-05,0.3927200058870862,-0.4769999999999754,-0.2690679999999972,0.5476555382938942,-0.2702999999999065,-0.0336109999999933,0.2723816978450443,-0.4367700000000241,-0.2436840000000018,0.5001499022853267,-0.2153700000000071,0.0466899999999981,0.2203728499611576,-0.3700400000000172,-0.126979999999989,0.3912205541635178,0.071519999999964,-0.01600999999998,0.0732900436621115,-0.3518000000000256,-0.1297699999999935,0.3749713227701771,-0.0402500000000145,-0.0467599999999919,0.061697326522309,-0.4448800000000119,0.0571400000000039,0.4485344958863376,0.301680000000033,0.2719900000000024,0.4061888507825162,-0.2607600000000047,-0.0623099999999965,0.2681013123802307,-0.0365600000000085,-0.2052939999999949,0.2085240035007926,-0.5016999999999143,-0.2070299999999889,0.542737792032128,0.3412300000001096,0.4837650000000195,0.592002101453275,-0.1061399999999821,-0.4046160000000043,0.4183058773863926,-0.0045799999999189,-0.7921560000000056,0.7921692399582353,-0.2826999999999771,-0.1632000000000033,0.3264253819787734,0.2245000000000345,-0.2039740000000023,0.3033243192953978,-0.3352700000000368,-0.1764849999999995,0.3788837923757422,0.1005799999999226,-0.2354450000000127,0.2560286789111533,0.0104500000001053,0.1650700000000142,0.1654004455858777,0.4588500000002113,-0.0109799999999609,0.4589813535430313,-0.4621300000000019,0.1323500000000024,0.4807084973245245,-0.1201899999999795,-0.0536599999999793,0.1316245862291421,0.1476000000000112,0.443080000000009,0.4670178223580031,0.574100000000044,0.0287300000000243,0.574818426026908,-0.6500700000000279,0.3956200000000081,0.7609902688602809,-0.3159700000001066,-0.0262499999999761,0.3170585173119721,-0.1698424999999872,-0.2197094999999933,107.7519902,0.1516937352324871,74.1432286,0.2059602279788501,59.5018414,0.4859180668814294,-0.0149843799999999,0.181040688,0.0087402855782962,0,0
38,1266.6666666666663,527.5942,58.37213,0.9514125,530.1781,56.02133,0.91983646,525.4183,55.991425,0.90795577,534.0741,58.21353,0.72058535,522.1959,58.225967,0.6605752,539.15204,73.38216,0.98949546,517.4495,74.21918,0.99174726,545.37463,90.55885,0.9509857,513.2586,92.91773,0.9522957,545.211,106.29077,0.9277043,513.502,109.99429,0.92381656,535.54456,107.49991,0.99215573,521.61847,107.8563,0.9929293,536.62067,133.66504,0.9816684,522.39624,133.78163,0.9811431,536.01666,157.59282,0.95953697,523.0734,157.59692,0.9589863,0.97786451,0.23557398,0.90741425,0.27807064,159.4901748265774,166.5504799648778,176.19887302438138,179.9102603260074,0.4750078497028223,107.678105,73.80067,58.37213,32.11603000000002,101.60549500000002,0.3160855589937774,177.7913204681523,0.9272252976470589,-0.5642500000000155,-0.4598939999999984,0.7279289482744975,-0.0113400000000183,-0.0686379999999928,0.0695684601238193,-0.5574000000000296,-0.4743980000000007,0.7319482375168573,-0.0260000000000673,-0.0981159999999974,0.1015024603445798,-0.5675400000000081,-0.449111000000002,0.7237419028362329,-0.0277500000000827,-0.0787030000000044,0.0834519305289295,-0.4806999999999561,-0.3865520000000018,0.6168427179629822,-0.0036999999999807,-0.1174840000000045,0.1175422488129308,-0.4887299999999186,-0.2991489999999999,0.5730158262220341,-0.0519599999998945,-0.0554649999999981,0.0760013672573647,-0.3597599999999374,-0.1970600000000075,0.4101949551127585,0.0102800000000797,-0.0700800000000185,0.0708299710574855,-0.2099000000000614,-0.0477600000000109,0.2152650171301107,0.1418999999999641,0.0820099999999826,0.1638940209403228,-0.2808299999999235,-0.0889399999999938,0.2945773455307722,0.1640500000000884,-0.1460799999999977,0.2196628527995308,0.1950600000000122,0.1928300000000007,0.274284182008378,0.455820000000017,0.2551399999999972,0.5223679660928817,-0.4863000000000284,-0.3111000000000103,0.5772961978049345,0.0153999999998859,-0.1040700000000214,0.1052032551777793,0.4358399999999847,-0.0970339999999936,0.4465110331850551,0.5419799999999668,0.3075820000000107,0.6231765457107405,-0.1652399999999261,0.0334000000000003,0.1685817831201687,0.1174600000000509,0.1966000000000036,0.2290161819610426,-0.1004599999999982,0.0950849999999974,0.1383234211006912,0.2348100000000386,0.271569999999997,0.3590069651135149,-0.029480000000035,0.1984300000000018,0.2006079143503635,-0.0399300000001403,0.0333599999999876,0.052031668241662,0.0385700000000497,0.2543500000000165,0.2572577839444556,0.5007000000000517,0.1220000000000141,0.5153489012310545,0.0280599999999822,0.4254499999999837,0.4263743262674068,-0.119540000000029,-0.0176300000000253,0.1208330604594944,-0.0263300000000299,0.4694000000000073,0.4701378828599207,0.623739999999998,0.0737799999999992,0.628088430079712,0.0642424999999917,0.234084999999979,107.6890156,0.069997962540966,74.0077891,0.1443280744310335,59.1626322,0.5754702494909604,0.0994864099999999,0.199414968,0.0447372900016146,0,0
39,1300.0,526.9402,59.012344,0.94924426,529.45044,56.565872,0.926866,524.7181,56.727554,0.88518995,533.8223,58.14801,0.78799176,521.80615,58.66429,0.60136044,538.8964,72.66035,0.99297607,518.7363,73.98594,0.992834,544.83844,89.427704,0.96118295,515.1372,92.74313,0.9365846,545.4756,104.42902,0.93275315,512.6423,109.002106,0.8946479,535.5809,107.60465,0.9931452,522.90125,108.032104,0.9928894,536.22455,133.5265,0.9808834,523.35126,133.71863,0.9769717,536.54944,157.85214,0.9528576,524.8585,157.89027,0.9464775,0.98449449,0.26529707,0.90962506,0.26726224,162.91871118638002,177.86203877486236,179.34279630736404,177.4355775230771,0.7055575965975643,107.818377,73.323145,59.012344,32.83330000000001,101.324398,0.3240413989526847,176.23803758915503,0.923815051764706,-0.6539999999999964,0.6402140000000003,0.9151994131313654,-0.0897499999999809,1.1001079999999988,1.103762961040093,-0.7276600000000144,0.5445419999999999,0.908853709550674,-0.1702599999999847,1.0189400000000006,1.0330668861211243,-0.7001999999999953,0.7361289999999983,1.0159556804511656,-0.1326599999999871,1.1852400000000003,1.1926409909105076,-0.2518000000000029,-0.0655199999999993,0.2601847620442085,0.2288999999999532,0.3210320000000024,0.3942800464441234,-0.3897500000000491,0.438323000000004,0.5865425089701869,0.0989799999998695,0.7374720000000039,0.744084666677106,-0.2556400000000849,-0.721810000000005,0.7657424408376817,0.1041199999998525,-0.5247499999999974,0.5349799406519524,1.2868000000000848,-0.233239999999995,1.3077672337232706,1.4967000000001462,-0.1854799999999841,1.5081491041672346,-0.5361900000000333,-1.131146000000001,1.2517951068030415,-0.2553600000001097,-1.0422060000000073,1.0730340516666148,1.8786000000000056,-0.1746000000000123,1.8866963507676653,1.6835399999999936,-0.367430000000013,1.723169096896758,0.2645999999999731,-1.861750000000001,1.8804590456853847,0.7509000000000015,-1.5506499999999903,1.7228947247292774,-0.8596999999999753,-0.9921840000000088,1.3128264088812256,-1.29553999999996,-0.8951500000000152,1.5747118511333822,0.0363399999999956,0.1047400000000067,0.1108650675370789,0.2015799999999217,0.0713400000000064,0.2138314569935147,1.2827800000000025,0.1758039999999994,1.294770858034736,1.3832400000000007,0.0807190000000019,1.385593177870403,-0.3961199999999962,-0.1385400000000061,0.4196479310088383,-0.3666399999999612,-0.336970000000008,0.497969547763693,0.9550199999999904,-0.0630000000000166,0.9570957112013322,0.9164499999999408,-0.3173500000000331,0.9698410307879908,0.5327800000000025,0.2593200000000024,0.5925380922776222,0.5047200000000203,-0.1661299999999812,0.5313581233970308,1.7851000000000568,0.2933499999999753,1.809042905102084,1.8114300000000867,-0.176050000000032,1.8199649027935472,0.1402719999999959,0.0760295000000041,107.7255775,0.0818423313417937,73.849359,0.3221031694075867,59.00439240000001,0.450356733650992,-0.0108083999999999,0.21818228,0.0504292814129911,0,0
