frame_id,timestamp_ms,nose_x,nose_y,nose_conf,left_eye_x,left_eye_y,left_eye_conf,right_eye_x,right_eye_y,right_eye_conf,left_ear_x,left_ear_y,left_ear_conf,right_ear_x,right_ear_y,right_ear_conf,left_shoulder_x,left_shoulder_y,left_shoulder_conf,right_shoulder_x,right_shoulder_y,right_shoulder_conf,left_elbow_x,left_elbow_y,left_elbow_conf,right_elbow_x,right_elbow_y,right_elbow_conf,left_wrist_x,left_wrist_y,left_wrist_conf,right_wrist_x,right_wrist_y,right_wrist_conf,left_hip_x,left_hip_y,left_hip_conf,right_hip_x,right_hip_y,right_hip_conf,left_knee_x,left_knee_y,left_knee_conf,right_knee_x,right_knee_y,right_knee_conf,left_ankle_x,left_ankle_y,left_ankle_conf,right_ankle_x,right_ankle_y,right_ankle_conf,acc_x,acc_y,acc_z,acc_mag,left_elbow_angle,right_elbow_angle,left_knee_angle,right_knee_angle,spine_angle,hip_height,shoulder_height,head_height,bbox_width,bbox_height,bbox_aspect_ratio,shoulder_tilt,avg_confidence,nose_vx,nose_vy,nose_speed,nose_ax,nose_ay,nose_accel,left_eye_vx,left_eye_vy,left_eye_speed,left_eye_ax,left_eye_ay,left_eye_accel,right_eye_vx,right_eye_vy,right_eye_speed,right_eye_ax,right_eye_ay,right_eye_accel,left_ear_vx,left_ear_vy,left_ear_speed,left_ear_ax,left_ear_ay,left_ear_accel,right_ear_vx,right_ear_vy,right_ear_speed,right_ear_ax,right_ear_ay,right_ear_accel,left_shoulder_vx,left_shoulder_vy,left_shoulder_speed,left_shoulder_ax,left_shoulder_ay,left_shoulder_accel,right_shoulder_vx,right_shoulder_vy,right_shoulder_speed,right_shoulder_ax,right_shoulder_ay,right_shoulder_accel,left_elbow_vx,left_elbow_vy,left_elbow_speed,left_elbow_ax,left_elbow_ay,left_elbow_accel,right_elbow_vx,right_elbow_vy,right_elbow_speed,right_elbow_ax,right_elbow_ay,right_elbow_accel,left_wrist_vx,left_wrist_vy,left_wrist_speed,left_wrist_ax,left_wrist_ay,left_wrist_accel,right_wrist_vx,right_wrist_vy,right_wrist_speed,right_wrist_ax,right_wrist_ay,right_wrist_accel,left_hip_vx,left_hip_vy,left_hip_speed,left_hip_ax,left_hip_ay,left_hip_accel,right_hip_vx,right_hip_vy,right_hip_speed,right_hip_ax,right_hip_ay,right_hip_accel,left_knee_vx,left_knee_vy,left_knee_speed,left_knee_ax,left_knee_ay,left_knee_accel,right_knee_vx,right_knee_vy,right_knee_speed,right_knee_ax,right_knee_ay,right_knee_accel,left_ankle_vx,left_ankle_vy,left_ankle_speed,left_ankle_ax,left_ankle_ay,left_ankle_accel,right_ankle_vx,right_ankle_vy,right_ankle_speed,right_ankle_ax,right_ankle_ay,right_ankle_accel,hip_velocity,hip_acceleration,hip_height_mean_5,hip_height_std_5,shoulder_height_mean_5,shoulder_height_std_5,head_height_mean_5,head_height_std_5,acc_mag_diff,acc_mag_mean_5,acc_mag_std_5,label_binary,label_3class
0,0.0,552.83246,106.14148,0.958742,556.9121,101.661575,0.9557834,551.29675,103.17116,0.7419238,568.86255,101.939606,0.9304875,554.66895,104.80931,0.32485947,581.72205,120.423004,0.9959351,560.78253,123.648056,0.97533536,585.033,147.37634,0.9882882,555.0808,147.3824,0.85810626,556.43835,164.91103,0.9783012,544.8228,161.82413,0.8499488,577.28406,169.08661,0.9908296,563.6981,166.83926,0.97675973,535.6427,179.18513,0.98029363,525.4521,178.03998,0.9493897,539.64856,224.19931,0.92717606,537.1791,220.52853,0.8777716,0.98676712,-0.32523456,0.91232716,-0.1886557,114.5141480200473,158.1219762913104,98.54631505563722,90.89348630139658,0.9496200283021098,167.96293500000002,122.03553,106.14148,59.58090000000004,122.537735,0.4862249127893145,171.24424895937338,0.8976430241176471,0.0,0.0,0.0,0.0,0.0,0.0,0.0,0.0,0.0,0.0,0.0,0.0,0.0,0.0,0.0,0.0,0.0,0.0,0.0,0.0,0.0,0.0,0.0,0.0,0.0,0.0,0.0,0.0,0.0,0.0,0.0,0.0,0.0,0.0,0.0,0.0,0.0,0.0,0.0,0.0,0.0,0.0,0.0,0.0,0.0,0.0,0.0,0.0,0.0,0.0,0.0,0.0,0.0,0.0,0.0,0.0,0.0,0.0,0.0,0.0,0.0,0.0,0.0,0.0,0.0,0.0,0.0,0.0,0.0,0.0,0.0,0.0,0.0,0.0,0.0,0.0,0.0,0.0,0.0,0.0,0.0,0.0,0.0,0.0,0.0,0.0,0.0,0.0,0.0,0.0,0.0,0.0,0.0,0.0,0.0,0.0,0.0,0.0,0.0,0.0,0.0,0.0,0.0,0.0,167.96293500000002,0.0,122.03553,0.0,106.14148,0.0,0.0,-0.1886557,0.0,0,0
1,33.333333333333336,552.6185,106.10764,0.95888984,556.7307,101.652725,0.9563303,551.0604,103.1263,0.74147826,568.74854,102.081375,0.9315444,554.4348,104.87665,0.323719,581.5201,120.70183,0.9959984,560.6785,123.8609,0.9751882,584.75354,147.55176,0.98842317,555.09326,147.581,0.85607696,556.46045,164.9524,0.97838986,544.5618,161.93674,0.8480058,577.1948,169.2695,0.99098444,563.6499,166.99167,0.97691125,535.8721,179.23276,0.98076755,525.4354,177.95978,0.95012766,539.77454,224.11043,0.9292431,537.0217,220.28844,0.88046837,0.99054208,-0.33014747,0.91330974,-0.19504248,114.7252327533318,156.98576248387624,98.58599533594683,90.7060672922208,0.8459781835976526,168.130585,122.281365,106.10764,59.318140000000085,122.457705,0.4843969557946813,171.38098769446546,0.8977968564705883,-0.2139599999999291,-0.0338399999999978,0.2166195448244906,-0.2139599999999291,-0.0338399999999978,0.2166195448244906,-0.1814000000000533,-0.0088499999999953,0.1816157550985576,-0.1814000000000533,-0.0088499999999953,0.1816157550985576,-0.2363500000000158,-0.0448599999999999,0.2405696200687183,-0.2363500000000158,-0.0448599999999999,0.2405696200687183,-0.1140100000000075,0.1417689999999964,0.1819250655105027,-0.1140100000000075,0.1417689999999964,0.1819250655105027,-0.2341499999999996,0.0673400000000015,0.2436409204136284,-0.2341499999999996,0.0673400000000015,0.2436409204136284,-0.2019500000000107,0.2788259999999951,0.3442785801876173,-0.2019500000000107,0.2788259999999951,0.3442785801876173,-0.1040299999999661,0.212844000000004,0.2369067521958685,-0.1040299999999661,0.212844000000004,0.2369067521958685,-0.2794599999999718,0.1754200000000025,0.3299546453680947,-0.2794599999999718,0.1754200000000025,0.3299546453680947,0.0124600000000327,0.198599999999999,0.198990481179378,0.0124600000000327,0.198599999999999,0.198990481179378,0.0221000000000231,0.0413700000000005,0.0469029519326989,0.0221000000000231,0.0413700000000005,0.0469029519326989,-0.2610000000000809,0.1126099999999894,0.2842569473206238,-0.2610000000000809,0.1126099999999894,0.2842569473206238,-0.0892599999999674,0.1828899999999862,0.2035094585025206,-0.0892599999999674,0.1828899999999862,0.2035094585025206,-0.0481999999999516,0.1524100000000032,0.1598500800750388,-0.0481999999999516,0.1524100000000032,0.1598500800750388,0.2294000000000551,0.0476300000000264,0.2342925028677354,0.2294000000000551,0.0476300000000264,0.2342925028677354,-0.0167000000000143,-0.0802000000000191,0.0819202661128706,-0.0167000000000143,-0.0802000000000191,0.0819202661128706,0.1259800000000268,-0.0888799999999889,0.1541772188100589,0.1259800000000268,-0.0888799999999889,0.1541772188100589,-0.1573999999999387,-0.2400899999999808,0.2870852976032933,-0.1573999999999387,-0.2400899999999808,0.2870852976032933,0.1676499999999805,0.1676499999999805,168.04676,0.1185464518659109,122.1584475,0.1738315955529946,106.12456,0.0239284934753512,-0.0063867799999999,-0.19184909,0.0045161354479466,0,0
2,66.66666666666667,552.3155,106.1026,0.9594687,556.45325,101.65414,0.9570269,550.80334,103.142876,0.7435341,568.6442,102.17168,0.93204397,554.25354,105.00479,0.32222608,581.419,120.85623,0.9960074,560.4863,124.10159,0.97507054,584.6416,147.66695,0.98842597,554.73645,147.86188,0.85515624,556.747,164.99017,0.9784199,544.4558,161.96768,0.84735805,577.0918,169.26413,0.9908606,563.4747,167.04907,0.9765212,536.03937,179.38388,0.98036706,525.51917,178.25209,0.9489879,539.96094,224.1984,0.9274087,537.0209,220.55017,0.8773075,0.99612561,-0.33751683,0.91502926,-0.20265749,114.98731182112924,157.51823945531297,98.84675388020248,91.23247934915948,0.8396869136188141,168.1566,122.47891,106.1026,59.12243000000001,122.54426,0.4824577627507175,171.1871514057399,0.8974229888235294,-0.3029999999999972,-0.0050400000000081,0.3030419139327074,-0.0890400000000681,0.0287999999999897,0.0935818443930848,-0.2774499999999307,0.0014149999999943,0.2774536082392181,-0.0960499999998774,0.0102649999999897,0.0965969602263768,-0.2570599999999103,0.0165760000000005,0.2575938807036261,-0.0207099999998945,0.0614360000000004,0.0648327555792262,-0.1043400000000929,0.0903050000000007,0.1379921324750782,0.0096699999999145,-0.0514639999999957,0.0523646082387513,-0.181259999999952,0.1281400000000019,0.2219798351201818,0.0528900000000476,0.0608000000000004,0.0805853094552914,-0.1010999999999739,0.1543999999999954,0.1845550595350702,0.1008500000000367,-0.1244259999999997,0.160164140730712,-0.192199999999957,0.2406900000000007,0.3080138245273803,-0.0881699999999909,0.0278459999999967,0.0924626876961633,-0.1119400000000041,0.1151900000000125,0.1606216040886275,0.1675199999999677,-0.06022999999999,0.1780185476291388,-0.3568099999999958,0.2808800000000246,0.4541001547015932,-0.3692700000000286,0.0822800000000256,0.3783256947393679,0.2865499999999201,0.0377699999999947,0.2890285027466215,0.264449999999897,-0.0036000000000058,0.2644745025516554,-0.1059999999999945,0.0309400000000152,0.1104232022719853,0.1550000000000864,-0.0816699999999741,0.1751998541666703,-0.1029999999999518,-0.0053699999999992,0.1031398899552935,-0.0137399999999843,-0.1882599999999854,0.1887607353238328,-0.175200000000018,0.0574000000000012,0.1843632284377946,-0.1270000000000664,-0.095010000000002,0.1586061162125132,0.1672699999999167,0.1511199999999917,0.2254251700675185,-0.0621300000001383,0.1034899999999652,0.1207075681140581,0.0837700000000722,0.2923100000000147,0.3040765512169932,0.1004700000000866,0.3725100000000338,0.3858210997341159,0.1864000000000487,0.0879699999999843,0.2061156978495704,0.0604200000000219,0.1768499999999733,0.1868863261450478,-0.0008000000000265,0.26173,0.2617312226311565,0.1565999999999121,0.5018199999999808,0.5256870479667093,0.026015000000001,-0.1416349999999795,168.08337333333336,0.1051106044047487,122.26526833333332,0.2221278530674059,106.11724,0.0211431691096679,-0.00761501,-0.19545189,0.0070098675602396,0,0
3,100.0,552.16296,106.58513,0.95996106,556.2279,102.016045,0.9565558,550.4413,103.6063,0.75163335,568.1898,102.11933,0.93017393,553.5948,105.24333,0.33392665,581.369,120.5827,0.99594045,559.90094,124.11499,0.97607416,585.19507,147.4287,0.9880455,554.62256,147.99133,0.8615872,557.2658,164.64229,0.97788405,544.50305,161.88847,0.85233146,577.0364,169.36264,0.99087816,563.1066,167.21579,0.97726065,536.1759,179.27827,0.9804693,525.4227,177.98647,0.950774,539.9229,224.15074,0.9286062,536.8612,220.15445,0.88145554,1.00576669,-0.34783394,0.92092475,-0.20609652,113.53556402748208,156.40490356003815,98.86699626996511,90.7739510497908,0.7028133385376784,168.289215,122.348845,106.58513,59.77237000000002,122.134695,0.4893971324905088,170.6564421755971,0.8996210270588234,-0.1525400000000445,0.4825300000000112,0.5060668458810796,0.1504599999999527,0.4875700000000194,0.5102575001898597,-0.2253500000000485,0.3619050000000072,0.4263306833023247,0.0520999999998821,0.3604900000000128,0.3642354322412867,-0.3620400000000927,0.4634240000000034,0.5880771763774465,-0.1049800000001823,0.4468480000000028,0.4590140907467229,-0.4543999999999641,-0.0523499999999899,0.4574055995502967,-0.3500599999998712,-0.1426549999999906,0.3780111805554264,-0.6587400000000798,0.2385400000000004,0.7005995426776308,-0.4774800000001278,0.1103999999999985,0.4900768413219724,-0.0499999999999545,-0.2735299999999938,0.2780623327601063,0.0511000000000194,-0.4279299999999892,0.4309701786666832,-0.585360000000037,0.0134000000000042,0.5855133556120162,-0.3931600000000799,-0.2272899999999964,0.4541316215592801,0.5534699999999475,-0.238250000000022,0.6025712434226781,0.6654099999999517,-0.3534400000000346,0.7534522557534487,-0.1138899999999694,0.1294499999999914,0.1724187768196689,0.2429200000000264,-0.1514300000000332,0.2862536834697903,0.5188000000000557,-0.3478800000000035,0.6246390432882499,0.2322500000001355,-0.3856499999999982,0.4501843900004326,0.0472500000000764,-0.0792099999999891,0.0922322427354203,0.1532500000000709,-0.1101500000000044,0.188728866366602,-0.0554000000000769,0.0985100000000045,0.1130193793117331,0.0475999999998748,0.1038800000000037,0.1142664185138786,-0.3681000000000267,0.1667199999999979,0.4040954941595105,-0.1929000000000087,0.1093199999999967,0.2217234141898474,0.1365299999999933,-0.1056100000000128,0.1726091335937959,-0.0307399999999233,-0.2567300000000045,0.2585638035379229,-0.0964700000000675,-0.2656200000000126,0.2825959046058873,-0.1802400000001398,-0.5579300000000273,0.5863210234164223,-0.0380400000000236,-0.0476599999999791,0.0609796457844731,-0.2244400000000723,-0.1356299999999635,0.2622380798053985,-0.1596999999999298,-0.3957200000000114,0.4267299009912319,-0.1588999999999032,-0.6574500000000114,0.6763798581418464,0.1326150000000154,0.1066000000000144,168.13483375,0.1340081740277501,122.2861625,0.1861185649212231,106.2342125,0.2345810849685086,-0.00343903,-0.1981130475,0.007815744735295,0,0
4,133.33333333333334,552.03406,106.981155,0.9597886,556.0018,102.33589,0.95556074,550.1438,103.96516,0.75504696,567.6359,102.04701,0.9284239,553.0891,105.28704,0.34413832,581.0956,120.232056,0.9958632,559.62024,123.842285,0.9769191,585.2439,147.26083,0.9877198,554.86304,147.84497,0.86732996,556.9568,164.62718,0.97737736,544.47797,161.8377,0.85682315,577.2355,169.36127,0.9908818,563.31915,167.20982,0.9779156,536.1947,179.28122,0.98047775,525.42566,177.77658,0.9521375,539.7792,224.20338,0.9291655,536.7726,219.83951,0.88436717,1.02032603,-0.35176427,0.93517219,-0.20683346,112.82157756036386,154.62850638371964,99.02613895800296,90.4845396583274,0.1005551195933541,168.285545,122.0371705,106.981155,59.81824000000006,122.15637,0.4896857978860559,170.4572186502883,0.90117273,-0.1289000000000442,0.3960249999999945,0.416474501770525,0.0236400000000003,-0.0865050000000167,0.0896770016503836,-0.226099999999974,0.3198450000000008,0.3916912483385208,-0.0007499999999254,-0.0420600000000064,0.0420666863444273,-0.2974999999998999,0.3588599999999928,0.4661402681596338,0.0645400000001927,-0.1045640000000105,0.1228781579290114,-0.5538999999999987,-0.0723200000000048,0.5586012821324341,-0.0995000000000345,-0.0199700000000149,0.101484239663149,-0.5056999999999334,0.0437100000000043,0.5075855140761338,0.1530400000001464,-0.194829999999996,0.2477498143289784,-0.2734000000000378,-0.3506440000000026,0.4446333036739629,-0.2234000000000833,-0.0771140000000087,0.2363347816044828,-0.2807000000000244,-0.272705000000002,0.3913572626450348,0.3046600000000126,-0.2861050000000062,0.4179399318383101,0.0488300000000663,-0.1678699999999935,0.1748276459831347,-0.5046399999998812,0.0703800000000285,0.5095241642943777,0.240479999999934,-0.1463600000000156,0.2815171042760508,0.3543699999999035,-0.275810000000007,0.4490537306380334,-0.3089999999999691,-0.0151099999999928,0.3093692164711619,-0.8278000000000247,0.3327700000000106,0.8921819953911018,-0.0250800000000026,-0.0507699999999999,0.056626842574879,-0.072330000000079,0.0284399999999891,0.0777204123767419,0.199100000000044,-0.0013700000000085,0.1991047134048251,0.2545000000001209,-0.099880000000013,0.2733976305677578,0.2125500000000784,-0.0059699999999907,0.2126338246846752,0.5806500000001051,-0.1726899999999886,0.6057856540065292,0.0188000000000556,0.0029499999999984,0.0190300420388942,-0.1177299999999377,0.1085600000000113,0.1601425193382063,0.00296000000003,-0.2098900000000014,0.2099108708476071,0.0994300000000976,0.0557300000000111,0.113983146999987,-0.1437000000000807,0.0526399999999966,0.1530380985245924,-0.1056600000000571,0.1002999999999758,0.1456850218794205,-0.0886000000000422,-0.3149400000000071,0.3271653459644098,0.0710999999998875,0.0807800000000042,0.1076132817080898,-0.0036699999999996,-0.1362850000000151,168.164976,0.1342066287669981,122.2363641,0.1959068487037913,106.383601,0.3909678167445536,-0.0007369399999999,-0.19985713,0.0078117551266984,0,0
5,166.66666666666666,551.28253,107.23085,0.95851153,555.21814,102.52916,0.9547792,549.47156,104.13471,0.745378,567.07745,101.89304,0.92870194,552.71375,105.10155,0.3330449,580.82166,119.96546,0.9958664,559.4096,123.44388,0.9762146,584.64557,147.46617,0.9878544,554.69385,147.86644,0.86428654,556.4332,164.95828,0.9774784,544.32654,161.91669,0.85415286,577.1784,169.52922,0.99104905,563.3019,167.2725,0.9780343,536.4067,179.47786,0.98104024,525.4946,177.59929,0.95295787,539.7565,224.41855,0.9316059,536.54456,219.52045,0.88755435,1.00609577,-0.34464055,0.92215298,-0.2075704,113.88347059500477,154.50609955485567,99.44985110504844,90.51060815420936,0.1532439302864004,168.40086000000002,121.70467,107.23085,59.15097000000003,122.52551,0.4827645240345092,170.7728244294621,0.8999123811764705,-0.7515300000000025,0.2496950000000026,0.7919248284559621,-0.6226299999999583,-0.1463299999999918,0.6395940789281477,-0.7836600000000544,0.1932699999999982,0.8071408108255242,-0.5575600000000804,-0.1265750000000025,0.5717467833097886,-0.6722400000001016,0.1695500000000009,0.6932920164693497,-0.3747400000002017,-0.1893099999999918,0.4198432370541987,-0.5584499999999935,-0.153970000000001,0.5792867712972505,-0.0045499999999947,-0.0816499999999962,0.0817766776043104,-0.3753500000000258,-0.1854900000000015,0.4186814571963033,0.1303499999999076,-0.2292000000000058,0.2636735908277099,-0.2739400000000387,-0.2665960000000069,0.3822519467785938,-0.0005400000000008,0.0840479999999956,0.0840497347051094,-0.2106400000000121,-0.398405000000011,0.4506614623251181,0.0700600000000122,-0.125700000000009,0.1439058497768731,-0.5983300000000327,0.2053400000000067,0.6325846224024434,-0.647160000000099,0.3732100000000002,0.7470620922655146,-0.1691899999999577,0.021470000000022,0.1705468176190533,-0.4096699999998918,0.1678300000000376,0.4427148267224896,-0.5235999999999876,0.3310999999999922,0.6195031638337143,-0.2146000000000185,0.346209999999985,0.4073260660699209,-0.1514300000000048,0.0789899999999761,0.1707936327852935,-0.1263500000000021,0.1297599999999761,0.181113169316851,-0.0570999999999912,0.1679500000000189,0.1773911285831547,-0.2562000000000353,0.1693200000000274,0.307095591632357,-0.0172499999999899,0.0626800000000002,0.0650103445614595,-0.2298000000000684,0.068649999999991,0.2398350735401938,0.211999999999989,0.1966400000000021,0.2891561681859756,0.1931999999999334,0.1936900000000037,0.2735727619847701,0.0689399999999977,-0.1772899999999992,0.1902221535468449,0.0659799999999677,0.0326000000000021,0.0735942959745922,-0.0226999999999861,0.2151700000000005,0.2163640887485712,0.1210000000000945,0.1625300000000038,0.2026252721158546,-0.2280399999999645,-0.319059999999979,0.3921753755655375,-0.1394399999999223,-0.0041199999999719,0.1395008530439083,0.1153150000000096,0.1189850000000092,168.252561,0.1101257366263961,122.1701921,0.3057730309429702,106.601475,0.5082534370026495,-0.0007369399999999,-0.20364007,0.0051614774403265,0,0
6,200.0,550.6203,107.60433,0.95816934,554.53296,102.84757,0.95491004,548.805,104.428795,0.7406945,566.5204,101.9023,0.9298843,552.2102,105.069916,0.32826364,580.3999,119.85526,0.9959394,559.26404,123.14914,0.9760172,583.9994,147.80058,0.9881104,554.7917,147.91498,0.8630038,555.7081,165.13043,0.97777885,544.1045,162.04924,0.85312533,577.15784,169.64261,0.9912246,563.43945,167.27306,0.9782317,536.56635,179.64919,0.9814699,525.5778,177.42627,0.95354944,539.8202,224.60469,0.93318284,536.4272,219.23096,0.8895248,1.01147024,-0.34832523,0.92608331,-0.21002685,114.14999595767264,153.14277414844273,99.70857208235589,90.46282370544058,0.5695459474711909,168.457835,121.5022,107.60433,58.42160000000001,122.70239,0.4761243813089185,171.14209485489067,0.899592945882353,-0.6622299999999086,0.3734800000000007,0.7602867112477236,0.0893000000000938,0.123784999999998,0.1526342563942193,-0.6851799999999457,0.3184100000000001,0.7555505016211197,0.0984800000001087,0.1251400000000018,0.1592429904266491,-0.666560000000004,0.2940849999999955,0.7285521400867633,0.0056800000000976,0.1245349999999945,0.1246644641628068,-0.5570500000000038,0.0092599999999976,0.5571269604856726,0.0013999999999896,0.1632299999999986,0.1632360036879105,-0.5035500000000184,-0.0316339999999968,0.5045426765458184,-0.1281999999999925,0.1538560000000046,0.2002670934926642,-0.4217599999999493,-0.1101999999999918,0.435919187005981,-0.1478199999999105,0.156396000000015,0.2151986552373835,-0.1455599999999322,-0.2947399999999902,0.3287238677065821,0.0650800000000799,0.1036650000000207,0.1224003211801942,-0.6461699999999837,0.3344099999999912,0.7275752311616807,-0.047839999999951,0.1290699999999844,0.1376507555373064,0.097849999999994,0.0485400000000026,0.1092279913758331,0.2670399999999517,0.0270699999999806,0.2684085440144803,-0.7251000000001113,0.1721499999999878,0.7452554142709447,-0.2015000000001237,-0.1589500000000043,0.2566463568805356,-0.2220399999999927,0.132550000000009,0.2585947874571317,-0.0706099999999878,0.0535600000000329,0.0886253107187885,-0.0205600000000458,0.1133899999999812,0.1152389070583265,0.0365399999999453,-0.0545600000000376,0.0656655556589611,0.1375499999999192,0.0005599999999787,0.1375511399443049,0.1547999999999092,-0.0621200000000214,0.1667990839302619,0.159650000000056,0.1713300000000117,0.2341838837324676,-0.052349999999933,-0.0253099999999903,0.058147386871574,0.0832000000000334,-0.1730200000000081,0.1919847921060634,0.0142600000000356,0.0042699999999911,0.0148855802708843,0.0637000000000398,0.1861399999999946,0.1967378702741368,0.086400000000026,-0.0290300000000058,0.0911465901721223,-0.117360000000076,-0.2894900000000007,0.3123745023205611,0.1106799999998884,0.0295699999999783,0.1145619801678289,0.0569749999999658,-0.0583400000000438,168.318011,0.1165670080576099,122.0143591,0.4142532432978634,106.900813,0.5803264549975408,-0.0024564499999999,-0.206636944,0.002670652240976,0,0
7,233.3333333333333,549.9437,108.20446,0.95474,553.62366,103.401825,0.9517898,548.12244,105.09175,0.72126746,565.2863,102.06244,0.92876476,551.7604,105.48616,0.31787026,579.3269,119.545876,0.996015,559.0227,123.13431,0.97508156,583.4384,147.08748,0.9887073,554.8659,147.74168,0.86012536,555.85425,165.17152,0.9784687,544.0953,162.25244,0.8506792,576.2284,169.73938,0.99187684,563.1206,167.56177,0.97924405,536.1153,179.49104,0.98298234,525.7616,177.51617,0.95616525,539.7289,224.45447,0.9387323,536.3417,219.08861,0.8966909,1.0097268,-0.34857088,0.92583766,-0.2021662,114.75806372550102,153.00354932589386,99.0689362725897,90.64142334833107,0.6052582648604554,168.650575,121.340093,108.20446,57.67679999999996,122.39203,0.4712463673390628,169.97740749879878,0.8981882988235294,-0.6766000000000076,0.600129999999993,0.9044023313216314,-0.014370000000099,0.2266499999999922,0.2271050844873345,-0.9093000000000302,0.5542549999999977,1.064906143763408,-0.2241200000000844,0.2358449999999976,0.3253500244736993,-0.6825599999999667,0.6629550000000108,0.9515237703940816,-0.0159999999999627,0.3688700000000153,0.3692168426548417,-1.2341000000000122,0.1601399999999984,1.2444467162558748,-0.6770500000000084,0.1508800000000008,0.6936580403195883,-0.449799999999982,0.4162439999999918,0.6128450926098511,0.0537500000000363,0.4478779999999887,0.4510917482996045,-1.072999999999979,-0.3093839999999943,1.1167127918385962,-0.6512400000000298,-0.1991840000000024,0.6810196791988025,-0.2413400000000365,-0.0148300000000034,0.2417952119046564,-0.0957800000001043,0.2799099999999868,0.2958435676164222,-0.5610000000000355,-0.7130999999999972,0.9073216684285876,0.0851699999999482,-1.0475099999999884,1.0509667592269352,0.0742000000000189,-0.1733000000000117,0.1885166570889874,-0.023649999999975,-0.2218400000000144,0.223097082231044,0.1461500000000342,0.0410899999999969,0.1518163713174891,0.8712500000001455,-0.1310599999999908,0.8810523742095309,-0.009200000000078,0.2032000000000096,0.2034081610948915,0.2128399999999146,0.0706500000000005,0.2242594214296553,-0.9294399999999996,0.0967700000000206,0.9344640958859808,-0.9088799999999536,-0.0166199999999605,0.9090319459732504,-0.3188499999999976,0.2887100000000089,0.4301381017766313,-0.4563999999999168,0.2881500000000301,0.5397512227868887,-0.4510500000000093,-0.1581500000000062,0.4779723056830911,-0.6107000000000653,-0.329480000000018,0.6939103403178912,0.1838000000000192,0.0899,0.2046080399202511,0.1005999999999858,0.2629200000000082,0.2815089455061801,-0.0913000000000465,-0.1502200000000186,0.1757889029490033,-0.1550000000000864,-0.3363600000000133,0.3703553018387016,-0.0855000000000245,-0.1423500000000217,0.1660535229978888,0.0318600000000515,0.1471399999999789,0.1505497897706838,0.1927400000000148,0.1357650000000489,168.416806,0.1500787397668289,121.7865957,0.4080041057856476,107.321185,0.6176373516878706,0.0078606499999999,-0.2065386859999999,0.0028562544604569,0,0
8,266.6666666666667,549.017,108.59217,0.95644915,552.72656,103.780075,0.9543264,546.9614,105.46733,0.7298939,564.0684,102.35812,0.9316591,550.1173,105.78803,0.32416576,577.9707,119.51221,0.9961343,557.95917,123.48248,0.9746509,583.11285,146.64261,0.988929,555.1874,148.06306,0.8547252,556.1811,165.26999,0.97861177,544.3202,162.5161,0.8456178,576.02246,169.49196,0.99158704,563.1209,167.55795,0.9779986,535.6919,179.13535,0.98216105,525.53094,177.5122,0.9529477,539.6944,224.16881,0.9357467,536.7757,219.07841,0.8901027,1.01460648,-0.33997329,0.93517219,-0.19823587,113.93749297025036,149.4942411213895,98.36843084412727,89.69444350811841,1.9568416812134777,168.524955,121.497345,108.59217,57.58190999999999,121.81069,0.4727163890729426,168.77829029068823,0.8979827688235293,-0.9266999999999824,0.3877099999999984,1.0045356808495984,-0.2500999999999749,-0.2124199999999945,0.3281345248522092,-0.8971000000000231,0.3782499999999942,0.9735817749424222,0.012200000000007,-0.1760050000000035,0.1764273222179643,-1.1610399999999572,0.3755799999999993,1.2202762875676558,-0.4784799999999904,-0.2873750000000115,0.5581464870667892,-1.217899999999986,0.2956800000000044,1.253278529457825,0.0162000000000261,0.135540000000006,0.1365046944247796,-1.643100000000004,0.3018700000000081,1.6705996249550694,-1.193300000000022,-0.1143739999999837,1.1987686606998236,-1.356200000000058,-0.0336660000000108,1.356617794205928,-0.2832000000000789,0.2757179999999835,0.3952501176774468,-1.0635300000000143,0.3481699999999961,1.119070332820966,-0.8221899999999778,0.3629999999999995,0.8987576959892822,-0.3255500000000211,-0.4448700000000087,0.5512641103863206,0.2354500000000143,0.2682299999999884,0.3569090015676273,0.3215000000000145,0.3213800000000049,0.4545848154085357,0.2472999999999956,0.4946800000000166,0.5530511661682076,0.3268500000000358,0.0984700000000202,0.3413608990497116,0.1807000000000016,0.0573800000000233,0.1895915462250447,0.2249000000000478,0.2636599999999873,0.3465495716344414,0.2341000000001258,0.0604599999999777,0.2417813508111331,-0.2059399999999414,-0.2474200000000053,0.3219129385408087,0.7235000000000582,-0.344190000000026,0.8011984810894877,0.0003000000000383,-0.0038199999999903,0.0038317619967776,0.319150000000036,-0.2925299999999993,0.4329324697917939,-0.4234000000000151,-0.3556900000000098,0.552976433584669,0.0276499999999941,-0.1975400000000036,0.1994657216165251,-0.2306600000000571,-0.0039699999999811,0.2306941622582292,-0.4144600000000764,-0.0938699999999812,0.4249572549093142,-0.0344999999999799,-0.2856599999999787,0.2877357913086004,0.0568000000000665,-0.13543999999996,0.146868082305165,0.4340000000000827,-0.0101999999999975,0.4341198452041461,0.5195000000001073,0.1321500000000242,0.5360446553227799,-0.1256199999999978,-0.3183600000000126,168.463954,0.1363786877778219,121.6162957,0.2685147311842294,107.722593,0.6696804438835019,0.0039303299999999,-0.2049665559999999,0.004717415533036,0,0
9,300.0,548.51105,108.7606,0.95684254,552.1887,104.03183,0.9534041,546.21906,105.65747,0.74040437,562.7939,102.62514,0.9287657,548.5738,105.96729,0.33923036,576.87823,119.46866,0.99607617,556.1786,123.70711,0.9753828,583.4619,146.14236,0.9886663,554.4862,148.0711,0.86006266,556.5552,164.78085,0.9781756,544.23035,162.27208,0.8496158,575.79645,169.44603,0.99157727,562.4971,167.71269,0.9784574,535.8177,179.03195,0.9819948,525.4283,177.68277,0.9535496,539.63385,223.86298,0.9355695,537.1154,219.18369,0.8910766,1.002219,-0.33088441,0.92682024,-0.18963828,110.84589148777764,148.13700655991764,98.61810640670384,89.32631815957623,3.1892388027976986,168.57936,121.587885,108.7606,58.03359999999998,121.23784,0.4786756306556134,168.42808737992723,0.8999324452941176,-0.505950000000098,0.1684300000000007,0.5332485981229576,0.4207499999998845,-0.2192799999999977,0.4744620963785219,-0.5378599999999096,0.2517550000000028,0.5938635867140738,0.3592400000001134,-0.1264949999999913,0.3808600302277456,-0.7423400000000129,0.1901399999999995,0.766304048795267,0.4186999999999443,-0.1854399999999998,0.4579275964603502,-1.274499999999989,0.2670200000000022,1.3021712369730694,-0.056600000000003,-0.0286600000000021,0.0634425377802659,-1.5434999999999943,0.1792599999999993,1.5538746402461117,0.0996000000000094,-0.1226100000000087,0.1579663638247207,-1.0924699999999348,-0.0435499999999962,1.0933376895542644,0.2637300000001232,-0.0098839999999853,0.2639151499176671,-1.7805700000000115,0.2246300000000047,1.7946833040400312,-0.7170399999999972,-0.1235399999999913,0.727604626978137,0.3490500000000338,-0.5002499999999941,0.6099884957931729,0.6746000000000549,-0.0553799999999853,0.676869340715084,-0.7011999999999716,0.008039999999994,0.7012460920389932,-1.0226999999999862,-0.3133400000000108,1.0696248153441368,0.3740999999999985,-0.4891400000000203,0.6157992770375903,0.0472499999999627,-0.5876100000000406,0.5895066366039013,-0.0898499999999558,-0.2440200000000061,0.260036118452793,-0.3147500000000036,-0.5076799999999935,0.597332859384109,-0.2260099999999738,-0.0459299999999984,0.23062975740348,-0.0200700000000324,0.2014900000000068,0.2024870983544484,-0.6237999999999602,0.1547400000000038,0.6427059262212785,-0.6240999999999985,0.1585599999999942,0.6439270794119443,0.1257999999999128,-0.1033999999999935,0.1628410267714396,0.549199999999928,0.2522900000000163,0.6043764423767104,-0.1026399999999512,0.1705699999999979,0.199070576680707,0.1280200000001059,0.174539999999979,0.2164563050595196,-0.060549999999921,-0.3058300000000145,0.3117664051818272,-0.026049999999941,-0.0201700000000357,0.0329458859343374,0.3396999999999934,0.1052800000000218,0.355640223259406,-0.0943000000000893,0.1154800000000193,0.1490909802772163,0.0544050000000027,0.1800250000000005,168.522717,0.0982597433209669,121.52643859999998,0.1338849524303899,108.078482,0.6496789419166963,0.00859759,-0.20152752,0.008083191028081,0,0
10,333.3333333333333,547.15265,108.96066,0.954804,550.7914,104.31203,0.95153946,544.95886,105.84237,0.7278134,561.37885,102.81218,0.9278583,547.39813,105.96261,0.32577315,575.99554,119.27623,0.9960304,555.1708,123.56558,0.974463,583.0905,146.07014,0.9888164,553.8399,148.38063,0.85821515,556.1137,164.4609,0.97850865,544.25525,162.58414,0.84885436,576.3628,168.95691,0.99167997,562.98,167.27069,0.97852784,536.07947,178.91064,0.9823433,525.63525,177.67865,0.95399946,539.516,223.88702,0.93653744,537.2429,219.46487,0.89209175,1.01126049,-0.3340778,0.93418961,-0.19577942,109.45184898186614,149.05817654456345,99.51004273659125,90.04854488915036,5.003826757970073,168.1138,121.420905,108.96066,57.45524999999998,121.07484,0.4745432620473148,168.36134181653432,0.8981091782352941,-1.3583999999999603,0.2000600000000076,1.3730530082993504,-0.8524499999998625,0.0316300000000069,0.8530366108202895,-1.3973000000000866,0.2801999999999935,1.4251173039438678,-0.859440000000177,0.0284449999999907,0.8599105951349266,-1.2602000000000544,0.1848999999999989,1.2736922901549403,-0.5178600000000415,-0.0052400000000005,0.5178865099614423,-1.415049999999951,0.1870399999999961,1.4273578612596984,-0.1405499999999619,-0.0799800000000061,0.1617130263769443,-1.1756699999999682,-0.0046800000000075,1.175679314821829,0.3678300000000263,-0.1839400000000068,0.4112576230296794,-0.8826900000000251,-0.1924300000000016,0.903421795730015,0.2097799999999097,-0.1488800000000054,0.2572409430863674,-1.0077999999999747,-0.141530000000003,1.017689334178142,0.7727700000000368,-0.3661600000000078,0.8551295916409761,-0.3713999999999942,-0.0722199999999873,0.378356562517414,-0.720450000000028,0.4280300000000068,0.8380082836106372,-0.6463000000001102,0.3095299999999952,0.7165978725199647,0.0548999999998613,0.3014900000000011,0.3064477608010629,-0.4415000000000191,-0.3199499999999773,0.5452432966117075,-0.8156000000000176,0.169190000000043,0.8329637543735281,0.0249000000000023,0.3120600000000024,0.3130518385188013,0.1147499999999581,0.5560800000000086,0.5677962036681823,0.5663499999999431,-0.489120000000014,0.7483252614337893,0.7923599999999169,-0.4431900000000155,0.9078831123552646,0.4828999999999723,-0.4420000000000073,0.6546421999840674,1.1066999999999323,-0.5967400000000112,1.2573319043116118,0.2617700000000695,-0.121309999999994,0.2885128229386607,0.1359700000001567,-0.0179100000000005,0.1371444822077892,0.2069500000000061,-0.0041200000000003,0.2069910068094808,0.3095899999999574,-0.1746899999999982,0.3554751245867606,-0.1178500000000895,0.0240400000000136,0.1202769475004323,-0.0573000000001684,0.3298700000000281,0.3348096577161982,0.1274999999999408,0.2811799999999778,0.3087368497603945,-0.2122000000000525,0.1758999999999559,0.2756259240347447,-0.4655600000000106,-0.5199650000000133,168.465305,0.2088679034401985,121.4696856,0.0934974808312496,108.424444,0.5361064258428515,-0.00614114,-0.199169324,0.0075840411692797,0,0
11,366.6666666666666,545.2546,109.30439,0.9511851,548.8087,104.70294,0.95019203,543.2153,106.111435,0.69756466,559.4031,103.09793,0.9316413,546.1573,105.98242,0.2990105,574.68243,119.28792,0.9962619,554.58075,123.58389,0.9718593,583.28217,145.6632,0.9899154,554.159,148.31247,0.8454217,555.8973,163.81631,0.98012805,543.6823,162.12215,0.83964914,576.03735,169.56284,0.99196047,563.2317,167.82803,0.97766453,535.9387,178.57538,0.98276764,525.78424,177.39116,0.95194006,538.6473,223.7516,0.9370953,537.03625,219.45349,0.88857526,1.0192643,-0.35594024,0.93517219,-0.1940599,105.48121731631788,143.79135783665382,99.2361133444163,89.34928988708793,6.042886358991432,168.695435,121.435905,109.30439,57.49793,120.65367,0.476553506606525,167.93667553038648,0.8931077847058823,-1.898050000000012,0.3437299999999936,1.9289230454842,-0.5396500000000515,0.1436699999999859,0.5584471249814539,-1.9826999999999089,0.3909100000000052,2.020868604857734,-0.5853999999998223,0.1107100000000116,0.5957766897922363,-1.7435600000000022,0.2690649999999976,1.7641988118760896,-0.4833599999999478,0.0841649999999987,0.4906328941530004,-1.9757500000000616,0.2857500000000073,1.9963068714504413,-0.5607000000001108,0.0987100000000111,0.5693225396031028,-1.2408300000000736,0.0198100000000067,1.240988124439627,-0.0651600000001053,0.0244900000000143,0.0696102413443196,-1.3131100000000515,0.0116900000000015,1.3131620342517276,-0.4304200000000264,0.2041200000000032,0.4763678733920079,-0.5900500000000193,0.0183099999999996,0.5903340229056959,0.4177499999999554,0.1598400000000026,0.4472850188637706,0.1916699999999309,-0.40694000000002,0.4498194665640759,0.5630699999999251,-0.3347200000000327,0.6550460314359119,0.3191000000000485,-0.068160000000006,0.3262983230113692,0.9654000000001588,-0.3776900000000012,1.036651771859918,-0.2164000000000214,-0.6445900000000222,0.679945018439019,0.2250999999999976,-0.3246400000000449,0.3950457436804352,-0.5729499999999916,-0.4619899999999859,0.7360071077102296,-0.597849999999994,-0.7740499999999884,0.9780480688595908,-0.3254500000000462,0.6059300000000007,0.6878000199186032,-0.8917999999999893,1.0950500000000147,1.4122470543428345,0.251700000000028,0.5573400000000106,0.6115396680510806,-0.2311999999999443,0.999340000000018,1.0257357727992185,-0.1407699999999749,-0.3352600000000052,0.3636144393447494,-0.4025400000000445,-0.2139500000000112,0.4558651709661976,0.1489899999999124,-0.2874899999999911,0.3238032121520242,-0.0579600000000937,-0.2833699999999908,0.2892367862150415,-0.8686999999999898,-0.1354200000000105,0.8791918257126741,-0.7508499999999003,-0.1594600000000241,0.7675957361136512,-0.2066499999999678,-0.0113800000000026,0.206963105166082,-0.3341499999999087,-0.2925599999999804,0.4441256309873677,0.5816350000000057,1.0471950000000163,168.51282500000002,0.2324416423266378,121.4564266,0.0924284223212244,108.764456,0.410279657221745,0.00171952,-0.195975934,0.0046717867604354,0,0
12,400.0,543.88995,109.41152,0.94971913,547.4262,104.905235,0.9524342,541.9624,106.14007,0.6743472,557.9876,103.483154,0.9387378,545.2997,105.91493,0.27738103,573.176,119.611115,0.99659556,554.64215,123.58252,0.9685346,582.53937,145.56384,0.9910944,554.7767,148.07076,0.8236489,555.3878,164.00008,0.98168266,543.08386,162.59224,0.8226692,576.1591,169.53404,0.9921003,564.3853,167.73816,0.9757538,535.79584,178.54549,0.9828355,526.08167,177.5564,0.9472535,538.7861,223.4549,0.9361438,537.1687,219.40022,0.8801878,1.03122383,-0.38075043,0.92731153,-0.24196076,104.33825775588964,140.84382988435596,98.77601349651972,89.536695493722,7.703794158438789,168.6361,121.5968175,109.41152,56.45769999999993,119.971746,0.470591630211069,167.90563983080932,0.8877129047058824,-1.3646499999999833,0.1071299999999979,1.368848588924266,0.5334000000000287,-0.2365999999999957,0.583519596928868,-1.38250000000005,0.2022950000000065,1.3972220714779526,0.6001999999998588,-0.1886149999999986,0.6291388226972089,-1.2528999999999542,0.0286349999999941,1.2532271834048625,0.490660000000048,-0.2404300000000034,0.5464007874262709,-1.4154999999999518,0.3852239999999938,1.4669825425600191,0.56025000000011,0.0994739999999865,0.5690124244479382,-0.857599999999934,-0.0674900000000064,0.8602515097922745,0.3832300000001396,-0.0873000000000132,0.3930477361595018,-1.5064299999999091,0.3231949999999983,1.540709691319142,-0.1933199999998578,0.3115049999999968,0.3666169491784893,0.0614000000000487,-0.0013699999999943,0.0614152823001406,0.651450000000068,-0.0196799999999939,0.6517471940101379,-0.7427999999999884,-0.0993599999999901,0.7494159389818051,-0.9344699999999192,0.3075800000000299,0.9837884108383608,0.6177000000000135,-0.2417099999999834,0.6633076315707582,0.2985999999999649,-0.1735499999999774,0.3453716295528212,-0.5095000000000027,0.1837700000000097,0.5416287131421361,-0.2930999999999812,0.828360000000032,0.8786853245616669,-0.598440000000096,0.470089999999999,0.7609960852068255,-0.0254900000001043,0.9320799999999848,0.9324284779541951,0.12175000000002,-0.0287999999999897,0.1251099616337735,0.4472000000000662,-0.6347299999999905,0.7764470444917974,1.153599999999983,-0.0898700000000189,1.1570953188480042,0.9018999999999552,-0.6472100000000296,1.1100920655963438,-0.1428600000000415,-0.0298899999999946,0.1459533887924892,-0.0020900000000665,0.3053700000000106,0.3053771520595585,0.2974300000000767,0.1652399999999829,0.3402482365862312,0.1484400000001642,0.4527299999999741,0.4764440014314645,0.1388000000000602,-0.2966999999999871,0.3275611851242589,1.00750000000005,-0.1612799999999765,1.0203271477325755,0.1324499999999489,-0.0532699999999977,0.1427609729582501,0.3390999999999167,-0.0418899999999951,0.3416775996461329,-0.0593350000000043,-0.64097000000001,168.50993,0.2303780731482579,121.5077715,0.0824115549315649,109.005868,0.348932342969214,-0.0479008599999999,-0.203934846,0.0214875882436856,0,0
13,433.33333333333337,542.2115,110.160385,0.9478033,545.63806,105.63771,0.95153296,540.39685,106.97555,0.65628415,556.27826,103.996475,0.9400489,543.98944,106.757034,0.2581034,572.59143,119.64943,0.99678373,553.3474,124.43509,0.96732056,583.1486,144.88596,0.99186677,553.38245,148.70665,0.8200339,555.78326,163.94604,0.9830987,541.991,162.75024,0.8216112,576.11115,170.1214,0.992796,563.97864,168.60414,0.97688884,535.99194,177.9578,0.98447305,525.98804,177.30551,0.95024747,538.712,223.15128,0.9420291,537.0652,219.28203,0.88807094,1.05396213,-0.38541769,0.94475236,-0.26406885,102.15641381363704,140.8700436264647,97.60799937857936,88.11776229747387,8.504013904696553,169.36277,122.04226,110.160385,57.16056000000003,119.154805,0.4797167812098156,166.03480704133463,0.8864113511764706,-1.678449999999998,0.7488650000000092,1.837931769877491,-0.3138000000000147,0.6417350000000113,0.7143488295119015,-1.7881399999999985,0.7324749999999938,1.9323468335743936,-0.4056399999999485,0.5301799999999872,0.6675587180165836,-1.5655500000000302,0.835480000000004,1.774534765199065,-0.312650000000076,0.8068450000000098,0.8653027658138296,-1.7093399999999974,0.5133210000000048,1.7847525555776622,-0.2938400000000456,0.128097000000011,0.3205476360995813,-1.3102600000000848,0.8421040000000062,1.5575366494616532,-0.4526600000001508,0.9095940000000128,1.0160031104461047,-0.5845700000000988,0.0383149999999972,0.5858243116541983,0.9218599999998104,-0.2848800000000011,0.964874330677136,-1.2947500000000218,0.85257,1.5502429381874496,-1.3561500000000706,0.8539399999999944,1.602609230629907,0.609230000000025,-0.6778799999999876,0.9114178445148052,1.3520300000000134,-0.5785199999999975,1.4706020914237927,-1.3942500000000564,0.6358899999999892,1.5324128538354616,-2.01195000000007,0.8775999999999726,2.195022679267855,0.395460000000071,-0.0540399999999863,0.3991352317198454,0.9049600000000736,-0.237809999999996,0.9356848816242204,-1.0928599999999733,0.157999999999987,1.1042223415598589,-0.4944199999998773,-0.3120900000000119,0.5846805148967136,-0.0479500000000143,0.5873599999999897,0.5893139843071682,-0.1697000000000343,0.6161599999999794,0.6391018976657683,-0.406659999999988,0.8659800000000075,0.9567098389794072,-1.5602599999999711,0.9558500000000264,1.829770611333552,0.1961000000000012,-0.5876900000000091,0.6195439823773703,0.3389600000000428,-0.5578000000000145,0.6527133533183194,-0.0936300000000756,-0.2508899999999983,0.2677916522224195,-0.3910600000001523,-0.4161299999999812,0.5710447447443182,-0.074100000000044,-0.3036199999999951,0.3125314614562885,-0.2129000000001042,-0.006920000000008,0.2130124325011206,-0.1034999999999399,-0.1181899999999984,0.157102279105006,-0.2359499999998888,-0.0649200000000007,0.2447182234733401,0.7266700000000128,0.7860050000000172,168.677493,0.4469395223293761,121.6167545,0.2516691433360165,109.319511,0.5378008299361218,-0.02210809,-0.217101442,0.033777543030126,0,0
14,466.6666666666667,540.1307,110.474335,0.94665325,543.4578,105.97861,0.95355076,538.4993,107.2796,0.635571,554.21497,104.237564,0.94593006,542.73395,106.9209,0.23963168,570.7505,119.815384,0.9971204,552.5084,124.46892,0.9640353,582.07336,144.8787,0.9928947,553.2091,148.66292,0.7994096,555.3294,163.58688,0.9845318,542.2034,162.73833,0.8051397,574.4415,170.76959,0.9930928,562.96106,169.24887,0.975492,535.7039,178.48047,0.9845375,525.8255,177.7865,0.9456379,539.11,223.05566,0.9409206,536.61066,218.90105,0.87938476,1.06186014,-0.40728014,0.93959381,-0.28077274,100.66187500797903,140.3188810660645,96.88819386636943,88.24892047013142,8.404031714371138,170.00923,122.142152,110.474335,56.247859999999946,118.81809599999998,0.4733947220178081,165.68913844267618,0.8813843417647059,-2.080799999999954,0.3139499999999913,2.1043510264449234,-0.4023499999999558,-0.4349150000000179,0.592483400379268,-2.180259999999976,0.3409000000000048,2.2067502073410794,-0.3921199999999771,-0.3915749999999889,0.5541561828807592,-1.897550000000024,0.3040500000000037,1.9217550325158752,-0.3319999999999936,-0.5314300000000003,0.6266113986355467,-2.063290000000052,0.2410890000000023,2.0773274970551023,-0.3539500000000544,-0.2722320000000024,0.4465320417663662,-1.2554899999998952,0.1638659999999987,1.2661386993752843,0.0547700000001896,-0.6782380000000074,0.6804458373331641,-1.840929999999957,0.1659539999999992,1.848394978086622,-1.2563599999998587,0.127639000000002,1.262827052260382,-0.8389999999999418,0.0338299999999947,0.8396817664448252,0.45575000000008,-0.8187400000000054,0.9370396203470168,-1.075240000000008,-0.0072600000000022,1.0752645094115294,-1.684470000000033,0.6706199999999853,1.8130555328781552,-0.1733499999999139,-0.0437299999999822,0.1787806907917312,1.2209000000001424,-0.6796199999999715,1.397311759916272,-0.453860000000077,-0.3591600000000028,0.5787787186827725,-0.849320000000148,-0.3051200000000165,0.9024647787034468,0.2124000000000023,-0.0119100000000003,0.2127336553063502,1.3052599999999757,-0.1699099999999873,1.3162724169790736,-1.6696499999999332,0.6481899999999996,1.7910559451339805,-1.6216999999999189,0.0608300000000099,1.622840466250376,-1.0175800000000663,0.6447300000000098,1.204635143643148,-0.6109200000000783,-0.2212499999999977,0.649749804848062,-0.2880400000000236,0.5226700000000051,0.5967838557635577,-0.4841400000000249,1.1103600000000142,1.2113178233643125,-0.1625399999999217,0.4809899999999913,0.5077111695639227,-0.0689099999998461,0.7318799999999896,0.7351169447781514,0.3980000000000245,-0.0956200000000251,0.4093252794539135,0.4721000000000686,0.20799999999997,0.5158899204288181,-0.4545399999999517,-0.3809799999999939,0.5930871537977799,-0.3510400000000118,-0.2627899999999954,0.4385061752130816,0.6464599999999905,-0.0802100000000223,168.96346699999998,0.7338268621718766,121.7276079,0.3417294742731853,109.662258,0.6306303128081234,-0.01670389,-0.235328334,0.0393776605916232,0,0
15,500.0,538.58704,111.43097,0.9476096,541.867,106.90204,0.9554698,536.7346,108.2335,0.641376,552.40173,104.79527,0.94807947,540.68726,107.6059,0.24214822,569.2387,119.84245,0.99713564,551.1493,124.73221,0.96267253,581.2287,144.65894,0.99284333,552.7998,148.5939,0.78957593,553.4811,164.5331,0.9842313,540.9623,163.59161,0.7962779,573.8701,170.87427,0.9927331,562.5124,169.4267,0.9737898,535.32715,178.3394,0.9835926,525.37317,177.63538,0.94143295,538.6904,222.91559,0.93811613,536.3421,218.59502,0.8726864,1.06257628,-0.39671738,0.9454893,-0.27880757,99.8247042138016,137.7596054634269,96.64675810068722,87.4714526575152,9.485689086943824,170.150485,122.28733,111.43097,55.85553000000005,118.12032,0.4728697782661803,164.87382915805455,0.8799865117647059,-1.543660000000045,0.9566350000000056,1.816049756704136,0.5371399999999085,0.6426850000000144,0.8375938089700282,-1.5908000000000584,0.9234299999999962,1.8393932708641123,0.5894599999999173,0.5825299999999913,0.8287365639935844,-1.764699999999948,0.9539000000000044,2.006013783601654,0.1328500000000758,0.6498500000000007,0.663290392663742,-1.813239999999951,0.557705999999996,1.897070183213003,0.2500500000001011,0.3166169999999937,0.4034492870102097,-2.0466900000000123,0.6850000000000023,2.158278238805195,-0.7912000000001171,0.5211340000000035,0.947405977369886,-1.5117999999999938,0.0270660000000049,1.5120422640772917,0.3291299999999637,-0.1388879999999943,0.3572344236547964,-1.3591000000000122,0.2632899999999978,1.3843678825009025,-0.5201000000000704,0.2294600000000031,0.5684680304116272,-0.8446599999999762,-0.2197600000000079,0.8727800256650946,0.2305800000000317,-0.2125000000000056,0.3135656014297758,-0.4093000000000302,-0.0690200000000231,0.4150786074950477,-0.2359500000001162,-0.0252900000000408,0.2373014677579068,-1.8482999999999947,0.9462199999999824,2.076426058977287,-1.3944399999999175,1.305379999999985,1.9100994366785549,-1.2410999999999603,0.8532800000000123,1.5061261462440396,-1.4534999999999627,0.8651900000000126,1.691512928150392,-0.5714000000000397,0.1046800000000018,0.5809095130913641,1.0982499999998936,-0.5435099999999977,1.2253800155869052,-0.448660000000018,0.1778300000000001,0.4826171407026653,0.5689200000000483,-0.4669000000000096,0.7359793315033133,-0.3767500000000154,-0.1410699999999849,0.4022950501808435,-0.0887099999999918,-0.66373999999999,0.6696418831733759,-0.4523300000000745,-0.1511199999999917,0.4769063674350186,-0.2897900000001527,-0.6321099999999831,0.695371336912924,-0.4196000000000595,-0.1400699999999801,0.4423615771063806,-0.817600000000084,-0.044449999999955,0.8188074025679869,-0.2685600000000931,-0.3060299999999927,0.4071594706009496,0.1859799999998586,0.0749500000000011,0.2005144954858565,0.141255000000001,-0.5052049999999895,169.370804,0.7091311617342377,121.9008929,0.3661283376710538,110.15632,0.8669478721136968,0.00196517,-0.251933964,0.0358817266890687,0,0
16,533.3333333333334,537.09106,112.44347,0.94929314,540.41034,107.96758,0.9574839,535.01276,109.2396,0.6492046,550.831,105.78908,0.9493134,538.3161,108.52907,0.24043159,567.63696,120.60329,0.9972373,549.144,125.11569,0.9621891,579.3867,145.53435,0.9931231,550.69385,148.48479,0.78618133,551.8918,165.3882,0.98474413,539.707,164.23158,0.7946143,574.0621,169.54303,0.99305224,562.4133,168.03922,0.97439766,534.9989,178.25624,0.98455065,525.08075,177.40897,0.9433374,538.7199,222.5817,0.9417564,536.27637,218.00392,0.8779267,1.07325262,-0.41833418,0.94057639,-0.30361776,100.59875599567088,141.30142115968658,97.7756525622596,88.67087294609277,12.100400047344626,168.791125,122.85949,112.44347,54.30595000000005,116.79262,0.4649775776502186,166.2874187934046,0.8811080552941177,-1.4959800000000314,1.0125000000000028,1.8064087052492024,0.0476800000000139,0.0558649999999971,0.0734457665560174,-1.4566599999999426,1.0655399999999986,1.8047808307935425,0.1341400000001158,0.1421100000000024,0.1954195274276134,-1.721840000000043,1.0060999999999891,1.994234237896874,0.042859999999905,0.0521999999999849,0.0675412436959099,-1.570730000000026,0.9938099999999964,1.8587229618746504,0.2425099999999247,0.4361040000000002,0.4989967924906569,-2.371160000000032,0.9231699999999988,2.544531900861168,-0.3244700000000193,0.2381699999999966,0.4024993537883147,-1.6017399999999498,0.7608400000000017,1.7732592966624598,-0.0899399999999559,0.7337739999999968,0.7392655048600519,-2.005300000000034,0.3834800000000058,2.041637823023501,-0.6462000000000216,0.120190000000008,0.6572823412355073,-1.8419999999999843,0.875409999999988,2.0394378313888173,-0.9973400000000084,1.095169999999996,1.4812442082587218,-2.105950000000007,-0.1091099999999869,2.1087746192042496,-1.696649999999977,-0.0400899999999637,1.6971235755241627,-1.5892999999999802,0.8551000000000215,1.8047355761994532,0.2590000000000145,-0.091119999999961,0.274561203377317,-1.2553000000000338,0.6399700000000053,1.4090208269930191,-0.0142000000000734,-0.213310000000007,0.2137821229663628,0.1920000000000072,-1.3312400000000082,1.345014474866358,0.7634000000000469,-1.43592000000001,1.62623670060668,-0.0990999999999076,-1.3874800000000107,1.3910145795066318,0.3495600000001104,-1.5653100000000109,1.6038664500824598,-0.3282499999999118,-0.0831600000000207,0.338620212184603,0.0485000000001036,0.0579099999999641,0.0755368658338821,-0.2924199999999928,-0.2264099999999871,0.3698255595547581,0.1599100000000817,-0.0752899999999954,0.1767478209201614,0.0295000000000982,-0.3338899999999967,0.3351906652936557,0.4491000000001577,-0.1938200000000165,0.4891390419912809,-0.0657299999999168,-0.5911000000000115,0.5947433420392385,0.2028300000001763,-0.2850700000000188,0.3498641362015864,-1.3593600000000094,-1.5006150000000105,169.389942,0.6873029099003979,122.1856099,0.4565018184848786,110.784136,1.176955840311124,-0.02481019,-0.273845536,0.0227553059103458,0,0
17,566.6666666666666,533.96783,113.61373,0.9371109,536.8871,109.17576,0.94796664,532.33624,110.48636,0.57861876,547.48737,106.52758,0.94491845,536.7511,109.38584,0.20077367,565.8108,120.65033,0.99711883,547.5734,125.12787,0.9581685,577.5065,146.52028,0.99359894,547.265,149.29858,0.7843825,550.4837,166.38165,0.98577696,535.9556,164.36755,0.7969626,574.1797,168.49287,0.9936546,562.82,166.99283,0.9760345,534.87354,178.32285,0.9859487,525.2469,177.29205,0.9470948,538.6823,222.60608,0.9456864,535.58185,217.48155,0.8844438,1.09768349,-0.4335642,0.95113914,-0.33506038,101.98781845559792,143.84244744058498,99.12510333933392,90.9074628079033,14.748503242919291,167.74285,122.8891,113.61373,52.25959999999998,116.0785,0.4502091218424675,166.20591140503575,0.8740152676470588,-3.1232299999999213,1.170259999999999,3.335277214940237,-1.62724999999989,0.1577599999999961,1.634879439010608,-3.523239999999987,1.2081799999999987,3.72463676215546,-2.0665800000000445,0.1426400000000001,2.0714968177625046,-2.6765199999999822,1.246760000000009,2.9526547051763314,-0.9546799999999394,0.2406600000000196,0.9845461583896884,-3.343629999999962,0.7385000000000019,3.4242143371727987,-1.772899999999936,-0.2553099999999944,1.7911888806320149,-1.5650000000000546,0.8567699999999974,1.7841748324926474,0.8061599999999771,-0.0664000000000015,0.8088899218063996,-1.8261600000000728,0.0470399999999955,1.82676575050012,-0.2244200000001228,-0.7138000000000062,0.7482478041398211,-1.570600000000013,0.0121800000000007,1.5706472272283298,0.4347000000000207,-0.371300000000005,0.5716885340812966,-1.880200000000059,0.9859300000000246,2.123019077846516,-0.0382000000000744,0.1105200000000365,0.1169354967493351,-3.4288500000000117,0.8137899999999831,3.5240979677926165,-1.3229000000000042,0.92289999999997,1.6130123434121502,-1.4080999999999904,0.9934499999999956,1.7232784199020088,0.1811999999999898,0.1383499999999742,0.2279784255143218,-3.7513999999999896,0.1359699999999861,3.753863316757807,-2.496099999999956,-0.5040000000000191,2.5464742704374217,0.1176000000000385,-1.050159999999977,1.0567240820573554,-0.0743999999999687,0.2810800000000313,0.2907599119548858,0.4067000000000007,-1.0463900000000024,1.1226472830323893,0.5057999999999083,0.3410900000000083,0.6100623149317723,-0.1253600000000005,0.0666099999999971,0.1419578166216984,0.2028899999999112,0.1497700000000179,0.2521812939136631,0.166150000000016,-0.1169200000000216,0.2031652256170095,0.4585700000000088,0.1094899999999654,0.4714599717897592,-0.0375999999999976,0.0243799999999794,0.0448123241976894,-0.0671000000000958,0.3582699999999761,0.3644993866935797,-0.6945200000000114,-0.5223699999999951,0.8690388065558469,-0.6287900000000946,0.0687300000000163,0.6325351191832127,-1.0482749999999896,0.3110850000000198,169.211292,0.9841997184045176,122.4440664,0.4024297018296945,111.624578,1.4258080116840637,-0.0314426199999999,-0.29246546,0.0276962367698165,0,0
18,600.0,532.30176,114.37231,0.93283194,534.8567,109.820274,0.9436495,530.39453,111.35043,0.5688619,544.8128,106.67708,0.9404591,534.6702,110.082794,0.2024534,563.2,120.35724,0.99689615,546.1189,125.215546,0.9562122,575.40027,146.3002,0.99328774,546.1532,149.43199,0.7830583,549.81683,166.03384,0.98515606,535.0211,164.0682,0.79656905,572.8488,167.87967,0.9934232,562.2374,166.79471,0.9755524,534.45776,178.1612,0.9854956,525.5329,177.96417,0.9463127,538.6797,222.45505,0.9443834,534.5553,218.10947,0.8826813,1.1654229,-0.57259952,0.90151876,-0.46648069,102.45826435016676,142.6627271590949,99.5478038423384,94.25900507466385,16.129350652856903,167.33719000000002,122.786393,114.37231,49.86736999999994,115.77797,0.4307155287770585,164.12287896464852,0.8721931729411764,-1.6660700000001043,0.7585799999999949,1.8306372828335875,1.457159999999817,-0.411680000000004,1.514198034604282,-2.030399999999986,0.6445140000000009,2.1302399996704464,1.492840000000001,-0.5636659999999978,1.5957100692657171,-1.941709999999944,0.8640699999999981,2.12528931889279,0.7348100000000386,-0.3826900000000108,0.8284910211945963,-2.674570000000017,0.1495000000000033,2.6787450298414166,0.6690599999999449,-0.5889999999999986,0.891382232041858,-2.0808999999999287,0.6969540000000052,2.1945135424771727,-0.5158999999998741,-0.1598159999999922,0.5400869965624683,-2.6107999999999265,-0.2930899999999923,2.6271997236791136,-0.7846399999998539,-0.3401299999999878,0.8551890706152426,-1.454499999999939,0.0876760000000018,1.457140120570367,0.116100000000074,0.0754960000000011,0.1384877468082189,-2.1062299999999823,-0.2200800000000242,2.1176968667162765,-0.2260299999999233,-1.2060100000000489,1.2270084274364554,-1.1118000000000166,0.1334100000000262,1.1197756329283308,2.3170499999999947,-0.6803799999999569,2.41487839174148,-0.6668700000000172,-0.3478100000000097,0.752121926950697,0.7412299999999732,-1.3412600000000054,1.5324491184049065,-0.9344999999999573,-0.299350000000004,0.981275023884702,2.8169000000000324,-0.4353199999999901,2.8503384206792317,-1.3309000000000424,-0.6132000000000062,1.46536993622775,-1.448500000000081,0.4369599999999707,1.5129726671689112,-0.5826000000000704,-0.1981199999999887,0.6153651715851959,-0.9893000000000712,0.8482700000000136,1.3031793747984826,-0.4157800000000407,-0.1616499999999803,0.4460983421848006,-0.2904200000000401,-0.2282599999999774,0.3693865238473285,0.2860000000000582,0.6721200000000067,0.7304391106725067,0.1198500000000422,0.7890400000000284,0.7980903107418702,-0.0026000000000294,-0.1510299999999915,0.1510523780017964,0.0349999999999681,-0.1754099999999709,0.1788677391258345,-1.026550000000043,0.6279199999999889,1.2033654594095986,-0.3320300000000316,1.150289999999984,1.19725143766879,-0.4056599999999832,0.6426150000000064,168.806176,1.2789951326598077,122.592893,0.3509953679565104,112.466963,1.580333944628469,-0.1314203099999999,-0.332947828,0.0780210682169607,0,0
19,633.3333333333333,529.2143,116.28052,0.9179036,531.19073,111.62872,0.9300644,526.9283,113.48932,0.51414704,539.9514,107.89807,0.9314644,530.79224,111.99497,0.18653871,558.7496,120.60947,0.99659425,543.76483,125.742035,0.9504274,573.1008,146.30002,0.9934522,545.2019,148.55942,0.77880186,547.8087,165.8586,0.9857525,533.9688,163.40016,0.7994686,572.3268,167.52995,0.9934576,563.10236,167.08253,0.975387,533.04114,177.07312,0.9856908,526.28674,179.0258,0.9461715,539.1861,221.86295,0.94450426,535.5876,220.18138,0.8813175,1.25672788,-0.50209928,1.01230486,-0.55000014,98.52655800594228,139.27376142068127,95.84172970092966,95.23895323197218,20.45174957767006,167.30624,123.1757525,116.28052,46.81406000000004,113.96488,0.4107761934134783,161.09270540237114,0.8653613894117647,-3.087459999999965,1.9082099999999969,3.629555710510554,-1.4213899999998605,1.149630000000002,1.8281134179802976,-3.665970000000016,1.808446000000004,4.087763811158386,-1.6355700000000295,1.1639320000000026,2.007442882256953,-3.466229999999996,2.1388900000000035,4.073033371456707,-1.5245200000000525,1.2748200000000054,1.9872914388182157,-4.861400000000003,1.2209900000000005,5.012387309466422,-2.1868299999999863,1.0714899999999972,2.4352240695673024,-3.87796000000003,1.912175999999988,4.323770439856421,-1.7970600000001014,1.215221999999983,2.169375290926935,-4.450400000000059,0.2522299999999973,4.457541938434289,-1.839600000000132,0.5453199999999896,1.9187240714601133,-2.3540700000000925,0.526488999999998,2.412226405630581,-0.8995700000001534,0.4388129999999961,1.0008911198873096,-2.2994699999999284,-0.0001800000000002,2.2994700070450302,-0.1932399999999461,0.2199000000000239,0.292741707995273,-0.9512999999999464,-0.8725700000000245,1.2908718351950903,0.16050000000007,-1.0059800000000507,1.0187031021844022,-2.0081299999999374,-0.1752400000000022,2.015761680978123,-1.3412599999999202,0.1725700000000074,1.3523160845378526,-1.0523000000000593,-0.6680399999999906,1.246440023266307,-0.117800000000102,-0.3686899999999866,0.3870518777890299,-0.5219999999999345,-0.3497199999999907,0.6283216361067994,0.8089000000001079,0.2634800000000155,0.850729640015077,0.8649599999999964,0.2878199999999822,0.9115899045074948,1.4475600000000668,0.4859399999999709,1.52694716254367,-1.4166199999999662,-1.0880800000000193,1.786261546022851,-1.0008399999999256,-0.926430000000039,1.3638010303926025,0.7538399999999683,1.061630000000008,1.30204953918811,0.4678399999999101,0.3895100000000013,0.608762930622354,0.5063999999999851,-0.5920999999999879,0.7791170451222144,0.5090000000000146,-0.4410699999999963,0.6735159574204694,1.0322999999999638,2.0719100000000026,2.3148335443612216,2.0588500000000067,1.4439900000000137,2.514750572641364,-0.0309500000000184,0.3747099999999648,168.265578,1.2129048073354392,122.7996131,0.3223673146609439,113.6282,1.858770783421128,-0.08351945,-0.386793308,0.1164494913014308,0,0
20,666.6666666666666,527.14557,117.33578,0.91513723,529.05786,112.51323,0.9335493,524.7228,114.75242,0.49277157,537.9545,108.56984,0.93691254,528.5742,113.60536,0.16379781,557.48755,120.664444,0.996563,542.5335,127.59123,0.9385006,572.86694,145.79413,0.9936353,545.306,150.61191,0.73038197,546.6095,167.15097,0.9859725,534.81647,165.62273,0.76418114,572.322,168.42236,0.99246925,563.09106,168.79196,0.96863514,532.1756,175.88573,0.9837533,525.84314,179.36003,0.9324105,539.81946,221.68378,0.93813246,536.617,221.29755,0.85958207,1.31309944,-0.61755264,1.02753487,-0.5357527,97.65697427483296,138.18687665568788,91.05575184114043,91.43196513009376,21.6950349081984,168.60716,124.127837,117.33578,48.14413999999999,113.11394,0.4256251667511079,155.1462068718107,0.8544932752941177,-2.0687299999999595,1.055260000000004,2.3223301833503007,1.018730000000005,-0.8529499999999928,1.3286589161255788,-2.1328700000000254,0.8845099999999917,2.309002463619321,1.5330999999999904,-0.923936000000012,1.7899869670184732,-2.205500000000029,1.2630999999999943,2.5415845175795577,1.2607299999999668,-0.8757900000000092,1.5350727204272547,-1.9968999999999824,0.6717699999999951,2.106866047687874,2.864500000000021,-0.5492200000000054,2.91667668047045,-2.2180399999999736,1.6103900000000095,2.7409956938492104,1.6599200000000565,-0.3017859999999785,1.687130462114941,-1.262049999999931,0.0549740000000014,1.2632467467505413,3.188350000000128,-0.1972559999999958,3.1944460634101826,-1.2313299999999572,1.8491949999999944,2.2216425718204253,1.1227400000001353,1.3227059999999966,1.7349629016311254,-0.2338600000000497,-0.5058899999999937,0.5573286209230752,2.0656099999998787,-0.5057099999999934,2.1266140402526013,0.1041000000000167,2.052490000000006,2.0551282223014766,1.0553999999999633,2.9250600000000304,3.109637464978852,-1.199200000000019,1.2923700000000051,1.7630373952075036,0.8089299999999184,1.4676100000000076,1.675782461120742,0.8476699999999937,2.2225699999999904,2.378731139452281,1.899970000000053,2.890609999999981,3.45912014434308,-0.0048000000000456,0.8924099999999839,0.8924229087713805,0.5171999999998889,1.2421299999999746,1.3455046551015055,-0.0113000000000056,1.7094299999999976,1.7094673482988765,-0.876260000000002,1.4216100000000154,1.6699720296160794,-0.86554000000001,-1.1873899999999935,1.4693721460882545,0.5510799999999563,-0.0993099999999742,0.5599568219960774,-0.4436000000000604,0.3342299999999909,0.5554193486907415,-1.1974400000000287,-0.7274000000000171,1.401061495295654,0.6333600000000388,-0.1791699999999991,0.6582148422058324,0.1269600000000537,0.4129299999999887,0.4320069750594362,1.0294000000000096,1.116170000000011,1.518387246027852,-0.0028999999999541,-0.9557399999999916,0.9557443997220092,1.3009199999999908,1.3318700000000092,167.956913,0.7021370485132317,123.16771450000002,0.556761684390752,114.809162,1.9852637644328333,0.01424744,-0.438182334,0.1135404740444015,0,0
21,700.0,523.14276,119.43071,0.9199508,524.932,114.78744,0.94276595,520.83673,116.65846,0.4913083,533.6592,110.44539,0.9467825,525.3671,114.51545,0.15994799,552.8877,122.05377,0.99685943,541.40485,127.613144,0.93285984,568.6416,147.75319,0.994124,545.30365,150.97577,0.69549173,544.58875,167.93535,0.98633283,533.4301,166.95543,0.73715216,572.50104,169.06047,0.9916357,565.45935,169.11546,0.9623588,531.55566,176.70583,0.98140657,526.45886,179.73595,0.91668487,540.33124,221.73848,0.92875004,537.1288,220.77054,0.8328339,1.30293634,-0.54312207,1.01549825,-0.60944634,98.49064338635608,133.91179836146196,89.5494125690813,90.65777390901503,26.26042792528004,169.087965,124.833457,119.43071,51.66431,111.29309,0.4642184841465136,154.16624841768066,0.8480732594117647,-4.002810000000068,2.094930000000005,4.517877776235272,-1.934080000000108,1.039670000000001,2.195809453322492,-4.125859999999989,2.2742100000000107,4.711130635388915,-1.9929899999999636,1.389700000000019,2.42966566220538,-3.886070000000018,1.9060400000000044,4.328340158363267,-1.6805699999999888,0.6429400000000101,1.799357487688307,-4.2952999999999975,1.875550000000004,4.686927553579209,-2.298400000000015,1.203780000000009,2.5945575438598563,-3.2070999999999685,0.9100899999999968,3.33372977580664,-0.9890599999999948,-0.7003000000000128,1.2118827392120113,-4.59985000000006,1.389325999999997,4.805085509829825,-3.3378000000001293,1.3343519999999955,3.5946354613374707,-1.1286499999999933,0.0219140000000095,1.1288627223431489,0.1026799999999639,-1.827280999999985,1.830163663545132,-4.22533999999996,1.9590599999999936,4.657404234034194,-3.9914799999999104,2.4649499999999875,4.69125687773535,-0.0023500000000922,0.3638600000000167,0.3638675886912884,-0.1064500000001089,-1.6886299999999892,1.6919819382605674,-2.020750000000021,0.7843799999999987,2.1676444696721098,-0.821550000000002,-0.5079900000000066,0.9659183415796648,-1.3863699999999426,1.3327000000000169,1.9230473387048708,-2.2340399999999363,-0.8898699999999735,2.4047460029075145,0.1790399999999863,0.6381100000000117,0.6627516078441531,0.1838400000000319,-0.2542999999999722,0.3137923447122278,2.368290000000002,0.3235000000000241,2.390282362839174,2.3795900000000074,-1.3859299999999737,2.753770239689572,-0.6199400000000423,0.8200999999999965,1.0280513671991525,0.2455999999999676,2.00748999999999,2.022457777087063,0.6157200000000103,0.3759200000000078,0.7214062411706863,1.0593200000000706,0.0416900000000168,1.060140046644853,0.5117799999999306,0.0546999999999968,0.5146949177910431,-0.1215800000001081,0.233869999999996,0.2635846605931848,0.5117999999999938,-0.52700999999999,0.7346283278638138,-0.5176000000000158,-1.643180000000001,1.7227740050279432,0.4808050000000037,-0.820114999999987,168.016281,0.7965130112276145,123.5625079,0.8860475274090246,116.20661,2.3325410806350435,-0.07369364,-0.4993480499999999,0.1049800791713753,0,0
22,733.3333333333333,521.4323,120.46629,0.9349125,523.3645,115.7938,0.9480564,518.6026,117.81372,0.58315647,531.7852,111.41376,0.941955,521.5312,115.86041,0.20489845,550.7576,123.24637,0.9967325,537.2362,128.92719,0.9467973,567.398,148.83696,0.9931416,541.3173,151.08177,0.74524724,542.9843,169.1457,0.98472714,530.3836,167.50027,0.77197474,571.0239,169.18945,0.9916551,562.7075,169.5727,0.967442,531.26044,177.60739,0.9815871,525.94885,181.53535,0.9279976,540.5457,221.6071,0.9314049,538.014,222.32837,0.8506218,2.37063814,-0.87646293,1.9769545,-0.97128207,96.7215366859241,135.90139472326612,90.03676642119359,91.55046425791556,27.84379592750475,169.381075,126.08678,120.46629,52.42129999999997,110.91461,0.4726275422811515,157.2109956905874,0.8648416376470589,-1.7104599999998982,1.035579999999996,1.9995247805415275,2.292350000000169,-1.0593500000000091,2.5252902694543446,-1.5674999999999957,1.0063600000000008,1.8627443999647368,2.5583599999999933,-1.26785000000001,2.855284488820683,-2.2341299999999364,1.1552599999999984,2.5151466208751554,1.6519400000000817,-0.750780000000006,1.814545775669569,-1.874000000000024,0.9683699999999932,2.109411400580758,2.421299999999974,-0.907180000000011,2.585666111933228,-3.835900000000038,1.3449600000000004,4.064855004990989,-0.6288000000000693,0.4348700000000036,0.7645268843540365,-2.1300999999999704,1.1925999999999988,2.441233452580861,2.46975000000009,-0.1967259999999981,2.4775726390111035,-4.168649999999957,1.3140459999999905,4.370853430694698,-3.039999999999964,1.292131999999981,3.303211332237725,-1.243600000000015,1.0837700000000154,1.6495752098343592,2.981739999999945,-0.8752899999999784,3.1075562765136917,-3.986349999999902,0.1059999999999945,3.987759060236616,-3.98399999999981,-0.2578600000000222,3.9923361305880167,-1.6044500000000426,1.2103500000000054,2.009777829761327,0.4162999999999783,0.4259700000000066,0.5956140788295619,-3.0465000000000373,0.5448399999999936,3.0948364860845587,-1.6601300000000947,-0.7878600000000233,1.8375948945565643,-1.477139999999963,0.1289799999999843,1.4827604054599943,-1.6561799999999494,-0.5091300000000274,1.732670063601221,-2.7518499999999904,0.4572399999999845,2.789578254880105,-5.120139999999992,0.1337399999999604,5.1218863719532,-0.295219999999972,0.9015600000000176,0.9486649998814204,0.3247200000000703,0.0814600000000211,0.3347817348662395,-0.5100099999999657,1.7993999999999917,1.870280877328305,-1.125729999999976,1.4234799999999836,1.814817716273428,0.2144600000000309,-0.1313800000000071,0.2515030735398976,-0.2973199999998996,-0.186080000000004,0.3507491251591967,0.8852000000000544,1.5578299999999956,1.791762637432783,0.3734000000000606,2.0848399999999856,2.118014491357409,0.2931100000000128,-0.1876949999999908,168.343926,0.973251487125724,124.2020439,1.3241752944650451,117.577122,2.43891998990745,-0.36183573,-0.626592388,0.1992855620995617,0,0
23,766.6666666666667,517.73816,121.03354,0.9194811,519.37646,116.38327,0.93287593,514.9826,118.499794,0.54217005,527.74884,112.27889,0.9285026,518.29816,116.92118,0.19735837,547.1035,123.78461,0.9956501,534.5929,129.99548,0.9426073,563.2506,148.07666,0.9913292,538.77655,151.6712,0.7519211,540.67175,169.05853,0.98156345,527.81226,167.32281,0.7761796,570.2381,168.0693,0.99014586,562.4953,168.88812,0.9655568,531.29956,178.423,0.9785098,526.31616,182.69078,0.92453986,540.44257,222.2507,0.9217086,537.5865,223.23265,0.8411984,1.19566663,-0.76813329,0.56424757,-0.72195195,99.2881476003702,134.06355404136423,93.106696750957,95.3467553766156,31.532975135098138,168.47870999999998,126.890045,121.03354,55.255499999999984,110.95376,0.4980047499246103,153.5979636096382,0.8577234188235294,-3.694140000000061,0.5672500000000014,3.737438013144894,-1.983680000000163,-0.4683299999999946,2.038214741213654,-3.988040000000069,0.5894699999999915,4.031369236686283,-2.4205400000000736,-0.4168900000000093,2.4561781620436998,-3.620000000000005,0.6860739999999907,3.6844399212737913,-1.385870000000068,-0.4691860000000076,1.463137436981296,-4.036360000000059,0.8651300000000077,4.128032457055115,-2.162360000000035,-0.1032399999999853,2.164823149174119,-3.23303999999996,1.060770000000005,3.4026137944967765,0.6028600000000779,-0.2841899999999953,0.6664864107392522,-3.6540999999999713,0.5382400000000018,3.693528002817874,-1.524000000000001,-0.6543599999999969,1.65854243527261,-2.6433000000000675,1.0682899999999904,2.851013576625046,1.5253499999998894,-0.245756,1.545020593401804,-4.1474000000000615,-0.7603000000000009,4.216513115122555,-2.9038000000000466,-1.8440700000000163,3.4398617130489897,-2.5407500000000027,0.589429999999993,2.6082251220705635,1.4455999999998994,0.4834299999999984,1.524291286106336,-2.3125499999999874,-0.0871700000000146,2.314192323770854,-0.7080999999999449,-1.29752000000002,1.4781622916310555,-2.571339999999964,-0.1774599999999964,2.5774563909404584,0.4751600000000735,-0.72229999999999,0.864577535909912,-0.7857999999999947,-1.120149999999995,1.3682900505740665,0.6913399999999683,-1.2491299999999796,1.4276823009689183,-0.2121999999999388,-0.6845800000000111,0.7167137618324272,2.5396500000000515,-1.1418199999999956,2.7845242026063,0.0391200000000253,0.8156099999999924,0.8165476388429457,0.3343399999999974,-0.0859500000000252,0.3452110051837899,0.3673099999999749,1.1554299999999955,1.2124088093543246,0.8773199999999406,-0.6439699999999959,1.0882957977038643,-0.1031299999999646,0.6435999999999922,0.6518103688190168,-0.3175899999999956,0.7749799999999993,0.8375305418311598,-0.4275000000000091,0.90428,1.000239255578388,-1.3127000000000637,-0.6535499999999956,1.4663931575468294,-0.9023650000000316,-1.1954750000000445,168.57223000000002,0.7957558670298784,125.0227743,1.4888797246080354,118.909368,2.0368438379930334,0.24933012,-0.67768664,0.1797661803124716,0,0
24,800.0,514.0442,121.972595,0.88649476,515.21643,117.62995,0.9038902,511.70682,119.38321,0.4474559,522.71967,113.37478,0.91156226,515.6117,117.023315,0.17199324,542.08594,124.03346,0.99485415,531.9837,129.03305,0.93221784,559.2858,148.84938,0.9909027,539.13074,151.8536,0.7417052,540.75104,169.91646,0.98041886,531.25195,168.70868,0.767004,568.4885,167.20506,0.99040985,562.2131,167.84995,0.9663842,530.3719,178.89973,0.9796999,526.24866,182.40051,0.92843664,541.00635,222.99448,0.92697465,538.0977,222.91724,0.85097975,1.15580061,-0.34881652,1.05725797,-0.31049584,103.93302349154742,137.5568472588351,93.49744861287655,95.72590493157942,34.63402350258475,167.52750500000002,126.533255,121.972595,56.78168000000005,109.6197,0.5179879116802193,153.6692312275796,0.8453755352941177,-3.6939599999999473,0.9390549999999962,3.811451793559064,0.0001800000001139,0.3718049999999948,0.3718050435712192,-4.160030000000006,1.2466799999999978,4.342817129847864,-0.171989999999937,0.6572100000000063,0.6793419935496308,-3.2757800000000543,0.8834160000000111,3.392809814513094,0.3442199999999502,0.1973420000000203,0.3967760997892561,-5.029170000000022,1.0958899999999971,5.147186200342884,-0.9928099999999632,0.2307599999999894,1.0192751707463112,-2.686460000000011,0.1021349999999898,2.6884008052790525,0.546579999999949,-0.9586350000000152,1.1035083867488156,-5.017560000000003,0.2488500000000044,5.023727169751561,-1.363460000000032,-0.2893899999999973,1.393832753130764,-2.609199999999987,-0.9624299999999836,2.78104227671927,0.0341000000000804,-2.030719999999974,2.031006284677598,-3.964799999999968,0.7727199999999925,4.039397880674759,0.1826000000000931,1.5330199999999934,1.5438565608242285,0.3541899999999032,0.1824000000000012,0.398397183850403,2.894939999999906,-0.4070299999999918,2.9234142752096304,0.0792900000000145,0.8579300000000103,0.8615862052052714,2.391840000000002,0.9451000000000248,2.5717917092175364,3.439689999999928,1.3858699999999828,3.708382794831118,6.011029999999892,1.5633299999999792,6.210996888567779,-1.7495999999999867,-0.8642399999999952,1.9514125493088192,-0.963799999999992,0.2559100000000001,0.9971962535529226,-0.2821999999999889,-1.0381699999999796,1.0758409682197232,-0.07000000000005,-0.3535899999999685,0.3604523381807708,-0.92766000000006,0.4767300000000034,1.0429882878058192,-0.9667800000000852,-0.3388799999999889,1.0244526454649612,-0.0674999999999954,-0.2902699999999925,0.2980149709326614,-0.4348099999999704,-1.445699999999988,1.5096715623273624,0.5637799999999515,0.7437800000000152,0.9333041180665432,0.6669099999999162,0.100180000000023,0.6743923045971779,0.5112000000000307,-0.3154100000000142,0.6006737118436601,0.9387000000000398,-1.2196900000000142,1.5390910909040143,-0.951204999999959,-0.0488399999999273,168.61648300000002,0.7091963065911093,125.6942748,1.170742194645274,120.047783,1.7739437397209672,0.41145611,-0.62978578,0.2430618736634955,0,0
25,833.3333333333334,509.67047,123.34192,0.8958601,510.7895,119.25263,0.9119737,507.73267,120.67081,0.49053124,518.6396,114.76042,0.9022492,510.9756,117.22742,0.17036898,536.5526,124.667786,0.9951101,528.9761,127.82338,0.9267101,551.65796,149.76892,0.99157375,535.15686,150.15526,0.74132395,538.3549,171.90947,0.9799299,526.8221,166.6683,0.7589648,568.2598,163.19072,0.9905505,563.04803,163.52531,0.9663559,527.69116,177.64388,0.97794676,525.7293,180.62698,0.92003703,539.44684,222.59329,0.9150942,538.31793,222.19737,0.82265645,0.8908283,-0.10390802,0.87695422,-0.11717287,117.9619300967613,137.74777340866984,94.95280077855313,97.7723569453394,41.54781979878442,163.358015,126.245583,123.34192,60.52713000000006,107.83287,0.5613050031840482,157.38838982218743,0.8445433329411765,-4.373730000000023,1.3693250000000037,4.583073757700744,-0.6797700000000759,0.4302700000000072,0.8044995499067165,-4.42692999999997,1.6226800000000026,4.714954889211534,-0.2668999999999641,0.3760000000000048,0.4610982650151532,-3.9741500000000087,1.2875999999999976,4.177533001964205,-0.6983699999999544,0.4041839999999865,0.8068986074817117,-4.080069999999978,1.385639999999995,4.308940637151991,0.949100000000044,0.2897499999999979,0.992343626220314,-4.636100000000056,0.2041049999999984,4.640590701734588,-1.949640000000045,0.1019700000000085,1.9523047944673435,-5.5333400000000665,0.6343260000000015,5.569579968891437,-0.5157800000000634,0.385475999999997,0.6439105178330784,-3.007600000000025,-1.209670000000003,3.241752499636602,-0.3984000000000378,-0.2472400000000192,0.468881837566822,-7.627839999999992,0.919540000000012,7.683065591103586,-3.663040000000024,0.1468200000000195,3.665981199351707,-3.973879999999895,-1.6983400000000015,4.3215831601392525,-4.328069999999798,-1.880740000000003,4.7190436396051965,-2.3961399999999458,1.9930099999999984,3.116660995312088,-2.4754299999999603,1.135079999999988,2.723262802466882,-4.429849999999988,-2.040379999999999,4.877163270478024,-7.869539999999915,-3.426249999999982,8.583055916985426,-0.2287000000000034,-4.014340000000004,4.020849328885632,1.5208999999999833,-3.150100000000009,3.4980375669795207,0.8349299999999857,-4.3246400000000165,4.404499884720185,1.1171299999999746,-3.286470000000037,3.471147432449418,-2.6807400000000143,-1.2558500000000097,2.960325348690596,-1.7530799999999545,-1.7325800000000129,2.4647764488488373,-0.519360000000006,-1.7735299999999938,1.8480106792169748,-0.4518600000000106,-1.4832600000000014,1.5505604429366866,-1.5595100000000457,-0.4011900000000139,1.6102871968068782,-2.123289999999997,-1.1449700000000291,2.412325998906461,0.220230000000015,-0.719869999999986,0.7528041377410106,-0.2909700000000157,-0.4044599999999718,0.4982483642722637,-4.169490000000025,-3.2182850000000656,167.56665400000003,2.4572612675303307,126.117824,0.780351342554486,121.249011,1.489055097169084,0.19332297,-0.546069814,0.3373441337355121,0,0
26,866.6666666666667,506.41672,124.86545,0.9055718,507.4926,120.85353,0.9240855,504.49887,121.97035,0.49831757,515.0785,116.40653,0.9150339,507.32263,118.327545,0.16615672,533.45856,126.06203,0.99618196,525.6949,129.65173,0.9259797,551.7445,150.23798,0.99339515,532.7736,152.32634,0.72475547,537.8957,172.37268,0.98335314,521.83826,167.83047,0.7505897,566.49786,163.67274,0.9916918,561.3032,164.11131,0.96652114,527.87555,178.73906,0.9799125,525.63983,181.44627,0.91813445,538.6273,223.13574,0.91798294,538.18365,222.21114,0.81675804,0.84491883,-0.05625281,0.83372062,-0.12503353,110.86469253101528,127.46635652053958,97.69695681374144,98.81934723503709,43.60666712361892,163.892025,127.85688,124.86545,61.998989999999935,106.72921,0.580899918767318,155.18549442545253,0.8455542047058823,-3.253750000000025,1.5235299999999938,3.5927750727536707,1.1199799999999982,0.1542049999999903,1.1305460549774136,-3.2968999999999937,1.60090000000001,3.665028024449471,1.1300299999999766,-0.0217799999999925,1.1302398724606857,-3.233799999999974,1.2995399999999933,3.4851494446579783,0.7403500000000349,0.0119399999999956,0.7404462749585898,-3.5611000000000104,1.6461100000000073,3.9231506907204183,0.5189699999999675,0.2604700000000122,0.5806672728852321,-3.652969999999982,1.1001250000000056,3.815031433228943,0.9831300000000738,0.8960200000000071,1.3301866174714576,-3.09403999999995,1.3942439999999865,3.393670557543212,2.4393000000001166,0.7599179999999848,2.554928542391068,-3.281200000000013,1.8283499999999864,3.756213141250112,-0.2735999999999876,3.038019999999989,3.0503151444399847,0.0865400000000136,0.4690599999999847,0.4769763675487371,7.714380000000006,-0.4504800000000273,7.727521660584337,-2.383260000000064,2.171079999999989,3.2238977331795526,1.5906199999998307,3.869419999999991,4.1835969118450445,-0.4592000000000098,0.4632100000000037,0.6522485293965885,1.936939999999936,-1.5297999999999945,2.4682027071534733,-4.9838399999999865,1.1621700000000033,5.117548265966807,-0.5539899999999989,3.2025500000000022,3.250112524605881,-1.761940000000095,0.4820200000000056,1.826684385437271,-1.5332400000000916,4.49636000000001,4.750587137102146,-1.7448300000000927,0.5860000000000127,1.840605261564885,-2.5797600000000784,4.910640000000029,5.547030454865079,0.1843900000000076,1.0951799999999992,1.110593942221909,2.865130000000022,2.3510300000000086,3.706253091438868,-0.0894700000000057,0.8192899999999952,0.8241607761838664,0.4298900000000003,2.592819999999989,2.6282163085446264,-0.8195399999999609,0.5424500000000023,0.9828010043238348,0.7399700000000848,0.9436400000000162,1.1991714016353776,-0.1342800000001034,0.0137699999999938,0.1349841890742305,-0.3545100000001184,0.7336399999999799,0.8148036510105084,0.534009999999995,4.70350000000002,166.527466,2.7359406234336605,126.7225086,0.7039695881867544,122.335959,1.784255662049368,-0.00786066,-0.449187252,0.3812899397313458,0,0
27,900.0,501.863,126.505615,0.9086126,502.89636,122.55287,0.9292124,500.14536,123.64963,0.49002177,511.18304,117.67984,0.9251042,503.77084,119.66177,0.15744938,530.66797,126.4483,0.9968991,522.7505,129.97495,0.9326458,549.7844,150.46106,0.9947043,528.9419,152.61351,0.744995,536.6005,172.54298,0.9861259,518.6658,168.09195,0.76869595,564.90894,161.40527,0.9939154,559.59393,161.83014,0.9742507,527.8834,179.92949,0.9851598,525.62366,182.36842,0.93648964,538.03735,223.62663,0.934805,537.40765,222.42744,0.8487343,0.8033603,-0.08032606,0.78631105,-0.14370258,110.63778818000053,131.12416944217324,103.49750138556888,104.76490367513154,46.77454173194288,161.617705,128.211625,126.505615,64.76358000000005,105.94679,0.611284017087408,155.99054751880882,0.8534012494117648,-4.553719999999998,1.6401650000000103,4.840093704219477,-1.2999699999999734,0.1166350000000164,1.3051918342239714,-4.596239999999966,1.6993399999999923,4.90032433347015,-1.2993399999999724,0.0984399999999823,1.3030636474094135,-4.353510000000028,1.6792800000000057,4.6661580168807255,-1.1197100000000546,0.3797400000000124,1.1823506043894645,-3.895459999999957,1.273309999999995,4.098283417200384,-0.3343599999999469,-0.3728000000000122,0.5007758476603815,-3.5517899999999827,1.3342250000000035,3.79412289662906,0.1011799999999993,0.2340999999999979,0.2550298068853892,-2.7905900000000656,0.3862700000000103,2.817196667078884,0.3034499999998843,-1.007973999999976,1.052660195493247,-2.9443999999999733,0.3232200000000205,2.9620875288214994,0.3368000000000393,-1.5051299999999657,1.542352280414537,-1.9601000000000115,0.2230800000000101,1.972753582280374,-2.046640000000025,-0.2459799999999745,2.0613688292006573,-3.8316999999999553,0.2871700000000032,3.842446030707479,-1.4484399999998914,-1.883909999999986,2.376361782578493,-1.2952000000000226,0.1702999999999974,1.3063480125908478,-0.8360000000000127,-0.2929100000000062,0.8858285771525013,-3.172460000000001,0.2614800000000059,3.1832175926254256,1.8113799999999856,-0.9006899999999973,2.0229532818382,-1.5889199999999164,-2.267470000000003,2.7687699375895694,0.1730200000001787,-2.7494900000000086,2.7549285254794014,-1.7092699999999468,-2.281170000000003,2.8504982900889155,0.0355600000001459,-2.867170000000016,2.8673905074998243,0.0078500000000758,1.190429999999992,1.1904558821728684,-0.1765399999999317,0.0952499999999929,0.2005964458807148,-0.0161699999999882,0.9221499999999878,0.922291760453262,0.0733000000000174,0.1028599999999926,0.1263054614812876,-0.5899500000000444,0.4908900000000074,0.7674724715584655,0.2295899999999164,-0.0515599999999949,0.235308312007802,-0.7759999999999536,0.2162999999999897,0.8055815849434019,-0.6417199999998502,0.2025299999999958,0.6729212132930615,-2.274319999999989,-2.808329999999984,164.97479199999998,2.9090449627273247,127.1474776,0.8503846584712612,123.543824,2.198292107971035,-0.0186690499999999,-0.283671354,0.2575307728952483,0,0
28,933.3333333333334,499.13486,127.5589,0.9103584,500.16943,123.59973,0.9281464,497.4016,124.77072,0.5076804,508.50504,118.71413,0.9198909,500.58133,120.9796,0.16228719,528.3609,127.14467,0.9967319,518.8569,131.56544,0.9333393,548.9851,149.72977,0.994368,525.2076,153.40373,0.7539807,536.2272,172.99335,0.9856167,516.45026,168.6684,0.7770044,562.41864,161.45894,0.9938181,556.05383,162.44165,0.9747515,528.4447,180.7092,0.98480874,525.47565,184.06439,0.93769354,537.98334,223.32872,0.9333649,537.122,223.47116,0.8490855,0.82924203,-0.14222871,0.81062995,-0.10145157,108.85772898357494,133.94237608606596,106.92126364359056,108.8006503571946,47.54478916741555,161.950295,129.355055,127.5589,65.01704000000001,104.75703,0.6206460738659156,155.0545836387902,0.8554662688235295,-2.728139999999996,1.0532849999999885,2.924407145187714,1.8255800000000024,-0.586880000000022,1.9175949704773516,-2.7269300000000385,1.0468599999999952,2.920969545288037,1.869309999999928,-0.6524799999999971,1.9799116208810248,-2.743760000000009,1.1210899999999953,2.9639604797803965,1.6097500000000196,-0.5581900000000104,1.7037814233639463,-2.6779999999999973,1.0342899999999986,2.870790797689721,1.21745999999996,-0.2390199999999964,1.2407011775604555,-3.189510000000041,1.3178300000000007,3.4510360689219497,0.3622799999999415,-0.0163950000000028,0.3626507885348627,-2.3070699999999533,0.6963700000000017,2.409876171466033,0.4835200000001123,0.3100999999999914,0.5744158775661613,-3.893599999999992,1.5904899999999884,4.205921944128291,-0.9492000000000188,1.267269999999968,1.5833363170533148,-0.7993000000000166,-0.7312900000000013,1.0833584605752744,1.1607999999999947,-0.9543700000000116,1.5027570452005905,-3.734300000000076,0.790220000000005,3.816994123443285,0.0973999999998795,0.5030500000000018,0.5123924887232232,-0.373299999999972,0.4503699999999924,0.5849666887096839,0.9219000000000506,0.2800699999999949,0.9635034067921556,-2.2155400000000327,0.5764499999999941,2.289303844862044,0.9569199999999682,0.3149699999999882,1.007423439919844,-2.4903000000000475,0.0536700000000109,2.490878270590564,-0.9013800000001312,2.321140000000014,2.490015422442259,-3.540100000000052,0.6115100000000098,3.592527312366655,-1.8308300000001052,2.892680000000013,3.4233807955441447,0.5612999999999602,0.7797100000000228,0.9607316868408112,0.5534499999998843,-0.4107199999999693,0.6892008567172901,-0.1480099999999993,1.6959700000000169,1.7024162831105842,-0.131840000000011,0.773820000000029,0.7849708134701875,-0.0540099999999483,-0.2979100000000017,0.3027663260668125,0.535940000000096,-0.788800000000009,0.9536441283833909,-0.2856500000000324,1.0437200000000075,1.0821032117594118,0.4903499999999212,0.8274200000000178,0.9618040231252686,0.3325900000000104,2.606909999999999,163.669109,2.3556459119801905,127.6404796,1.273232877646589,124.848896,2.271188987461794,0.0422510099999999,-0.1595712779999999,0.0857298379896966,0,0
29,966.6666666666666,497.1416,128.30066,0.8615894,497.36264,124.61693,0.8697137,495.84576,125.831665,0.42093846,504.3081,120.07742,0.87257373,499.10342,122.37622,0.16027357,525.42334,127.59918,0.99515027,515.5461,131.92296,0.93468904,547.15546,150.57855,0.99239665,521.83813,154.76904,0.79886436,534.5234,174.79008,0.98170644,515.0974,171.61519,0.8072446,560.52966,158.52849,0.99366647,553.9381,159.54648,0.97896945,527.9314,182.31555,0.98444587,524.9673,184.87985,0.94783926,538.3543,223.85825,0.9320926,537.16144,222.79431,0.8638765,0.82491451,-0.15795002,0.80891043,-0.03463601,109.0451485005038,142.7938671320413,112.03380108590652,113.3389542180659,51.45723363770774,159.037485,129.76107,128.30066,64.68390000000005,103.78083,0.6232740610835932,156.35851210398337,0.8468253158823531,-1.993260000000021,0.7417599999999993,2.1268035464518302,0.7348799999999756,-0.3115249999999889,0.7981832120666015,-2.806789999999978,1.0172000000000023,2.985425588437917,-0.0798599999999396,-0.0296599999999926,0.0851899947176305,-1.5558399999999892,1.0609450000000038,1.8831469402638168,1.1879200000000196,-0.0601449999999914,1.189441611608172,-4.196939999999984,1.3632900000000063,4.412806928441339,-1.5189399999999864,0.3290000000000077,1.5541620647795915,-1.4779099999999517,1.3966199999999986,2.0334122534547325,1.7116000000000895,0.0787899999999979,1.7134125084463188,-2.937559999999962,0.4545099999999991,2.9725137667805304,-0.6304900000000089,-0.2418600000000026,0.6752880124065674,-3.310799999999972,0.3575199999999938,3.330047625845584,0.5828000000000202,-1.2329699999999946,1.3637708241856512,-1.8296400000000403,0.848780000000005,2.016930841154489,-1.0303400000000238,1.5800700000000063,1.886324924423168,-3.3694699999999784,1.3653099999999938,3.635574160569392,0.3648300000000972,0.5750899999999888,0.6810502455766815,-1.703800000000001,1.7967299999999966,2.4761205812520504,-1.330500000000029,1.3463600000000042,1.892859080755905,-1.3528599999999642,2.9467900000000213,3.242499265026906,0.8626800000000685,2.370340000000027,2.522444944493387,-1.8889799999999468,-2.9304500000000075,3.4865143973458426,0.6013200000001007,-2.9841200000000185,3.0441021528194865,-2.115729999999985,-2.895170000000008,3.585850354072236,1.4243700000000672,-3.506680000000017,3.784921996461792,-0.5132999999999583,1.606349999999992,1.6863680536881418,-1.0745999999999185,0.8266399999999692,1.3557650421808989,-0.5083499999999503,0.8154600000000016,0.9609343026970948,-0.360339999999951,-0.8805100000000152,0.9513899178044676,0.3709599999999682,0.5295299999999941,0.6465395134869718,0.4249699999999166,0.8274399999999957,0.9301916224627708,0.0394400000000132,-0.6768500000000017,0.6779981092156551,0.3250900000000456,-1.7205700000000093,1.7510124594074314,-2.9128100000000074,-3.245400000000018,161.971105,1.8937333441507929,128.2860426,1.3848905405990106,126.114509,2.016549255989108,0.06681556,-0.104399312,0.041860748621987,0,0
30,1000.0,494.42178,128.72122,0.8832371,494.97137,125.00189,0.8939377,492.68564,126.22539,0.48701808,502.47568,120.72409,0.88219035,495.25015,123.10593,0.17986245,522.4204,128.78462,0.99505746,512.8406,132.79935,0.9320748,543.07935,151.07002,0.99116534,521.0522,155.34396,0.7746399,534.41235,175.2849,0.9782866,517.85736,174.96503,0.7794308,558.13434,159.05026,0.99304235,551.3555,160.17531,0.97681355,527.5604,183.91158,0.98399514,524.07324,186.4576,0.9465452,537.86646,224.03775,0.9353006,535.4299,223.00595,0.8698319,0.78052778,-0.23729349,0.7433231,-0.01965164,117.47562559154902,150.73832286015963,114.7118521398772,116.6689231540194,52.16926261194402,159.612785,130.791985,128.72122,65.44869999999997,103.31365999999998,0.6334951192950173,157.26227749475356,0.8519076070588235,-2.71981999999997,0.4205599999999947,2.752143082399575,-0.7265599999999495,-0.3212000000000046,0.7943921409479889,-2.39127000000002,0.3849600000000066,2.422058301218222,0.4155199999999581,-0.6322399999999959,0.7565608290150635,-3.1601200000000063,0.3937250000000034,3.1845529968937623,-1.604280000000017,-0.6672200000000004,1.7374972940410742,-1.8324200000000133,0.6466700000000003,1.9431791336107047,2.3645199999999704,-0.716620000000006,2.470728446187453,-3.853270000000009,0.7297099999999972,3.921755522339462,-2.375360000000057,-0.6669100000000014,2.4672057226142035,-3.0029400000000805,1.1854399999999856,3.2284542179192277,-0.0653800000001183,0.7309299999999865,0.7338482195249886,-2.705500000000029,0.8763900000000149,2.8439039509273485,0.6052999999999429,0.518870000000021,0.7972541419772948,-4.076109999999972,0.4914699999999925,4.105632167279451,-2.246469999999931,-0.3573100000000124,2.2747083103113903,-0.7859300000000076,0.5749200000000201,0.9737653574142155,2.583539999999971,-0.7903899999999737,2.701739307131576,-0.1110500000000911,0.4948200000000042,0.5071281247377476,1.59274999999991,-1.3019099999999924,2.057139326978047,2.759959999999978,3.3498400000000004,4.340369480493553,4.112819999999942,0.403049999999979,4.132521948507898,-2.3953200000000834,0.5217700000000036,2.451489717559591,-0.5063400000001366,3.452220000000011,3.4891550730800454,-2.5825999999999567,0.6288299999999936,2.6580537859305573,-0.4668699999999717,3.524000000000001,3.5547916390275227,-0.3710000000000946,1.5960299999999847,1.6385825462575945,0.1422999999998637,-0.0103200000000072,0.1426737270837254,-0.8940599999999677,1.5777500000000089,1.8134603238284452,-0.3857100000000173,0.7622900000000072,0.8543174165379191,-0.4878400000000056,0.1794999999999902,0.5198154630251027,-0.8587999999999738,-0.3500300000000038,0.9273933582358448,-1.7315399999999954,0.2116400000000169,1.7444260549533166,-1.7709800000000089,0.8884900000000187,1.981359291118111,0.5752999999999986,3.488110000000006,161.222059,1.9479289154582584,129.19532299999997,1.188907580672991,127.190369,1.5480796478153924,0.01498437,-0.0848950659999999,0.0550595476871869,0,0
31,1033.3333333333337,492.21167,130.34059,0.91738755,493.24017,126.62187,0.9132031,490.1499,127.73601,0.62514377,501.309,122.43901,0.87691003,491.50894,124.57739,0.25537258,521.64575,131.23561,0.9947802,507.21912,133.81006,0.95661527,540.6782,154.07704,0.98851776,509.7807,154.6502,0.84315807,530.77094,176.34935,0.97340876,502.47324,173.58585,0.8314217,556.86334,159.1999,0.99260545,547.0379,159.62051,0.98120785,526.8207,184.96997,0.9831956,520.6804,185.58754,0.9564319,538.1874,224.13226,0.9345414,534.3043,221.48392,0.88750046,0.71916649,-0.18767312,0.69419401,0.00859759,116.21685031629912,151.8904898868016,114.43727379822978,113.78897897261773,54.37276211236745,159.41020500000002,132.522835,130.34059,66.71343999999999,101.69325,0.6560262293119136,169.88200202668148,0.8771412617647059,-2.210109999999986,1.6193700000000035,2.739880546483724,0.5097099999999841,1.1988100000000088,1.3026702192803843,-1.7312000000000012,1.6199799999999982,2.3709467814356358,0.6600700000000188,1.2350199999999916,1.40034524503781,-2.535739999999976,1.5106199999999887,2.9516012826938267,0.6243800000000306,1.116894999999985,1.2795721259174904,-1.1666799999999853,1.7149199999999922,2.0741486997802108,0.665740000000028,1.068249999999992,1.2587167314769514,-3.741210000000024,1.471459999999993,4.020179945686531,0.1120599999999854,0.7417499999999961,0.7501669854772276,-0.7746499999999514,2.4509900000000187,2.5704930660478382,2.228290000000129,1.265550000000033,2.562594998551402,-5.62148000000002,1.010709999999989,5.711617292370017,-2.9159799999999905,0.134319999999974,2.919071979722312,-2.4011500000000296,3.007020000000012,3.848076221035676,1.6749599999999418,2.515550000000019,3.022165250958309,-11.271499999999946,-0.6937599999999975,11.29283025585698,-10.48556999999994,-1.2686800000000176,10.5620418086324,-3.641409999999951,1.0644499999999937,3.793800283436073,-3.53035999999986,0.5696299999999894,3.576020143469412,-15.384119999999996,-1.3791800000000194,15.44581773966014,-18.14407999999997,-4.72902000000002,18.75023384405643,-1.2709999999999582,0.1496400000000051,1.2797785470931662,1.1243200000001252,-0.3721299999999985,1.1843040991655314,-4.31759999999997,-0.5548000000000002,4.35309921779871,-1.7350000000000136,-1.1836299999999935,2.100286879666688,-0.7396999999999707,1.0583900000000028,1.2912573260585831,-0.3686999999998761,-0.5376399999999819,0.6519175251516783,-3.392840000000092,-0.8700600000000236,3.502622969889946,-2.4987800000001243,-2.4478100000000325,3.4979530134781367,0.3209400000000642,0.0945100000000138,0.3345663218257985,0.8087800000000698,-0.0849899999999763,0.8132332927887967,-1.125599999999963,-1.5220300000000009,1.893026856888174,0.6059400000000323,-1.7336700000000178,1.836511626018224,-0.2025799999999833,-0.7778799999999819,160.32569500000002,1.3522631597060608,130.128514,1.62639818118259,128.285397,1.4238517103512742,0.02824923,-0.058168842,0.0626189674803781,0,0
32,1066.6666666666667,489.28012,132.77922,0.91003907,490.51004,128.95532,0.9096613,486.8741,130.19527,0.56992394,498.88074,124.377,0.89365613,489.49393,127.079544,0.25098416,519.36206,131.66751,0.9934609,504.5679,134.81056,0.95863855,537.8889,154.7764,0.9857334,504.8802,155.40395,0.8338449,529.3658,179.0638,0.97089076,497.86682,176.8112,0.8272682,554.946,156.29308,0.990328,545.4831,157.01428,0.9765673,526.2553,187.5202,0.9803923,518.48206,188.42697,0.95235515,538.9295,225.18202,0.9285578,531.35876,221.32693,0.8870732,0.68488371,-0.1319116,0.67184028,0.01719518,121.94284039268229,160.9914944611819,118.82452786105613,117.9441635367176,58.52693038800909,156.65368,133.239035,132.77922,68.07190000000003,100.80502,0.675282831397853,168.0057279430748,0.8717279447058823,-2.931550000000016,2.4386300000000176,3.813253424492028,-0.7214400000000296,0.8192600000000141,1.0916330066464943,-2.730129999999974,2.333449999999999,3.591461919525231,-0.998929999999973,0.7134700000000009,1.2275587911786332,-3.275800000000004,2.4592600000000004,4.096196453736079,-0.7400600000000281,0.9486400000000116,1.2031652642925093,-2.428260000000023,1.9379899999999992,3.106807343190129,-1.2615800000000377,0.2230700000000069,1.2811496092572867,-2.015010000000018,2.5021540000000044,3.212637536326825,1.7262000000000055,1.030694000000011,2.0104965957782777,-2.2836899999999787,0.4318999999999846,2.324172460489946,-1.5090400000000272,-2.019090000000034,2.520699535783712,-2.6512199999999666,1.0005000000000166,2.833719770619504,2.970260000000053,-0.0102099999999722,2.9702775479238155,-2.789299999999912,0.6993599999999844,2.875638868077751,-0.3881499999998823,-2.307660000000027,2.3400758744322867,-4.900500000000022,0.7537499999999966,4.958128609919292,6.370999999999924,1.447509999999994,6.533370202284501,-1.4051399999999603,2.71445,3.056576061886876,2.2362699999999904,1.6500000000000057,2.7791012059477027,-4.606419999999957,3.22535000000002,5.623343119435248,10.777700000000038,4.60453000000004,11.720090179299014,-1.9173399999999676,-2.9068200000000104,3.4822112497664377,-0.6463400000000092,-3.0564600000000155,3.124052356667556,-1.5548000000000002,-2.6062299999999823,3.034771466338101,2.76279999999997,-2.051429999999982,3.441137731172608,-0.5653999999999542,2.550229999999999,2.6121543240972467,0.1743000000000165,1.4918399999999965,1.5019877082053616,-2.1983399999999165,2.839430000000021,3.5909694346373597,1.1945000000001755,3.709490000000045,3.897068938330544,0.7420999999999367,1.049759999999992,1.2855770951599477,0.4211599999998725,0.9552499999999782,1.0439723694139855,-2.945540000000051,-0.1569900000000075,2.949720622652305,-1.819940000000088,1.3650399999999934,2.274976001016341,-2.7565250000000106,-2.553945000000027,159.33289000000002,1.8841813933637168,131.133996,1.6975417054166582,129.54011799999998,2.077535319849058,0.00859759,-0.0259892899999999,0.0470920322198856,0,0
33,1100.0,487.07996,134.61673,0.8980103,487.97394,130.82385,0.8795071,484.78452,132.18817,0.57169724,496.01773,125.439896,0.84093255,487.63388,128.22287,0.26241395,516.79535,132.53644,0.98871255,502.153,133.90866,0.9575315,534.795,159.94138,0.9765255,502.2537,154.61264,0.8567826,525.1589,185.44228,0.9603595,496.55127,176.79785,0.8519936,552.3197,156.43375,0.9834579,543.25696,156.76227,0.9693672,523.7495,190.13712,0.96486336,517.8992,191.32483,0.9339971,537.75757,226.14975,0.8853227,530.9767,223.70102,0.84540343,0.62390944,-0.09481914,0.6141136,0.05600716,126.00274425925473,165.30621793386015,118.45733055144404,121.7384207409241,58.61264063634931,156.59801,133.22255,134.61673,67.53518000000003,100.709854,0.670591572195194,174.64611563842345,0.8604045929411764,-2.2001599999999826,1.8375099999999804,2.866556649658236,0.7313900000000331,-0.6011200000000372,0.946718852933696,-2.5360999999999763,1.8685299999999927,3.150112310839068,0.1940299999999979,-0.4649200000000064,0.5037839291799662,-2.089580000000012,1.99290000000002,2.8875586550579597,1.1862199999999916,-0.4663599999999803,1.274601717400366,-2.863010000000031,1.0628960000000092,3.0539440346732283,-0.4347500000000082,-0.87509399999999,0.9771371814315478,-1.860050000000001,1.1433260000000018,2.1833415547678308,0.1549600000000168,-1.3588280000000026,1.367635234696742,-2.5667100000000573,0.868930000000006,2.709804341460893,-0.2830200000000786,0.4370300000000213,0.520668360187234,-2.4148999999999887,-0.901900000000012,2.5778218751496325,0.2363199999999778,-1.9024000000000283,1.9170218836518529,-3.093900000000076,5.164980000000014,6.020733809960428,-0.3046000000001641,4.46562000000003,4.475996329801932,-2.6265000000000214,-0.79131000000001,2.743113881358214,2.274000000000001,-1.5450600000000063,2.749233784820786,-4.206900000000019,6.378480000000025,7.640877876291471,-2.8017600000000584,3.664030000000025,4.612480345595037,-1.3155500000000302,-0.0133500000000026,1.3156177351343663,3.290869999999927,-3.238700000000023,4.617250593903223,-2.6263000000000147,0.14067,2.630064588351411,-0.7089600000000473,3.0474900000000105,3.128868738330218,-2.2261399999999867,-0.2520100000000127,2.2403589756331344,-0.6713399999999865,2.3542199999999696,2.4480705063375603,-2.505800000000022,2.6169200000000217,3.62316214464661,-1.940400000000068,0.0666900000000225,1.9415457028100744,-0.5828600000000961,2.89785999999998,2.955895525758649,1.6154799999998204,0.0584299999999586,1.6165363266253607,-1.1719299999999748,0.9677300000000172,1.5198425174339525,-1.9140299999999115,-0.0820299999999747,1.9157869823651208,-0.3820599999999103,2.374089999999996,2.4046357669509764,2.5634800000001405,2.531080000000003,3.602470773899593,-0.0556700000000205,2.70085499999999,158.26243300000002,1.5083042488604057,131.90749499999998,1.5598489174392196,130.95168399999997,2.6994806812663747,0.0388119799999999,0.005502456,0.0351455892451546,0,0
34,1133.3333333333333,485.37628,135.59134,0.8921046,486.16043,131.86427,0.8814017,483.26172,133.15836,0.53491515,494.47214,126.38536,0.8590334,486.9761,128.98254,0.24320169,515.56824,133.23944,0.9902761,502.08585,134.1102,0.9537646,535.0121,158.7785,0.9803484,503.597,152.29391,0.8403028,525.3751,186.58974,0.9647592,497.68915,175.40668,0.83826756,549.962,157.28458,0.98440766,541.94727,157.26299,0.9675666,522.5485,193.55496,0.9631519,518.4116,193.76791,0.9234621,536.3578,228.34099,0.870824,531.6271,224.11325,0.81656945,0.64796318,-0.1346137,0.61067456,0.169741,123.60465228807588,160.91102145683047,121.2656582420299,123.65578204142945,57.55922613961884,157.273785,133.67482,135.59134,66.70027999999996,101.95563,0.6542088881780347,176.30468504099696,0.8531974652941177,-1.7036800000000198,0.9746100000000126,1.9627506704877449,0.4964799999999627,-0.8628999999999678,0.995534429540188,-1.813510000000008,1.0404200000000117,2.0907635678144127,0.7225899999999683,-0.828109999999981,1.0990461683659711,-1.522799999999961,0.970189999999974,1.805599201400973,0.5667800000000511,-1.0227100000000462,1.16926272176109,-1.5455899999999474,0.9454640000000012,1.8118362573355904,1.3174200000000835,-0.1174320000000079,1.322643463305294,-0.6577800000000025,0.7596699999999998,1.0048746376041158,1.2022699999999986,-0.383656000000002,1.2620004275894674,-1.2271100000000388,0.703000000000003,1.4142163738622529,1.3396000000000186,-0.165930000000003,1.34983736979684,-0.0671500000000264,0.2015399999999942,0.2124323282836236,2.3477499999999623,1.1034400000000062,2.594129891909778,0.2171000000000731,-1.1628800000000012,1.182971810484102,3.311000000000149,-6.327860000000015,7.141745807546022,1.3432999999999993,-2.318729999999988,2.679732020725196,3.9698000000000206,-1.527419999999978,4.253507246543738,0.2161999999999579,1.1474599999999953,1.1676501580524754,4.423099999999977,-5.231020000000029,6.850356476155099,1.1378799999999956,-1.391170000000017,1.7972548131247377,2.4534300000000258,-1.377820000000014,2.813841985133523,-2.3577000000000226,0.850830000000002,2.5065236840892027,0.2685999999999922,0.7101600000000019,0.7592583128290388,-1.309690000000046,0.5007200000000012,1.4021442202926635,0.9164499999999408,0.7527300000000139,1.185952383276796,-1.2010000000000218,3.417839999999984,3.622710486031135,1.3048000000000002,0.8009199999999623,1.5310048616513077,0.5124000000000706,2.443080000000009,2.496235895583612,1.0952600000001669,-0.4547799999999711,1.185925510308442,-1.3997699999999895,2.1912399999999934,2.600170915632267,-0.2278400000000147,1.223509999999976,1.244543203629327,0.6503999999999905,0.4122299999999939,0.770034890703001,1.032459999999901,-1.9618600000000013,2.216950227497181,0.6757750000000158,0.7314450000000363,157.909693,1.487827153580108,132.690245,1.1385653410591885,132.40982000000002,2.872997579680578,0.11373384,0.046377858,0.0740777635540101,0,0
35,1166.6666666666667,482.91788,136.28719,0.8871629,484.02505,132.98991,0.8698785,481.05624,133.85577,0.5404775,492.531,128.53407,0.84622055,484.33444,130.17648,0.2513489,513.48584,135.92615,0.9899822,497.2635,135.7041,0.9580967,532.3556,162.22017,0.9793809,497.28503,154.34851,0.8590663,522.65875,188.48265,0.9627674,491.792,177.52985,0.8502228,546.70435,158.3246,0.9862786,536.8702,157.90753,0.97328454,522.67285,196.77493,0.9663725,516.182,196.01656,0.9347697,535.467,227.8056,0.8819144,529.71936,223.32812,0.83829224,0.66045019,-0.15795002,0.59986616,0.22673074,124.06952216995892,166.60295644505933,125.58789279816604,125.1378854098576,58.51456890083504,158.116065,135.81512500000002,136.28719,65.64810999999997,99.27152999999998,0.6612984542365926,-179.21578925295836,0.8573833311764706,-2.4583999999999837,0.6958500000000072,2.5549829319390622,-0.7547199999999634,-0.2787600000000054,0.8045554151206415,-2.135379999999998,1.1256400000000042,2.4138999884005137,-0.3218699999999899,0.0852199999999925,0.3329605761948285,-2.2054800000000228,0.6974100000000192,2.313119698264689,-0.6826800000000617,-0.2727799999999547,0.735160466020895,-1.9411400000000183,2.1487100000000083,2.89568284929481,-0.3955500000000711,1.2032460000000071,1.2665941492901638,-2.6416600000000017,1.1939399999999978,2.898941234174988,-1.9838799999999992,0.4342699999999979,2.030854570691854,-2.082399999999893,2.686710000000005,3.3992352645999047,-0.8552899999998544,1.983710000000002,2.160237567537367,-4.822349999999972,1.5939000000000192,5.078934606046802,-4.755199999999945,1.392360000000025,4.954855538721543,-2.656500000000051,3.441669999999988,4.347652773497464,-2.873600000000124,4.604549999999989,5.427656737718461,-6.311969999999974,2.054599999999993,6.637947456925193,-7.655269999999973,4.3733299999999815,8.816415034570426,-2.7163499999999203,1.8929100000000003,3.310840616912806,-2.9325499999998783,0.7454500000000053,3.025813147733894,-5.8971500000000106,2.123170000000016,6.267713217067306,-7.035030000000006,3.5143400000000327,7.863983261458554,-3.2576500000000124,1.0400199999999984,3.4196381567206897,-0.8999499999999898,0.1891899999999964,0.9196210407553648,-5.077070000000049,0.6445400000000063,5.117819027329952,-3.767380000000003,0.1438200000000051,3.770124169944542,0.1243500000000494,3.2199700000000178,3.222370202723474,1.3253500000000713,-0.1978699999999662,1.3400392380076696,-2.229600000000005,2.248649999999998,3.1666295935110584,-2.7420000000000755,-0.1944300000000112,2.7488846874506065,-0.8908000000000129,-0.5353900000000067,1.039310873656208,0.5089699999999766,-2.72663,2.773727026547489,-1.9077399999999896,-0.785129999999981,2.062983525019027,-2.5581399999999803,-1.1973599999999749,2.8244913222029626,0.8422799999999881,0.1665049999999723,157.610349,1.1777681696710178,133.694873,1.255031975521413,133.92301400000002,2.397702448184632,0.0569897399999999,0.095654334,0.0974377650315015,0,0
36,1200.0,480.86588,138.62167,0.9197733,482.29474,134.45276,0.9317865,478.00912,135.82803,0.6209212,492.0707,128.9664,0.9186254,479.437,132.2716,0.2527918,513.27954,137.84874,0.99564606,493.58646,138.7019,0.95678896,532.65497,163.94186,0.98974484,491.7792,157.73692,0.8087726,523.68805,193.44777,0.97222745,484.25598,181.47516,0.7839385,546.9295,157.72668,0.99205256,535.4489,157.79495,0.9771708,522.25934,196.02512,0.97782636,517.35504,196.35844,0.935372,537.77875,223.57443,0.90322644,535.8074,220.18456,0.824694,0.7361991,-0.12454224,0.67110334,0.27585983,126.500131668511,167.83896667128997,117.8182015135932,117.10786393950974,62.70231700587145,157.76081499999998,138.27532,138.62167,68.92037999999997,94.60803,0.7284833990467464,177.51933574300162,0.868315221764706,-2.052000000000021,2.334479999999985,3.1081346287443883,0.4063999999999623,1.6386299999999778,1.688274040817988,-1.730310000000031,1.462850000000003,2.265811735030101,0.4050699999999665,0.3372099999999989,0.5270600430690721,-3.0471200000000067,1.9722600000000057,3.6297038173933776,-0.841639999999984,1.2748499999999865,1.5276126511979202,-0.4603000000000179,0.432329999999979,0.6314945121693445,1.4808400000000006,-1.716380000000029,2.2669026026717827,-4.8974399999999605,2.0951200000000085,5.326766971437708,-2.255779999999959,0.9011800000000108,2.4291292268629583,-0.2063000000000556,1.9225899999999851,1.9336266439258556,1.8760999999998376,-0.7641200000000197,2.0257419836690507,-3.6770400000000336,2.997799999999984,4.744199405758589,1.145309999999938,1.4038999999999646,1.8118140649911512,0.2993700000000672,1.7216899999999953,1.7475236344610692,2.955870000000118,-1.7199799999999923,3.419868222212761,-5.505830000000003,3.3884099999999933,6.464942870358561,0.8061399999999708,1.3338099999999995,1.5584963316286478,1.029299999999921,4.965119999999985,5.070687833460041,3.7456499999998414,3.072209999999984,4.844416188417208,-7.536019999999951,3.945309999999978,8.506295811720815,-1.6388699999999403,1.822139999999962,2.450732351053388,0.225149999999985,-0.5979200000000162,0.6389059781376386,3.482799999999997,-1.6379400000000146,3.8487326853913912,-1.4212999999999738,-0.1125800000000083,1.4257517127466224,3.655770000000075,-0.7571200000000147,3.7333476917239534,-0.4135100000000875,-0.749810000000025,0.8562742295550589,-0.537860000000137,-3.9697800000000423,4.006051251294782,1.1730400000000143,0.3418800000000033,1.2218448248448066,3.4026400000000194,-1.9067699999999943,3.900478278685848,2.311749999999961,-4.231169999999992,4.8215130023053705,3.202549999999974,-3.695779999999985,4.8903084065219975,6.088039999999978,-3.143560000000008,6.851729746217358,7.995779999999968,-2.358430000000027,8.336347513947558,-0.3552500000000123,-1.1975300000000004,157.28047099999998,0.668508109143139,134.84537,2.1959636808041862,135.57923,2.151990788630541,0.0491290899999999,0.149106782,0.1102109288411288,0,0
37,1233.3333333333337,480.19308,141.37492,0.9207663,480.99402,137.41977,0.9238904,477.31085,138.90529,0.6317681,489.84006,131.0615,0.9019519,478.34805,134.6936,0.26226482,512.48926,139.76474,0.9954502,491.5623,139.87717,0.9614111,530.6898,168.89703,0.9893049,486.3313,158.75563,0.8398349,518.0581,200.63344,0.973026,478.87744,182.02058,0.82273906,547.07837,158.1747,0.99289787,534.5867,157.9435,0.9813132,524.31134,197.97763,0.9815974,518.602,196.75275,0.9507459,539.0441,226.27727,0.9248865,535.4737,220.2175,0.8707952,0.77066331,-0.15819566,0.7108979,0.25203222,126.30121323789324,177.72248099514823,122.72927684120997,121.8972730623638,64.82772151710624,158.0591,139.820955,141.37492,69.76751999999993,95.21577,0.732730715376972,179.6921816396652,0.8779202205882353,-0.6727999999999952,2.7532500000000084,2.834262761724826,1.3792000000000255,0.4187700000000234,1.4413746747116416,-1.3007200000000123,2.967009999999988,3.239601959886424,0.4295900000000188,1.5041599999999846,1.5643033189570268,-0.6982699999999795,3.0772599999999954,3.1554888845470432,2.348850000000027,1.1049999999999898,2.595789152165504,-2.230639999999994,2.095100000000002,3.0602612338818367,-1.770339999999976,1.6627700000000232,2.4287667217128925,-1.0889500000000112,2.421999999999997,2.655540642223351,3.808489999999949,0.3268799999999885,3.822492199403369,-0.7902800000000525,1.9159999999999968,2.072582562505067,-0.5839799999999968,-0.0065899999999885,0.5840171816821798,-2.024159999999995,1.1752700000000118,2.340616004068161,1.6528800000000388,-1.822529999999972,2.460412139317319,-1.9651700000000571,4.95517000000001,5.3306287488250685,-2.264540000000125,3.2334800000000143,3.947598551271476,-5.447900000000004,1.018709999999999,5.542326630044466,0.0579299999999989,-2.3696999999999946,2.3704079764673365,-5.629950000000008,7.185670000000016,9.128537141919308,-6.659249999999929,2.2205500000000318,7.0197188593988,-5.378540000000044,0.5454200000000071,5.40612388944246,2.1574799999999072,-3.3998899999999708,4.026657666415088,0.148869999999988,0.4480200000000138,0.4721061292760441,-0.076279999999997,1.04594000000003,1.0487178467061875,-0.8622000000000298,0.1485500000000001,0.8749033903809332,0.559099999999944,0.2611300000000085,0.6170751063686994,2.052000000000021,1.952510000000018,2.832489947043088,2.4655100000001084,2.702320000000043,3.658042228091519,1.2469599999999446,0.3943099999999901,1.3078186486282624,0.07391999999993,0.0524299999999868,0.0906259968220393,1.2653500000000122,2.7028399999999806,2.984368390145548,-1.0463999999999487,6.934009999999972,7.012520776446905,-0.3337000000000216,0.0329399999999964,0.3353218358532802,-6.42174,3.1765000000000043,7.164418809477851,0.2982850000000212,0.6535350000000335,157.561555,0.6336338561505341,136.161754,2.863600257209612,137.29837,2.7155575990670684,-0.02382761,0.1960741899999999,0.0876770826929571,0,0
38,1266.6666666666663,479.4159,144.3478,0.94541013,480.30862,140.41321,0.9398411,476.04254,141.76935,0.7528076,488.48132,134.42209,0.8987006,475.33847,137.58052,0.37153488,509.7051,144.22223,0.99554825,489.39667,142.33531,0.9750806,526.28253,175.80016,0.98668855,483.1187,160.8883,0.88307226,513.7436,206.13107,0.9669398,474.37155,183.85817,0.8564202,547.00116,159.2037,0.9930466,534.7162,158.32959,0.9853727,521.348,196.56207,0.9839228,516.06195,195.15993,0.96491987,536.73303,224.1017,0.94047403,533.43335,218.76363,0.9085793,0.81729837,-0.12773563,0.78606541,0.18374279,129.84151179635893,177.84749327296245,116.33354770019038,116.78656408215086,69.44705395122539,158.76664499999998,143.27877,144.3478,72.62961000000001,89.67961,0.8098787359815824,-174.69170943736867,0.9028446629411764,-0.7771799999999871,2.9728800000000035,3.072787699597876,-0.1043799999999919,0.2196299999999951,0.2431717938001777,-0.6853999999999587,2.993439999999993,3.070904784196329,0.6153200000000538,0.0264300000000048,0.6158873657577874,-1.2683100000000422,2.864059999999995,3.132323409180489,-0.5700400000000627,-0.2132000000000005,0.6086048320544881,-1.3587400000000116,3.360590000000002,3.624877864935596,0.8718999999999824,1.2654899999999998,1.5367740725623815,-3.009580000000028,2.8869200000000035,4.1703571624982185,-1.920630000000017,0.4649200000000064,1.9760997452811109,-2.784159999999929,4.457490000000007,5.255546023554514,-1.9938799999998764,2.5414900000000102,3.23028309510166,-2.165630000000021,2.458139999999986,3.276035035908502,-0.1414700000000266,1.2828699999999742,1.2906468137333085,-4.40727000000004,6.903130000000004,8.190069148047556,-2.442099999999982,1.9479599999999948,3.1238438775969413,-3.212600000000009,2.1326699999999903,3.856044617078492,2.235299999999995,1.1139599999999916,2.497493337648764,-4.314499999999953,5.497629999999987,6.988479510372728,1.3154500000000553,-1.6880400000000293,2.140067228873954,-4.505889999999965,1.8375900000000056,4.8661875940205706,0.8726500000000783,1.2921699999999987,1.5592374198306471,-0.0772099999999227,1.0289999999999964,1.0318926223691982,-0.2260799999999108,0.5809799999999825,0.6234179391066152,0.1295000000000072,0.3860899999999958,0.4072293433680813,0.9917000000000372,0.2375399999999956,1.0197520000471054,-2.9633400000000165,-1.4155599999999993,3.284081921816217,-5.015340000000037,-3.368070000000017,6.0413186342470375,-2.540049999999951,-1.592819999999989,2.9981543580842724,-3.787009999999896,-1.9871299999999792,4.27669619881973,-2.3110699999999724,-2.1755699999999933,3.1739800518906613,-3.5764199999999846,-4.878409999999974,6.048939092477261,-2.040349999999989,-1.4538699999999949,2.505347500727183,-1.7066499999999678,-1.4868099999999913,2.263461552268972,0.7075449999999819,0.4092599999999606,157.995282,0.5452510529726379,138.172998,3.69419511481606,139.244584,3.642167550433557,-0.0682894299999999,0.2216213159999999,0.044774701609364,0,0
39,1300.0,476.54196,146.42139,0.92262113,477.587,142.89047,0.92624027,473.9648,143.6958,0.6459342,485.5383,137.53484,0.9003136,473.5489,139.44029,0.2698559,507.3554,145.91154,0.99546826,485.41153,145.16965,0.96072125,524.90393,177.59306,0.9890603,478.9934,166.9074,0.8298957,511.5749,209.71991,0.97016317,469.49078,189.56918,0.8038598,545.8527,159.70023,0.99178267,532.35956,159.35196,0.97822315,521.3706,198.443,0.97823024,512.7531,197.17288,0.940252,537.9413,223.51726,0.9131242,532.59094,217.82207,0.8482728,0.79760567,-0.10783835,0.78483718,0.09260833,128.48478967941864,173.6999224517201,114.25131448739457,108.74570251175273,71.87385579117651,159.526095,145.540595,146.42139,76.36192000000005,85.98241999999999,0.8881108383770685,-178.0636514209422,0.8743540376470589,-2.8739400000000046,2.073589999999996,3.54391120256984,-2.096760000000017,-0.8992900000000077,2.281474304413724,-2.72162000000003,2.477260000000001,3.6802218047286455,-2.036220000000071,-0.5161799999999914,2.10062697326305,-2.077739999999949,1.9264499999999884,2.833410155642798,-0.8094299999999066,-0.9376100000000064,1.2386643762536569,-2.94301999999999,3.112750000000005,4.283757612528978,-1.5842799999999784,-0.2478399999999965,1.60354849755158,-1.7895699999999692,1.8597699999999973,2.580950452410871,1.2200100000000589,-1.027150000000006,1.5948233515346315,-2.349700000000041,1.689310000000006,2.893934754983293,0.4344599999998877,-2.768180000000001,2.802066381083772,-3.985139999999944,2.8343399999999974,4.890278525319345,-1.819509999999923,0.3762000000000114,1.857994370308944,-1.3786000000000058,1.792900000000003,2.261642847577846,3.0286700000000337,-5.110230000000001,5.940310818618856,-4.1252999999999815,6.019100000000009,7.29709975949349,-0.9126999999999724,3.8864300000000185,3.9921622505730014,-2.168700000000001,3.5888400000000047,4.193212638967887,2.1457999999999515,-1.908789999999982,2.8719221619152084,-4.880770000000041,5.711009999999988,7.512492995870295,-0.3748800000000756,3.8734199999999817,3.891518663812357,-1.14846,0.496530000000007,1.2512003886268606,-1.0712500000000773,-0.5324699999999893,1.1962862798678895,-2.3566399999999703,1.0223699999999951,2.568850425092876,-2.4861399999999776,0.6362799999999993,2.566270511462088,0.0226000000000112,1.8809300000000064,1.881065768361124,2.985940000000028,3.2964900000000057,4.4477729262744745,-3.3088500000000067,2.0129499999999894,3.873042218334316,-0.7688000000000557,3.6057699999999775,3.6868185109793417,1.2082699999999704,-0.5844400000000007,1.34219466043489,3.519339999999943,1.5911299999999926,3.8623113173978574,-0.8424099999999726,-0.9415600000000096,1.2634040690531163,1.1979400000000169,0.5123099999999852,1.3028897803344783,0.7594500000000153,0.0519050000000334,158.445744,0.7066550247135238,140.546153,3.8883437074776,141.410594,4.1159413837944125,-0.0911344599999999,0.206194782,0.0720797981908608,0,0
40,1333.3333333333333,472.6179,150.02246,0.8916586,474.02753,146.51222,0.9031168,470.44672,147.33981,0.55251575,482.81293,141.31879,0.88915044,470.40942,143.30138,0.21007116,505.02435,148.69423,0.99439985,479.2945,150.19179,0.9433146,523.30554,178.33682,0.9886579,473.18375,173.26332,0.7856777,510.34454,214.35782,0.9675617,464.0075,199.25433,0.7548862,540.62463,164.51976,0.98872656,524.627,165.39624,0.967315,521.8379,204.48111,0.9624102,509.75238,204.60686,0.89088804,539.36194,223.2752,0.8457621,532.39734,219.33334,0.73081625,0.78619981,-0.15672179,0.7460252,0.19234038,128.5473798833631,175.3889656491017,111.82355176071144,102.26243975430378,69.02295946586761,164.958,149.44301000000002,150.02246,76.61713000000003,81.95641,0.9348521862432462,176.66895944233497,0.8392311088235294,-3.924059999999997,3.601069999999993,5.325969585765574,-1.0501199999999926,1.527479999999997,1.853630805958936,-3.559469999999976,3.62175000000002,5.07808032069206,-0.8378499999999462,1.1444900000000189,1.4183969763785995,-3.5180799999999977,3.6440100000000086,5.06514518710965,-1.4403400000000488,1.7175600000000202,2.2415600971645198,-2.725369999999998,3.783950000000005,4.663252002562163,0.2176499999999919,0.6711999999999989,0.7056068044598174,-3.139479999999992,3.86108999999999,4.976379271970724,-1.3499100000000226,2.0013199999999927,2.414029567031032,-2.331049999999948,2.7826900000000023,3.6300355010109433,0.0186500000000933,1.0933799999999962,1.093539046810856,-6.11703,5.022140000000007,7.914540176188384,-2.131890000000056,2.18780000000001,3.0547379285464538,-1.5983899999999949,0.7437599999999804,1.7629604447349223,-0.219789999999989,-1.0491400000000226,1.0719152875577636,-5.809650000000033,6.355919999999998,8.61102503590022,-1.6843500000000518,0.3368199999999888,1.717696898437023,-1.2303600000000188,4.637910000000005,4.798332512206724,0.9383399999999824,1.0490700000000004,1.407490611158727,-5.483279999999979,9.68515000000002,11.129622189495032,-0.6025099999999384,3.974140000000034,4.019553089548663,-5.228070000000002,4.819529999999986,7.1105966940756735,-4.079610000000002,4.322999999999979,5.9440345517249344,-7.732560000000035,6.044280000000015,9.814571048802934,-5.375920000000065,5.02191000000002,7.356636180653552,0.4673000000000229,6.038109999999989,6.056165590710007,0.4447000000000116,4.157179999999983,4.180897468534701,-3.000720000000001,7.43398000000002,8.016756149391117,0.3081300000000055,5.42103000000003,5.429779954823246,1.4206400000000483,-0.2420599999999808,1.4411145177258222,0.2123700000000781,0.3423800000000199,0.4028958690530926,-0.1936000000000604,1.511269999999996,1.523620022479362,0.6488099999999122,2.452830000000006,2.5371892765420387,5.431905,4.672454999999985,159.814131,2.955326562051249,143.27173,4.475054630307379,144.157648,4.414389339407193,0.09973205,0.19931671,0.0712665221905678,0,0
