frame_id,timestamp_ms,nose_x,nose_y,nose_conf,left_eye_x,left_eye_y,left_eye_conf,right_eye_x,right_eye_y,right_eye_conf,left_ear_x,left_ear_y,left_ear_conf,right_ear_x,right_ear_y,right_ear_conf,left_shoulder_x,left_shoulder_y,left_shoulder_conf,right_shoulder_x,right_shoulder_y,right_shoulder_conf,left_elbow_x,left_elbow_y,left_elbow_conf,right_elbow_x,right_elbow_y,right_elbow_conf,left_wrist_x,left_wrist_y,left_wrist_conf,right_wrist_x,right_wrist_y,right_wrist_conf,left_hip_x,left_hip_y,left_hip_conf,right_hip_x,right_hip_y,right_hip_conf,left_knee_x,left_knee_y,left_knee_conf,right_knee_x,right_knee_y,right_knee_conf,left_ankle_x,left_ankle_y,left_ankle_conf,right_ankle_x,right_ankle_y,right_ankle_conf,acc_x,acc_y,acc_z,acc_mag,left_elbow_angle,right_elbow_angle,left_knee_angle,right_knee_angle,spine_angle,hip_height,shoulder_height,head_height,bbox_width,bbox_height,bbox_aspect_ratio,shoulder_tilt,avg_confidence,nose_vx,nose_vy,nose_speed,nose_ax,nose_ay,nose_accel,left_eye_vx,left_eye_vy,left_eye_speed,left_eye_ax,left_eye_ay,left_eye_accel,right_eye_vx,right_eye_vy,right_eye_speed,right_eye_ax,right_eye_ay,right_eye_accel,left_ear_vx,left_ear_vy,left_ear_speed,left_ear_ax,left_ear_ay,left_ear_accel,right_ear_vx,right_ear_vy,right_ear_speed,right_ear_ax,right_ear_ay,right_ear_accel,left_shoulder_vx,left_shoulder_vy,left_shoulder_speed,left_shoulder_ax,left_shoulder_ay,left_shoulder_accel,right_shoulder_vx,right_shoulder_vy,right_shoulder_speed,right_shoulder_ax,right_shoulder_ay,right_shoulder_accel,left_elbow_vx,left_elbow_vy,left_elbow_speed,left_elbow_ax,left_elbow_ay,left_elbow_accel,right_elbow_vx,right_elbow_vy,right_elbow_speed,right_elbow_ax,right_elbow_ay,right_elbow_accel,left_wrist_vx,left_wrist_vy,left_wrist_speed,left_wrist_ax,left_wrist_ay,left_wrist_accel,right_wrist_vx,right_wrist_vy,right_wrist_speed,right_wrist_ax,right_wrist_ay,right_wrist_accel,left_hip_vx,left_hip_vy,left_hip_speed,left_hip_ax,left_hip_ay,left_hip_accel,right_hip_vx,right_hip_vy,right_hip_speed,right_hip_ax,right_hip_ay,right_hip_accel,left_knee_vx,left_knee_vy,left_knee_speed,left_knee_ax,left_knee_ay,left_knee_accel,right_knee_vx,right_knee_vy,right_knee_speed,right_knee_ax,right_knee_ay,right_knee_accel,left_ankle_vx,left_ankle_vy,left_ankle_speed,left_ankle_ax,left_ankle_ay,left_ankle_accel,right_ankle_vx,right_ankle_vy,right_ankle_speed,right_ankle_ax,right_ankle_ay,right_ankle_accel,hip_velocity,hip_acceleration,hip_height_mean_5,hip_height_std_5,shoulder_height_mean_5,shoulder_height_std_5,head_height_mean_5,head_height_std_5,acc_mag_diff,acc_mag_mean_5,acc_mag_std_5,label_binary,label_3class
0,0.0,552.0985,99.64134,0.95044667,556.7136,96.22759,0.9634094,550.91016,96.50729,0.62550986,568.5331,98.33635,0.955246,554.0426,98.36083,0.1845526,576.6601,118.559586,0.99787176,560.8575,119.32169,0.94751203,576.12085,146.91116,0.99555796,556.8934,145.54239,0.7081104,551.9382,165.76312,0.9882577,547.1301,163.37181,0.72629905,575.0057,167.21805,0.9935323,565.1571,164.87634,0.96743137,535.2407,179.61845,0.98093134,529.8784,179.12395,0.90454787,541.0564,224.36046,0.9138641,541.6955,221.23624,0.7833033,0.99650741,-0.44633776,0.88776262,0.07541315,129.02839049794537,159.8921022284616,99.91372207148189,96.31713468078652,1.6083012566762287,166.047195,118.940638,99.64134,46.7817,128.13286999999997,0.3651030343337894,177.238964619542,0.8580225711764706,0.0,0.0,0.0,0.0,0.0,0.0,0.0,0.0,0.0,0.0,0.0,0.0,0.0,0.0,0.0,0.0,0.0,0.0,0.0,0.0,0.0,0.0,0.0,0.0,0.0,0.0,0.0,0.0,0.0,0.0,0.0,0.0,0.0,0.0,0.0,0.0,0.0,0.0,0.0,0.0,0.0,0.0,0.0,0.0,0.0,0.0,0.0,0.0,0.0,0.0,0.0,0.0,0.0,0.0,0.0,0.0,0.0,0.0,0.0,0.0,0.0,0.0,0.0,0.0,0.0,0.0,0.0,0.0,0.0,0.0,0.0,0.0,0.0,0.0,0.0,0.0,0.0,0.0,0.0,0.0,0.0,0.0,0.0,0.0,0.0,0.0,0.0,0.0,0.0,0.0,0.0,0.0,0.0,0.0,0.0,0.0,0.0,0.0,0.0,0.0,0.0,0.0,0.0,0.0,166.047195,0.0,118.940638,0.0,99.64134,0.0,0.0,0.07541315,0.0,0,0
1,33.333333333333336,552.1552,99.842545,0.9508164,556.79596,96.40936,0.96373934,550.96875,96.70398,0.6290638,568.70624,98.494156,0.9552191,554.1111,98.545715,0.18573025,576.6925,118.743385,0.9978447,560.8841,119.45398,0.94706386,576.0666,147.12643,0.99546427,556.9593,145.65086,0.70512426,551.97754,165.8383,0.98803073,547.3322,163.39284,0.7233178,574.6164,167.30699,0.99338734,564.7493,164.94083,0.96676785,535.1246,179.75381,0.980586,529.72974,179.21747,0.9031567,541.063,224.50826,0.91285044,541.5923,221.34245,0.78132725,0.89838371,-0.43012516,0.78680234,0.05502458,129.10257739619118,160.03563303482204,99.93519950918557,96.45212291845937,1.0898569258883104,166.12391000000002,119.0986825,99.842545,46.96276,128.0989,0.3666132935832135,177.42626033691758,0.857617064117647,0.0567000000000916,0.2012050000000016,0.2090414839810774,0.0567000000000916,0.2012050000000016,0.2090414839810774,0.0823599999999942,0.1817700000000002,0.1995582684330547,0.0823599999999942,0.1817700000000002,0.1995582684330547,0.058589999999981,0.1966900000000038,0.2052309533184487,0.058589999999981,0.1966900000000038,0.2052309533184487,0.1731399999999894,0.1578060000000078,0.2342652198598819,0.1731399999999894,0.1578060000000078,0.2342652198598819,0.0684999999999718,0.1848849999999942,0.1971667142927375,0.0684999999999718,0.1848849999999942,0.1971667142927375,0.0323999999999387,0.1837990000000076,0.1866328813499883,0.0323999999999387,0.1837990000000076,0.1866328813499883,0.0266000000000303,0.1322899999999975,0.134937778624079,0.0266000000000303,0.1322899999999975,0.134937778624079,-0.0542500000000245,0.2152700000000038,0.2220005301795568,-0.0542500000000245,0.2152700000000038,0.2220005301795568,0.0658999999999423,0.1084699999999827,0.1269194661980133,0.0658999999999423,0.1084699999999827,0.1269194661980133,0.0393399999999246,0.0751800000000173,0.0848508573910522,0.0393399999999246,0.0751800000000173,0.0848508573910522,0.202099999999973,0.0210299999999961,0.2031912175759301,0.202099999999973,0.0210299999999961,0.2031912175759301,-0.3893000000000484,0.088940000000008,0.3993304566396596,-0.3893000000000484,0.088940000000008,0.3993304566396596,-0.4078000000000656,0.0644900000000063,0.4128677755650765,-0.4078000000000656,0.0644900000000063,0.4128677755650765,-0.1160999999999603,0.1353599999999915,0.1783298617730314,-0.1160999999999603,0.1353599999999915,0.1783298617730314,-0.1486600000000635,0.0935199999999838,0.1756296842792125,-0.1486600000000635,0.0935199999999838,0.1756296842792125,0.0065999999999348,0.1478000000000179,0.1479472879102703,0.0065999999999348,0.1478000000000179,0.1479472879102703,-0.1032000000000152,0.1062100000000043,0.1480905267058095,-0.1032000000000152,0.1062100000000043,0.1480905267058095,0.0767150000000356,0.0767150000000356,166.0855525,0.0542456967187511,119.01966025,0.1117543376792291,99.7419425,0.1422734199086454,-0.02038857,0.065218865,0.0144168961056966,0,0
2,66.66666666666667,552.2476,99.90615,0.9517493,556.9254,96.45883,0.964407,551.045,96.75961,0.63357913,568.8942,98.549126,0.955753,554.14453,98.61057,0.18755324,576.7768,118.85699,0.99788886,560.86804,119.52529,0.94787836,576.14276,147.28831,0.99552876,556.9672,145.69983,0.70693356,552.0071,165.94101,0.98817176,547.23706,163.49321,0.7247031,574.4057,167.32321,0.9935133,564.4612,164.93448,0.9673021,535.12274,179.7464,0.9809732,529.57043,179.15398,0.9047508,541.3304,224.49007,0.91448176,541.66376,221.2694,0.78462136,1.0065534,-0.46549811,0.89046472,0.0594462,128.97536080668485,159.80488427994572,99.650800763898,96.15174661454247,0.745921927503767,166.128845,119.19114,99.90615,47.20636999999999,128.03124,0.3687097745151123,177.5945158898202,0.8588110935294118,0.0923999999999978,0.0636049999999954,0.1121755589466752,0.0356999999999061,-0.1376000000000061,0.1421557244714225,0.1294399999999314,0.0494699999999994,0.1385712614504976,0.0470799999999371,-0.1323000000000007,0.1404272637346262,0.076249999999959,0.0556299999999936,0.0943862246304673,0.017659999999978,-0.1410600000000101,0.1421611733209954,0.1879599999999754,0.0549699999999973,0.1958332517730083,0.014819999999986,-0.1028360000000105,0.1038983892849247,0.0334300000000666,0.0648549999999943,0.0729639357833972,-0.0350699999999051,-0.1200299999999998,0.1250484138243796,0.0842999999999847,0.1136049999999926,0.141465847556913,0.051900000000046,-0.0701940000000149,0.0872972372759119,-0.0160600000000386,0.0713099999999968,0.073096099075127,-0.0426600000000689,-0.0609800000000007,0.0744206691719845,0.0761599999999589,0.1618799999999964,0.1789007546099026,0.1304099999999834,-0.0533900000000073,0.1409157911662013,0.0079000000000633,0.048969999999997,0.0496031339735778,-0.057999999999879,-0.0594999999999856,0.0830918166848232,0.0295600000000604,0.1027100000000018,0.1068790798051889,-0.0097799999998642,0.0275299999999845,0.0292155660564106,-0.0951399999999011,0.100369999999998,0.1382959019637993,-0.2972399999998742,0.0793400000000019,0.3076466369065743,-0.2106999999999743,0.0162199999999757,0.2113233976633642,0.178600000000074,-0.0727200000000323,0.1928371292050137,-0.2880999999999858,-0.0063499999999976,0.2881699715445587,0.1197000000000798,-0.070840000000004,0.1390913210808628,-0.0018599999999651,-0.007409999999993,0.007639875653423,0.1142399999999952,-0.1427699999999845,0.1828498031171882,-0.1593100000000049,-0.0634900000000016,0.1714953532898246,-0.0106499999999414,-0.1570099999999854,0.1573707806423866,0.267400000000066,-0.0181900000000041,0.2680179771956267,0.2608000000001311,-0.165990000000022,0.3091428797499236,0.0714600000000018,-0.0730500000000233,0.1021901859280218,0.1746600000000171,-0.1792600000000277,0.2502803691862706,0.004934999999989,-0.0717800000000465,166.09998333333334,0.045782580293545,119.07682016666666,0.1266739287110064,99.79667833333332,0.138234935375737,0.00442162,0.0632946433333333,0.0107252661378929,0,0
3,100.0,552.35016,99.978714,0.9521144,557.0438,96.52136,0.9642302,551.0884,96.83236,0.63919085,568.98584,98.638626,0.9550153,554.01776,98.74182,0.19106469,577.0148,119.0139,0.9978604,560.5924,119.681435,0.9491867,576.215,147.59053,0.9954216,556.614,146.0054,0.71328604,551.8781,165.97214,0.9879579,547.1101,163.763,0.728916,574.6645,167.25209,0.99357337,564.3622,164.8143,0.96823144,535.1992,179.75516,0.9813634,529.1784,178.8952,0.9081747,541.4916,224.62167,0.916872,541.4202,221.03781,0.79200006,1.01472721,-0.45346148,0.90471215,0.07443057,128.666845474126,160.43842916558805,99.59531435330685,95.61397581388252,0.8710689871837691,166.033195,119.3476675,99.978714,47.836400000000026,128.10030999999998,0.3734292261007862,177.6723320234102,0.8608505323529412,0.1025599999999258,0.0725639999999998,0.1256347392084879,0.010159999999928,0.0089590000000043,0.0135458215328054,0.1184000000000651,0.0625299999999953,0.1338975761543682,-0.0110399999998662,0.0130599999999958,0.0171010292087037,0.0434000000000196,0.0727499999999992,0.0847119973793652,-0.0328499999999394,0.0171200000000055,0.0370434461139377,0.0916400000000976,0.089500000000001,0.1280942606052983,-0.0963199999998778,0.0345300000000037,0.1023223499533543,-0.1267700000000786,0.1312500000000085,0.1824751911905346,-0.1602000000001453,0.0663950000000141,0.1734137711516835,0.2380000000000564,0.1569100000000105,0.2850697249797497,0.1537000000000716,0.0433050000000179,0.1596841038582851,-0.275639999999953,0.1561449999999951,0.316794366466597,-0.2595799999999144,0.0848349999999982,0.2730911086523237,0.0722400000000789,0.3022200000000055,0.3107338829288089,-0.00391999999988,0.140340000000009,0.1403947363685747,-0.3532000000000153,0.3055700000000172,0.4670366847475916,-0.3611000000000786,0.2566000000000201,0.4429861961732747,-0.1290000000000191,0.0311299999999903,0.1327029649254466,-0.1585600000000795,-0.0715800000000115,0.173968301710475,-0.1269600000000537,0.2697900000000004,0.2981702293992709,-0.0318200000001525,0.1694200000000023,0.172382275190956,0.258799999999951,-0.0711199999999792,0.2683942890599047,0.4694999999999254,-0.0873399999999549,0.4775547357109152,-0.0989999999999327,-0.1201800000000048,0.1557055952751468,0.1891000000000531,-0.1138300000000072,0.2207171921260818,0.0764599999999973,0.0087599999999952,0.0769601793137172,0.0783199999999624,0.0161699999999882,0.0799718156602295,-0.392029999999977,-0.2587800000000015,0.4697388735244112,-0.232719999999972,-0.1952899999999999,0.3038038553079716,0.1611999999998943,0.1315999999999917,0.2080961316314259,-0.1062000000001717,0.1497899999999958,0.183617766297369,-0.2435600000000022,-0.2315899999999828,0.3360883837623566,-0.3150200000000041,-0.1585399999999595,0.3526649004366464,-0.0956500000000062,-0.1005849999999952,166.08328625,0.0501251780337778,119.144532,0.1704027356103736,99.84218725,0.1449948650478718,0.01498437,0.066078625,0.0103773682357538,0,0
4,133.33333333333334,552.3911,100.287964,0.95316005,557.0898,96.79765,0.96432894,551.0598,97.15588,0.6483022,569.0211,98.83592,0.9542154,553.8397,99.049225,0.19649985,577.1268,119.17146,0.99782926,560.42993,119.8911,0.9512308,576.148,147.88391,0.99531245,556.3047,146.1737,0.7240069,551.7447,166.13051,0.9878109,546.95593,163.66661,0.73754495,575.0382,167.27286,0.9935355,564.5485,164.8634,0.96894485,535.18463,179.69624,0.9812524,529.12946,178.86916,0.90996206,541.5165,224.65836,0.91649306,541.5172,221.11716,0.79418623,0.98219286,-0.46279601,0.86368937,0.0675525,128.73828767354402,160.79870911308598,99.29753119734556,95.23342200912955,1.2494993653452489,166.06813,119.53128,100.287964,47.99734000000001,127.86070999999998,0.3753877139006369,177.5320624978787,0.863212694117647,0.0409400000000914,0.3092500000000058,0.3119481464923475,-0.0616199999998343,0.2366860000000059,0.2445757285504479,0.0459999999999354,0.276290000000003,0.2800931346891525,-0.0724000000001297,0.2137600000000077,0.2256880537379461,-0.028599999999983,0.323520000000002,0.3247816965286073,-0.0720000000000027,0.2507700000000028,0.2609015003789779,0.0352599999999938,0.1972939999999994,0.2004200340185565,-0.0563800000001037,0.1077939999999983,0.121648061373831,-0.1780599999999594,0.3074050000000028,0.355250893911595,-0.0512899999998808,0.1761549999999943,0.1834700196898277,0.1119999999999663,0.1575599999999895,0.1933110281385652,-0.12600000000009,0.0006499999999789,0.1260016765762371,-0.1624699999999848,0.2096650000000011,0.2652468908865767,0.1131699999999682,0.053520000000006,0.1251872169991547,-0.0670000000000072,0.2933799999999849,0.3009332557229129,-0.1392400000000861,-0.0088400000000206,0.1395203325684983,-0.3093000000000074,0.1682999999999879,0.3521240974429335,0.0439000000000078,-0.1372700000000293,0.1441189192993367,-0.1334000000000514,0.1583699999999908,0.2070666967428872,-0.0044000000000323,0.1272400000000004,0.127316053975924,-0.1541700000000219,-0.0963900000000137,0.1818224986078714,-0.0272099999999682,-0.3661800000000141,0.3671895648027169,0.3736999999999852,0.0207699999999988,0.3742767464056362,0.1149000000000342,0.091889999999978,0.1471250559898069,0.1862999999999601,0.0491000000000099,0.1926616204644457,0.2852999999998928,0.1692800000000147,0.3317405739428686,-0.0145700000000488,-0.0589200000000005,0.0606947386517273,-0.0910300000000461,-0.0676799999999957,0.1134329903511664,-0.0489400000000159,-0.0260399999999947,0.0554364970033396,0.343089999999961,0.2327400000000068,0.4145825077110423,0.0249000000000023,0.036689999999993,0.044341471558797,-0.1362999999998919,-0.0949099999999987,0.1660891269769647,0.0969999999999799,0.0793500000000051,0.125321277124026,0.3405599999999822,0.310939999999988,0.4611559358828426,0.0349349999999901,0.1305849999999964,166.08025500000002,0.0439356630483835,119.2218816,0.2273601159579735,99.9313426,0.2356077573761145,-0.00687807,0.0663734,0.0090112035893353,0,0
5,166.66666666666666,552.0477,100.49161,0.94885534,556.7886,96.90324,0.96104115,550.9915,97.52543,0.63954526,569.3294,98.73813,0.9521949,554.27075,99.215515,0.20029727,577.333,118.73184,0.99773705,560.55707,119.438,0.952785,576.0686,148.26808,0.99489164,556.4989,146.61748,0.72863406,551.3873,164.98949,0.98583543,546.34436,163.74095,0.72662765,574.87494,167.1279,0.9937262,564.2461,164.80142,0.97102416,534.1681,179.1065,0.9813704,527.7653,178.8459,0.9144905,543.11694,224.20636,0.91413575,543.19403,221.69019,0.79461306,0.99818033,-0.45567229,0.88506052,0.07344799,126.56861392698733,157.82336241074228,95.17429845852872,91.25130489554373,0.7522872411044204,165.96466,119.08492,100.49161,49.567699999999945,127.30312,0.3893675159778679,177.58963489014857,0.8622238129411764,-0.3434000000000878,0.203645999999992,0.3992433509979309,-0.3843400000001793,-0.1056040000000138,0.3985842952452351,-0.3011999999999943,0.1055899999999923,0.3191718786171409,-0.3471999999999298,-0.1707000000000107,0.3868931764711739,-0.068300000000022,0.3695500000000038,0.375808584920576,-0.0397000000000389,0.0460300000000017,0.0607852852259759,0.3082999999999174,-0.0977900000000033,0.3234374345989495,0.2730399999999235,-0.2950840000000028,0.4020266267997182,0.4310500000000274,0.1662899999999894,0.4620134917943632,0.6091099999999869,-0.1411150000000134,0.6252427011369168,0.206199999999967,-0.4396199999999908,0.4855761365635448,0.0942000000000007,-0.5971799999999803,0.6045639688237934,0.1271399999999403,-0.453099999999992,0.4705998189544675,0.2896099999999251,-0.6627649999999932,0.7232782295389151,-0.0794000000000778,0.3841700000000116,0.3922893688338002,-0.0124000000000705,0.0907900000000268,0.0916328767419566,0.1942000000000234,0.4437800000000038,0.484411321502721,0.5035000000000309,0.2754800000000159,0.573935083785649,-0.3573999999999842,-1.1410199999999977,1.1956844903234227,-0.2239999999999327,-1.2993899999999885,1.3185561694899233,-0.6115699999999151,0.0743400000000065,0.6160716683145697,-0.4573999999998932,0.1707300000000202,0.4882248384708721,-0.1632599999999229,-0.1449599999999975,0.2183282601954545,-0.5369599999999082,-0.1657299999999963,0.5619541569380017,-0.3024000000000342,-0.0619800000000054,0.3086863787082633,-0.4886999999999943,-0.1110800000000153,0.5011650989444476,-1.0165299999999888,-0.5897399999999777,1.1752133884958726,-1.00195999999994,-0.5308199999999772,1.1338843477179916,-1.3641599999999698,-0.0232599999999933,1.3643582862283343,-1.315219999999954,0.0027800000000013,1.315222938060266,1.6004400000000487,-0.4519999999999982,1.6630430522389232,1.5755400000000463,-0.4886899999999912,1.6495891026859195,1.6768299999999954,0.5730299999999886,1.7720390034646447,1.5798300000000154,0.4936799999999834,1.655168502388815,-0.1034699999999873,-0.1384049999999774,166.063748,0.0682425914110867,119.250738,0.1885918526491081,100.1013966,0.277150815558614,0.00589549,0.065980368,0.008549379120063,0,0
6,200.0,551.9242,100.6712,0.94954604,556.66003,97.085434,0.961474,550.8204,97.70125,0.64473647,569.10583,98.85794,0.952273,553.9959,99.32353,0.20338704,577.1637,118.72568,0.99772054,560.3932,119.47545,0.9532143,576.00916,148.18253,0.9948251,556.4687,146.58542,0.7304405,551.4286,165.10785,0.98566794,546.27277,163.75925,0.72766423,575.12665,167.17804,0.99360484,564.49854,164.87605,0.9707323,534.1675,179.09903,0.98090404,527.73785,178.85345,0.9131117,543.046,224.11328,0.91223854,543.17786,221.59518,0.79148906,0.98672055,-0.47065666,0.86368937,0.0783609,126.79446618278024,157.53986644199358,95.06975464720844,90.95641370594922,1.2625100777478426,166.027045,119.100565,100.6712,49.42584999999997,127.027846,0.3890946053742056,177.4401437460943,0.8625311552941177,-0.1234999999999217,0.1795900000000045,0.2179560003761821,0.219900000000166,-0.0240559999999874,0.2212118919409,-0.1285699999999678,0.1821940000000097,0.222990803702743,0.1726300000000264,0.0766040000000174,0.1888631507626932,-0.171100000000024,0.1758200000000016,0.2453321878596626,-0.102800000000002,-0.1937300000000021,0.2193151907643455,-0.2235699999999951,0.119810000000001,0.2536493268274097,-0.5318699999999126,0.2176000000000044,0.5746611670366364,-0.2748500000000149,0.1080150000000088,0.2953129911213019,-0.7059000000000424,-0.0582749999999805,0.7083013381499836,-0.1693000000000211,-0.0061600000000083,0.1694120290888673,-0.3754999999999882,0.4334599999999824,0.5734874206118002,-0.1638699999999744,0.0374499999999926,0.1680948523899261,-0.2910099999999147,0.4905499999999847,0.570373669272991,-0.059439999999995,-0.0855499999999835,0.1041725304482741,0.0199600000000828,-0.4697199999999952,0.4701438928668529,-0.0302000000000361,-0.0320600000000013,0.0440441097083624,-0.2244000000000596,-0.4758400000000051,0.5260979619804963,0.0412999999999783,0.118360000000024,0.1253586040126639,0.3986999999999625,1.2593800000000217,1.3209843581208764,-0.0715900000000147,0.0183000000000106,0.0738919352839164,0.5399799999999004,-0.0560399999999958,0.5428801727820717,0.2517100000000027,0.0501399999999989,0.2566553013284574,0.4149699999999257,0.1950999999999965,0.4585456475640533,0.2524400000000923,0.0746299999999848,0.2632405563359195,0.5548400000001266,0.1366099999999903,0.5714102884094211,-0.000599999999963,-0.007470000000012,0.0074940576459042,1.0159300000000258,0.5822699999999656,1.170962047975942,-0.0274500000000443,0.007550000000009,0.0284693695048305,1.3367099999999257,0.0308100000000024,1.3370650246715008,-0.0709399999999504,-0.0930799999999862,0.1170314914883614,-1.6713799999999992,0.3589200000000119,1.709483743941429,-0.0161699999999882,-0.095010000000002,0.0963761848176198,-1.6929999999999836,-0.6680399999999906,1.8200347363717904,0.0623849999999777,0.165854999999965,166.044375,0.0601649471245513,119.2511145,0.1882139033320826,100.2671276,0.3269511585402508,0.0049129099999999,0.070647632,0.0073603506884502,0,0
7,233.3333333333333,551.75085,100.731995,0.95227355,556.47156,97.10795,0.9628273,550.3328,97.80965,0.66707665,568.586,98.83827,0.9518176,552.9214,99.55934,0.21760114,576.7347,118.55186,0.99768233,559.4822,119.68148,0.95516646,576.0889,148.09041,0.9945846,555.9555,146.99757,0.7377744,551.3689,164.82454,0.98514473,546.0505,163.83192,0.73283726,575.23206,166.61542,0.99332917,564.3047,164.51932,0.970391,534.24365,178.79831,0.9800718,527.884,178.82903,0.911945,542.85767,224.05997,0.9089712,543.31415,221.80553,0.78778213,0.98651398,-0.45444406,0.87130437,0.08671284,125.34837366700935,156.88487736488673,95.77796338480724,91.69987502640232,2.046645848674173,165.56736999999998,119.11667,100.731995,48.85069999999996,126.95202,0.384796552392025,176.25386432635352,0.8651339011764706,-0.1733500000000276,0.0607949999999988,0.1837015365341548,-0.0498500000001058,-0.1187950000000057,0.1288304099388491,-0.1884700000000521,0.0225159999999959,0.1898101977134512,-0.0599000000000842,-0.1596780000000137,0.1705434656737527,-0.4875999999999294,0.1084000000000031,0.4995040740573913,-0.3164999999999054,-0.0674199999999984,0.323601153273501,-0.5198299999999563,-0.0196700000000049,0.520202016335918,-0.2962599999999611,-0.139480000000006,0.327451764386724,-1.0745000000000573,0.2358100000000007,1.1000711822878206,-0.7996500000000424,0.1277949999999919,0.8097973107667533,-0.4289999999999736,-0.1738199999999921,0.4628762171466305,-0.2596999999999525,-0.1676599999999837,0.3091180447660244,-0.9109999999999444,0.2060299999999983,0.9340071524886188,-0.7471299999999701,0.1685800000000057,0.7659128235641164,0.0797400000000152,-0.0921200000000226,0.121838261642255,0.1391800000000103,-0.006570000000039,0.1393349823267774,-0.5131999999999834,0.4121499999999969,0.6582111078521696,-0.4829999999999472,0.4442099999999982,0.6562099695219111,-0.059699999999907,-0.2833100000000002,0.2895317704501338,-0.1009999999998854,-0.4016700000000242,0.4141736216853944,-0.2222699999999804,0.072669999999988,0.2338479886592774,-0.1506799999999657,0.0543699999999773,0.1601891360235993,0.1054100000000062,-0.5626200000000097,0.5724094098632658,-0.1462999999999965,-0.6127600000000086,0.6299829423087656,-0.1938400000000228,-0.3567299999999989,0.4059929044946574,-0.4462800000001152,-0.4313599999999837,0.6206748649656185,0.0761499999999841,-0.3007200000000125,0.3102117678296636,0.0767499999999472,-0.2932500000000004,0.3031272422597351,0.1461500000000342,-0.0244200000000205,0.148176107723246,0.1736000000000785,-0.0319700000000295,0.1765192366288421,-0.1883300000000645,-0.0533100000000104,0.1957297754559213,-0.117390000000114,0.0397699999999758,0.123943797747305,0.1362900000000309,0.2103500000000053,0.2506433454133795,0.1524600000000191,0.3053600000000074,0.3413045285372146,-0.4596750000000043,-0.522059999999982,165.93207999999998,0.2072601248733131,119.2362205,0.1968928137210659,100.4322966,0.3069939410474105,0.00835194,0.07610096,0.0070820891494424,0,0
8,266.6666666666667,552.30304,101.381195,0.97091955,556.21747,97.37262,0.98048246,550.13135,98.01597,0.7144445,567.0688,99.270615,0.95965815,550.4375,100.82362,0.10473594,576.8327,119.25134,0.99341655,559.39624,118.79318,0.970565,575.13086,150.12866,0.987485,558.5997,146.9247,0.7135614,549.0569,164.30203,0.9813493,546.65314,163.74165,0.77439964,578.4207,167.96458,0.9777445,565.6954,165.26039,0.9502828,530.9643,180.93567,0.957878,525.1966,177.94734,0.85523313,544.0381,225.63249,0.9015054,543.5205,221.4838,0.76737344,0.98048004,-0.4254579,0.87965632,0.08081735,121.6824984374982,146.23235794684632,88.98289363008658,84.56850877568674,4.737025812450372,166.612485,119.02226,101.381195,53.22410000000002,128.25986999999998,0.4149707900454697,-178.49484382370136,0.8565314564705883,0.552189999999996,0.6492000000000075,0.8522760328086232,0.7255400000000236,0.5884050000000087,0.9341459926719402,-0.2540899999999055,0.2646699999999953,0.3668949945147106,-0.0656199999998534,0.2421539999999993,0.2508875128737587,-0.2014500000000225,0.2063199999999909,0.2883574949606917,0.2861499999999068,0.0979199999999878,0.302440322873694,-1.5172000000000023,0.4323450000000122,1.5775988206844662,-0.9973700000000464,0.4520150000000171,1.0950180259361522,-2.4838999999999487,1.2642799999999994,2.7871424664698687,-1.4093999999998914,1.0284699999999989,1.7447518164196567,0.09800000000007,0.6994799999999941,0.7063117374077862,0.5270000000000437,0.8732999999999862,1.019991122510398,-0.08596,-0.8882999999999868,0.8924494448426625,0.8250399999999445,-1.0943299999999851,1.3704923022402846,-0.9580399999999828,2.038250000000005,2.2521775471973755,-1.037779999999998,2.130370000000028,2.3696969564271533,2.6441999999999557,-0.0728699999999946,2.6452039008174326,3.1573999999999387,-0.4850199999999915,3.19443565601181,-2.312000000000012,-0.5225100000000111,2.3703081445457816,-2.2523000000001048,-0.2392000000000109,2.2649662094610767,0.6026399999999512,-0.0902700000000038,0.6093633091185766,0.8249099999999316,-0.1629399999999918,0.8408483523798358,3.188639999999964,1.349160000000012,3.462319707248278,3.0832299999999577,1.9117800000000216,3.627838199437762,1.3906999999999243,0.7410700000000077,1.5758271589548776,1.5845399999999472,1.0978000000000063,1.9276752453667727,-3.279350000000022,2.137360000000001,3.914389376658912,-3.3555000000000064,2.4380800000000136,4.147723994722902,-2.687400000000025,-0.8816899999999919,2.828338030734679,-2.8335500000000597,-0.8572699999999713,2.9603914361787167,1.1804300000000012,1.5725199999999973,1.9662741760242883,1.3687600000000657,1.6258300000000077,2.1252828344717334,0.2063499999999294,-0.3217300000000023,0.3822178899528021,0.0700599999998985,-0.5320800000000077,0.5366726469646035,1.0451150000000098,1.504790000000014,166.047938,0.3733089797439963,119.171139,0.2044796896515597,100.7127928,0.4117831731588104,-0.00589549,0.077378316,0.0072787342135999,0,0
9,300.0,551.8559,101.68379,0.97087675,555.7616,97.61233,0.98054916,549.5053,98.31706,0.7165111,566.50574,99.26522,0.9594246,549.5245,100.98628,0.10528935,576.17316,118.945435,0.993396,558.64496,118.74167,0.9699756,574.7492,149.54184,0.987473,558.0557,146.71904,0.70912486,549.4789,164.28734,0.98128533,546.7554,163.61244,0.7711934,578.0629,168.13893,0.9776258,565.32117,165.60156,0.94960445,531.1794,180.64203,0.9575656,525.53345,177.79381,0.85384893,543.7367,225.54272,0.90097374,543.51746,221.55469,0.76605916,1.00247191,-0.46132214,0.88825391,0.05600716,122.92866402645971,147.42730806493404,89.30774594474747,84.69602095989838,5.0961156636204,166.870245,118.8435525,101.68379,52.52945,127.93039,0.4106096259801159,-179.3339676270132,0.8559280488235294,-0.4471399999999903,0.3025949999999966,0.5399054673042211,-0.9993299999999864,-0.3466050000000109,1.0577312867288082,-0.4558700000000044,0.2397100000000023,0.5150517847750895,-0.2017800000000988,-0.0249599999999929,0.2033179037862616,-0.6260499999999638,0.3010900000000021,0.6946897081431075,-0.4245999999999412,0.0947700000000111,0.4350477133602154,-0.5630600000000641,-0.0053950000000071,0.5630858456976806,0.9541399999999384,-0.4377400000000193,1.0497616144629691,-0.9130000000000108,0.1626599999999882,0.9273765554509216,1.5708999999999378,-1.1016200000000111,1.9186697043524268,-0.6595399999999927,-0.3059049999999956,0.7270288031604991,-0.7575400000000627,-1.0053849999999898,1.2588351162185911,-0.7512800000000652,-0.0515100000000074,0.7530437693123148,-0.6653200000000652,0.8367899999999793,1.0690501421823264,-0.3816600000000107,-0.5868199999999888,0.7000157626796665,0.5763799999999719,-2.625069999999994,2.6876023532695337,-0.5439999999999827,-0.2056599999999946,0.5815771965955844,-3.188199999999938,-0.1327899999999999,3.190964184082861,0.4219999999999118,-0.0146900000000016,0.4222556051728924,2.733999999999924,0.5078200000000095,2.7807619733446427,0.1022600000000011,-0.1292100000000005,0.1647796458911123,-0.5003799999999501,-0.0389399999999966,0.5018928849863782,-0.3577999999999974,0.1743499999999755,0.3980185454221821,-3.5464399999999614,-1.1748100000000363,3.7359624208093702,-0.3742299999998977,0.3411700000000053,0.5064040499442387,-1.764929999999822,-0.3999000000000023,1.809667901826016,0.2151000000000067,-0.2936399999999821,0.3639951367806888,3.494450000000029,-2.430999999999983,4.256869953674897,0.3368500000000267,-0.1535299999999893,0.3701883080271643,3.024250000000052,0.7281600000000026,3.1106759792849394,-0.3013999999999441,-0.0897699999999872,0.3144846783230687,-1.4818299999999454,-1.6622899999999845,2.226887557331934,-0.0030399999999417,0.0708899999999914,0.0709551527374752,-0.2093899999998711,0.3926199999999937,0.4449658823999219,0.2577600000000188,-0.7873549999999909,166.208361,0.5254859104129324,119.0335935,0.1120996500551981,100.991958,0.5125796366005595,-0.0248101899999999,0.0750692479999999,0.011677334462285,0,0
10,333.3333333333333,549.5694,101.7699,0.95337915,553.93134,98.05545,0.96146905,547.46295,98.91341,0.67308027,565.2364,99.69818,0.9478247,549.29803,101.260635,0.21997787,575.18225,119.30295,0.9974809,557.29004,121.85634,0.95593405,575.99475,146.99799,0.99436486,554.9296,147.61913,0.758704,552.2925,165.58542,0.986126,546.89417,163.09024,0.7649289,576.22955,167.22964,0.99296016,564.9796,165.60777,0.9704972,535.5841,178.764,0.9799254,529.3908,178.70654,0.9153536,540.5771,224.2605,0.91373897,541.0264,221.10638,0.8028716,0.99334068,-0.46402424,0.87670857,0.05281377,126.42330398642922,157.7883484168322,99.58002823410683,94.86093280605968,5.443819911022067,166.418705,120.579645,101.7699,46.838750000000005,126.20505,0.3711321347986302,171.87818274320733,0.8699186282352942,-2.2865000000000464,0.086110000000005,2.2881208845033107,-1.839360000000056,-0.2164849999999916,1.8520558751898395,-1.8302600000000664,0.4431199999999933,1.8831375419762195,-1.3743900000000622,0.203409999999991,1.3893608243362008,-2.042350000000056,0.596350000000001,2.1276340956565414,-1.416300000000092,0.2952599999999989,1.446749514463461,-1.2693399999999428,0.4329599999999942,1.3411481637760423,-0.7062799999998788,0.4383550000000014,0.8312560041436272,-0.2264699999999493,0.2743549999999999,0.3557517771213195,0.6865300000000616,0.1116950000000116,0.695556765422555,-0.990910000000099,0.3575149999999922,1.053432296507559,-0.3313700000001063,0.6634199999999879,0.7415741185478727,-1.3549199999999928,3.114670000000004,3.396612638394317,-0.6036399999999276,3.1661800000000118,3.223209121667408,1.2455499999999802,-2.5438500000000204,2.83241374537691,1.627209999999991,-1.957030000000032,2.5451480909762587,-3.1260999999999517,0.9000900000000058,3.253100554563247,-2.5820999999999685,1.1057500000000005,2.808900758748845,2.813600000000065,1.2980799999999988,3.098605597103375,2.391600000000153,1.3127700000000004,2.7282074028381222,0.1387700000000222,-0.522199999999998,0.5403239333029809,0.0365100000000211,-0.3929899999999975,0.3946823028715622,-1.833349999999996,-0.9092899999999986,2.046455600935428,-1.4755499999999984,-1.0836399999999742,1.8307166498669143,-0.341570000000047,0.0062099999999816,0.3416264465758351,0.0326599999998507,-0.3349600000000237,0.3365484767459304,4.404700000000048,-1.8780299999999956,4.7883586719146685,4.189600000000041,-1.5843900000000133,4.479178477366177,3.8573499999999967,0.912729999999982,3.963864916391569,3.52049999999997,1.0662599999999711,3.678427739891016,-3.159600000000069,-1.2822199999999953,3.4098622095915285,-2.8582000000001244,-1.192450000000008,3.096973400354083,-2.4910600000000613,-0.4483099999999922,2.531079172941909,-2.48802000000012,-0.5191999999999837,2.5416160529081844,-0.4515400000000227,-0.7093000000000416,166.29917,0.5118996036089593,119.3325385,0.7055256182618391,101.247616,0.5193727237905187,-0.0031933899999999,0.070942404,0.0154350589331602,0,0
11,366.6666666666666,548.5521,103.27556,0.951884,552.05505,99.40584,0.96820307,546.46564,100.05722,0.61749905,562.4109,100.290726,0.94350356,547.4257,101.96663,0.08371039,574.33704,118.56763,0.9891857,556.18365,118.974976,0.94859666,575.9554,147.70067,0.9828783,556.97174,147.3446,0.64248365,552.16437,161.11519,0.9754993,548.1757,164.15765,0.72320014,577.4112,166.81685,0.97285175,564.59814,164.66829,0.93747216,532.9049,178.69127,0.9614274,527.35406,176.12106,0.86785346,542.4813,224.96956,0.9137093,542.5847,221.14209,0.7954395,0.96835451,-0.4632873,0.84845935,0.05649845,116.23683075909253,150.7916700750198,93.24746978571169,88.40225829499964,6.972343726671132,165.74257,118.771303,103.27556,50.05714,125.56372,0.3986592592298216,178.7145491514365,0.8397292582352941,-1.0172999999999774,1.5056599999999918,1.8171162113634696,1.269200000000069,1.4195499999999868,1.9042034666758008,-1.8762899999999263,1.3503900000000044,2.3117130696087123,-0.0460299999998596,0.9072700000000112,0.9084369068900752,-0.9973099999999704,1.143810000000002,1.5175402967301874,1.0450400000000857,0.547460000000001,1.1797546580540292,-2.8255000000000337,0.5925460000000129,2.8869639783198204,-1.5561600000000908,0.1595860000000186,1.564321462166996,-1.8723300000000336,0.7059950000000015,2.0010118862528348,-1.6458600000000845,0.4316400000000016,1.7015193884291413,-0.8452099999999518,-0.7353200000000015,1.1203014980352033,0.1457000000001471,-1.0928349999999938,1.1025047969170154,-1.106390000000033,-2.881364000000005,3.0864797638403694,0.2485299999999597,-5.996034000000009,6.001182457654165,-0.0393499999998994,0.7026800000000151,0.7037809353058758,-1.2848999999998796,3.2465300000000354,3.4915505224613206,2.042139999999904,-0.2745299999999986,2.060510252461658,5.168239999999855,-1.1746200000000044,5.300041211349069,-0.1281300000000556,-4.470229999999987,4.472065915189521,-2.9417300000001205,-5.768309999999985,6.475119740128405,1.2815299999999752,1.0674099999999953,1.6678378964995149,1.142759999999953,1.5896099999999933,1.95774369356662,1.1816499999999903,-0.4127900000000011,1.251675799318649,3.0149999999999864,0.4964999999999975,3.0556075091542625,-0.381460000000061,-0.9394799999999748,1.0139696257778137,-0.0398900000000139,-0.9456899999999564,0.9465309230024758,-2.679200000000037,-0.072730000000007,2.680186988420808,-7.083900000000085,1.8052999999999884,7.310317865866104,-2.036740000000009,-2.58547999999999,3.2913548362338547,-5.894090000000006,-3.498209999999972,6.854033128910296,1.90420000000006,0.7090599999999938,2.031931033180068,5.063800000000128,1.991279999999989,5.4412559651611,1.558300000000031,0.0357099999999945,1.558709111444498,4.049360000000092,0.4840199999999868,4.0781848621661005,-0.6761349999999879,-0.2245949999999652,166.24227499999998,0.5629678401005761,119.2666861,0.7467523821395213,101.768488,0.9357824753956536,0.0036846799999999,0.066569914,0.0158978344227454,0,0
12,400.0,545.85535,103.965996,0.9463335,549.8046,100.03656,0.95153457,544.18176,100.91086,0.6635384,560.3867,100.983536,0.9355764,547.03644,102.45012,0.26013002,572.60974,118.27469,0.9957604,555.61865,122.20531,0.9600529,577.5089,143.9511,0.9892055,555.3604,147.52638,0.77947754,553.2273,164.61899,0.9779766,546.50616,164.3864,0.7832499,577.81384,167.07582,0.9889471,566.73145,165.95923,0.9653156,536.8105,178.41196,0.97610056,529.08905,179.1565,0.92432225,540.8855,221.88324,0.9135112,541.5885,220.29366,0.8359869,0.95960397,-0.46500682,0.8374053,0.05797232,119.6011793132893,152.8775962500938,100.09919559950268,92.41914840536396,9.998174239750991,166.51752499999998,120.24,103.965996,48.72478999999999,121.84668,0.3998860666545359,166.97465404513585,0.8733540788235294,-2.696749999999952,0.6904360000000054,2.7837317458037774,-1.6794499999999744,-0.8152239999999864,1.866853629151437,-2.2504500000000007,0.6307199999999966,2.337163434785852,-0.3741600000000744,-0.7196700000000078,0.8111230575566613,-2.2838799999999537,0.8536399999999986,2.438197921416509,-1.2865699999999831,-0.2901700000000033,1.3188862702295292,-2.0241999999999507,0.6928099999999944,2.139479220768408,0.801300000000083,0.1002639999999814,0.8075484875201793,-0.3892600000000357,0.4834900000000033,0.6207140466430827,1.483069999999998,-0.2225049999999981,1.4996683299733289,-1.7273000000000138,-0.2929399999999873,1.751964364249467,-0.882090000000062,0.4423800000000142,0.9868043537095496,-0.5649999999999409,3.230333999999999,3.279372310603956,0.5413900000000922,6.111698000000004,6.13563000638925,1.5534999999999854,-3.7495700000000056,4.058649705862776,1.5928499999998849,-4.452250000000021,4.72860457058949,-1.6113399999999274,0.1817799999999749,1.6215611502498932,-3.6534799999998313,0.4563099999999735,3.6818656855592575,1.0629300000000512,3.503799999999984,3.661479840843043,1.1910600000001068,7.974029999999971,8.062492069112364,-1.6695399999999836,0.2287500000000193,1.6851380875465232,-2.951069999999959,-0.838659999999976,3.067925152362703,0.4026400000000194,0.258970000000005,0.4787321072374593,-0.7790099999999711,0.6717600000000061,1.0286486658232554,2.1333100000000518,1.2909399999999778,2.493499075536256,2.5147700000001123,2.230419999999953,3.361374946253445,3.9056000000000495,-0.2793100000000095,3.915574726154565,6.584800000000087,-0.2065800000000024,6.58803964289842,1.734990000000039,3.035439999999994,3.496296082098897,3.771730000000048,5.620919999999984,6.769098081672341,-1.5958000000000538,-3.0863200000000006,3.474471007563623,-3.5000000000001137,-3.7953799999999935,5.162839271602473,-0.9962000000000444,-0.8484300000000076,1.308528908698658,-2.5545000000000755,-0.8841400000000021,2.7031784605535,0.7749549999999772,1.4510899999999651,166.43230599999998,0.4205466842753529,119.4913521,0.8519121933653468,102.4152882,1.1364117368328046,0.00147387,0.06082181,0.0113351468242078,0,0
13,433.33333333333337,543.8329,105.38248,0.9460492,547.63165,101.40443,0.95256656,542.32574,102.18483,0.6505935,558.26056,101.66849,0.93838274,545.6117,103.023285,0.24411717,571.4452,118.48035,0.99607617,554.3396,122.23894,0.9587082,576.87146,144.37798,0.99029493,553.2111,147.47961,0.77456707,552.20416,165.2342,0.9798323,543.54126,163.59183,0.78245926,577.48834,167.69583,0.9897466,566.4144,166.40918,0.96620977,537.58405,178.36938,0.9777634,529.30365,178.5712,0.92638195,540.68317,222.14116,0.9187952,540.4784,219.69519,0.8417689,0.99096211,-0.46721763,0.87105873,0.07050024,118.38070789650943,151.58965188715217,100.92496372835978,92.94303539249296,10.97966445600699,167.052505,120.359645,105.38248,48.184690000000046,120.73673,0.3990889069209605,167.60741304398312,0.8726066423529412,-2.022450000000049,1.416483999999997,2.469155913415795,0.6742999999999029,0.7260479999999916,0.9908714287453528,-2.1729500000000144,1.3678700000000106,2.5676409483025644,0.0774999999999863,0.737150000000014,0.7412127714091403,-1.8560200000000575,1.2739700000000056,2.25117964660758,0.427859999999896,0.420330000000007,0.5997845350623145,-2.126139999999964,0.6849540000000047,2.2337487060356307,-0.1019400000000132,-0.0078559999999896,0.1022422629640137,-1.4247399999999288,0.573165000000003,1.5357090169771097,-1.0354799999998932,0.0896749999999997,1.0393557793290893,-1.164539999999988,0.2056599999999946,1.182560546948853,0.5627600000000257,0.4985999999999819,0.7518648665817621,-1.2790499999999838,0.0336300000000022,1.2794920396000746,-0.7140500000000429,-3.196703999999997,3.275482234132257,-0.6374400000000833,0.4268800000000112,0.7671742227161414,-2.1909400000000687,4.176450000000017,4.716243493088588,-2.1493000000000397,-0.0467699999999808,2.149808810778337,-0.5379600000001119,-0.2285499999999558,0.5844964192363373,-1.0231400000000122,0.6152099999999905,1.1938587871687392,-2.086070000000064,-2.8885899999999936,3.563094193674962,-2.964900000000057,-0.7945700000000215,3.069523333499905,-1.2953600000000731,-1.0233200000000409,1.6508002156530854,-0.3255000000000336,0.6200100000000077,0.7002589878752229,-0.7281400000000531,0.3610400000000027,0.8127347299088917,-0.3170499999999947,0.4499500000000012,0.5504322892054914,-2.450360000000046,-0.8409899999999766,2.590661751309921,0.7735500000000002,-0.0425799999999867,0.77472102004528,-3.1320500000000493,0.2367300000000227,3.14098365092853,0.2145999999999048,-0.5852999999999895,0.623401355468487,-1.520390000000134,-3.620739999999984,3.927001897083867,-0.2023299999999608,0.2579200000000128,0.3278111579857994,1.393470000000093,3.344240000000013,3.622940769388916,-1.1100999999999883,-0.5984699999999918,1.2611456501530522,-0.1138999999999441,0.2499600000000157,0.2746874798748482,0.5349800000000187,-0.2399749999999585,166.52031000000002,0.5051972045894433,119.7588291,0.8773800452314299,103.2155452,1.557124645291892,0.01252792,0.0587583879999999,0.0068283242770148,0,0
14,466.6666666666667,540.8566,107.07288,0.92695624,544.0786,102.950096,0.93655974,539.5715,103.94559,0.5540438,554.51794,102.182236,0.9317463,543.91394,104.09851,0.19840749,570.02856,117.821976,0.9959066,553.34875,122.16174,0.9526951,577.21985,143.8415,0.99124384,552.67566,147.76308,0.77160156,551.1393,164.68452,0.9818034,542.86414,163.91104,0.78551996,577.8479,168.12341,0.9907719,567.21106,166.96243,0.9683338,537.37946,178.14914,0.9797355,529.8445,178.46042,0.93033093,539.9915,222.39246,0.923683,540.2485,219.70477,0.8478939,0.99286544,-0.45935697,0.87695422,0.0756588,113.18134047425788,150.22311165542865,100.535702154312,92.94589254874036,12.842952057196204,167.54292,119.991858,107.07288,48.00339999999994,120.210224,0.3993287592631986,165.4160885156164,0.8627784152941177,-2.976300000000037,1.6903999999999968,3.422837105384977,-0.9538499999999884,0.2739159999999998,0.992401026579466,-3.5530499999999847,1.545665999999997,3.874693237671324,-1.3800999999999704,0.1777959999999865,1.3915054536781066,-2.7542399999999816,1.7607599999999906,3.268962183201247,-0.8982199999999239,0.4867899999999849,1.0216475285047424,-3.7426200000001018,0.5137459999999976,3.77771616415484,-1.6164800000001378,-0.1712080000000071,1.6255213839456089,-1.6977600000000166,1.0752250000000032,2.009601407798338,-0.2730200000000877,0.5020600000000002,0.5714929255905519,-1.4166400000000294,-0.6583739999999949,1.5621540300098695,-0.2521000000000413,-0.8640339999999895,0.9000606441546052,-0.9908500000000232,-0.0772000000000048,0.9938528877555504,0.2881999999999607,-0.110830000000007,0.3087758554355876,0.3483899999999948,-0.5364800000000116,0.6396767797098851,0.985830000000078,-0.9633600000000228,1.3783770451150867,-0.5354399999999941,0.2834699999999941,0.6058475340380535,1.6138600000000451,0.330239999999975,1.647301598736591,-1.0648599999999533,-0.5496799999999951,1.1983634348560104,-0.0417199999999411,-1.1648899999999855,1.165636851896834,-0.6771199999999453,0.3192100000000266,0.7485896863435556,2.287780000000112,1.1137800000000482,2.5444927228822287,0.3595599999999876,0.427580000000006,0.5586663136434811,0.6850600000000213,-0.1924300000000016,0.7115732629181832,0.7966599999999744,0.5532500000000198,0.9699240785236652,1.1137099999999691,0.1033000000000186,1.1184904354083387,-0.2045900000000529,-0.2202400000000182,0.3006039349377011,-0.9781400000000532,-0.1776600000000314,0.994143317233544,0.5408500000000913,-0.1107800000000054,0.5520787361419565,0.3262500000001864,0.474519999999984,0.5758544025186458,-0.6916700000000446,0.2512999999999863,0.7359069770698297,-0.4893400000000838,-0.0066200000000264,0.4893847770416264,-0.2298999999999296,0.0095799999999997,0.2300995141237104,0.8802000000000589,0.6080499999999915,1.0698022445761148,0.4904150000000129,-0.0445650000000057,166.654845,0.6807487126043515,119.9884902,0.7127469895662172,104.2933632,2.026255672715431,0.0051585599999999,0.062688716,0.0098402404575818,0,0
15,500.0,538.83624,109.19943,0.9363397,541.985,105.08082,0.94753116,537.43835,105.91824,0.5721841,552.129,103.78299,0.9426596,541.90173,105.30935,0.20191424,567.105,118.79945,0.9966736,553.20703,122.70592,0.9548494,574.00836,143.87218,0.99281114,552.5731,147.08237,0.7681217,549.39984,164.52611,0.98431826,541.20325,163.07016,0.7861169,578.7438,168.85724,0.9919521,569.8534,167.73586,0.97023815,537.2204,177.98218,0.9823344,530.7792,178.67776,0.9342682,539.8851,222.05678,0.9322309,539.9937,219.70117,0.857895,1.01655177,-0.46402424,0.90078183,0.08155429,114.61272597175956,146.07083681770595,98.93415666895834,92.98435339053772,16.56584696546456,168.29655,120.752685,109.19943,47.96460000000002,118.27379,0.4055387046822573,164.30027961576786,0.8677905029411765,-2.0203599999999824,2.126550000000009,2.933269410078107,0.9559400000000552,0.436150000000012,1.0507369347748825,-2.0936000000000377,2.1307240000000007,2.987163491370394,1.459449999999947,0.5850580000000036,1.572350840577207,-2.1331500000000005,1.9726500000000016,2.905456409068979,0.621089999999981,0.211890000000011,0.6562394076859307,-2.388939999999934,1.600753999999995,2.87566473917174,1.3536800000001676,1.0870079999999973,1.736097904631086,-2.012209999999982,1.2108399999999904,2.3484298136627166,-0.3144499999999652,0.1356149999999871,0.3424474130796941,-2.923559999999952,0.9774739999999866,3.0826382360367384,-1.5069199999999228,1.6358479999999815,2.224141759309353,-0.1417199999999638,0.5441800000000114,0.5623312465086767,0.8491300000000592,0.6213800000000163,1.05220476205923,-3.2114899999999125,0.0306799999999896,3.211636542714545,-3.559879999999908,0.5671600000000012,3.6047768419139823,-0.1025600000000395,-0.6807100000000048,0.6883928077050302,0.4328799999999546,-0.9641799999999988,1.0568955325858649,-1.7394600000000082,-0.1584100000000035,1.7466581862803123,-0.6746000000000549,0.3912699999999915,0.779857277263005,-1.6608899999999949,-0.8408800000000269,1.8616215422314035,-0.9837700000000495,-1.1600900000000536,1.5210562846259903,0.8958999999999833,0.7338299999999833,1.158077406264342,0.5363399999999956,0.3062499999999772,0.6176161090029804,2.64233999999999,0.7734299999999905,2.7532080634234557,1.845680000000016,0.2201799999999707,1.858766767187332,-0.159059999999954,-0.1669599999999889,0.2305986235864855,0.0455300000000988,0.0532800000000293,0.0700838019802873,0.934699999999907,0.2173400000000072,0.9596357463120208,0.3938499999998157,0.3281200000000126,0.5126212606787424,-0.1064000000000078,-0.3356799999999964,0.3521392088365044,0.5852700000000368,-0.5869799999999827,0.8289068061609959,-0.2548000000000456,-0.0036000000000058,0.2548254304421427,-0.024900000000116,-0.0131800000000055,0.0281730793490155,0.7536299999999869,0.263214999999974,167.030414,0.9731197353704562,120.0230982,0.7517603027240181,105.7792692,2.402336879216481,0.00589549,0.06843682,0.0109603051385967,0,0
16,533.3333333333334,536.6668,109.85688,0.9436882,539.43365,105.97046,0.96650165,534.4667,106.73168,0.49625036,549.8454,104.96868,0.9562243,536.799,106.981445,0.05179508,565.4253,119.970184,0.99011505,549.9298,120.79968,0.9371804,569.4505,147.63051,0.98412883,552.8901,146.46977,0.57960975,548.0759,162.5286,0.9732555,541.5473,160.81013,0.6705524,576.9258,167.38217,0.97186005,566.477,165.71535,0.9284203,533.7852,179.15106,0.9535889,531.6226,177.01125,0.8318145,539.15967,225.29471,0.8800229,541.1069,221.20483,0.7151219,0.9873528,-0.45837439,0.87179567,0.06878072,116.59677962633472,135.0787002946346,98.61570932354414,95.84448191737314,16.897966207093408,166.54876000000002,120.384932,109.85688,45.30319999999995,120.32603,0.376503734258466,176.9358007034567,0.8135370629411764,-2.1694400000000087,0.6574499999999972,2.2668723863729148,-0.1490800000000263,-1.4691000000000116,1.4766447292426306,-2.5513500000000704,0.88964,2.702007800155351,-0.4577500000000327,-1.2410840000000007,1.3228093428593677,-2.971650000000068,0.8134399999999999,3.080971982362125,-0.8385000000000673,-1.1592100000000016,1.4306816816119916,-2.2835999999999785,1.185690000000008,2.5730700993365727,0.1053399999999555,-0.4150639999999868,0.4282226520117539,-5.102730000000065,1.6720949999999988,5.369707174690782,-3.090520000000083,0.4612550000000084,3.1247511973636435,-1.6797000000000253,1.1707340000000102,2.04743991090242,1.243859999999927,0.1932600000000235,1.2587839875053333,-3.2772300000000314,-1.906240000000011,3.791304183325343,-3.1355100000000675,-2.4504200000000225,3.9794448276738974,-4.557860000000005,3.758330000000001,5.9075487444878565,-1.3463700000000929,3.7276500000000112,3.96334286927088,0.3170000000000073,-0.6125999999999863,0.6897592043604693,0.4195600000000468,0.0681100000000185,0.4250524270017073,-1.3239399999999932,-1.997509999999977,2.396427199749638,0.415520000000015,-1.839099999999973,1.8854563586569475,0.3440499999999247,-2.2600300000000004,2.2860678037625983,2.00493999999992,-1.4191499999999737,2.456373572179037,-1.817999999999984,-1.475069999999988,2.3411440589805457,-2.713899999999967,-2.2088999999999714,3.4992131144015355,-3.3763999999999896,-2.0205100000000016,3.934785587563818,-6.01873999999998,-2.793939999999992,6.635610892088211,-3.435200000000009,1.1688800000000017,3.6286195025656887,-3.276140000000055,1.3358399999999904,3.538016648519384,0.8434000000000879,-1.6665100000000166,1.8677738460799271,-0.0912999999998191,-1.883850000000024,1.88606111048928,-0.7254299999999603,3.2379300000000057,3.3181982113490416,-0.6190299999999525,3.573610000000002,3.626828721210854,1.1132000000000062,1.5036599999999964,1.8708841855122949,1.3680000000000518,1.5072600000000025,2.035499129845097,-1.7477899999999806,-2.501419999999968,167.19165199999998,0.7468781730693836,120.345824,0.2755662248707277,107.0955332,2.489000071042926,-0.0127735699999999,0.0708932739999999,0.0087740514103679,0,0
17,566.6666666666666,534.1811,111.89993,0.93830645,536.98016,107.63482,0.94867057,532.1715,108.58824,0.5876852,546.71124,105.44559,0.9419913,536.03906,107.31942,0.2125517,562.5727,120.01599,0.99656004,549.53186,122.67241,0.95650005,569.13074,146.98334,0.99244326,549.1011,146.65343,0.77883273,545.0488,166.65918,0.98373866,537.7053,163.5812,0.79628795,579.462,166.32849,0.99166495,571.04425,164.8447,0.9707638,536.8697,177.0061,0.9823611,530.9585,176.62935,0.93703383,540.8428,221.64688,0.9339685,539.8323,217.49202,0.8654253,0.97718747,-0.43823146,0.86835663,0.09383656,115.58197315802757,147.08056813503802,98.9876171898784,94.13039652277249,23.460460001667183,165.586595,121.3442,111.89993,48.50350000000003,116.20129,0.4174093039981804,168.4863688046047,0.871457964117647,-2.485699999999952,2.043049999999994,3.2175701690094862,-0.3162599999999429,1.3855999999999966,1.4212345857035544,-2.453489999999988,1.664360000000002,2.9647440681616937,0.0978600000000824,0.7747200000000021,0.780876211700689,-2.295199999999909,1.8565600000000015,2.9520769084831766,0.676450000000159,1.0431200000000018,1.2432553787940026,-3.1341600000000653,0.4769099999999895,3.170236908134848,-0.8505600000000868,-0.7087800000000186,1.1071681904752204,-0.7599400000000287,0.3379750000000001,0.8317066214868339,4.342790000000036,-1.3341199999999986,4.543093787112513,-2.8525999999999385,0.0458059999999989,2.852967744233301,-1.1728999999999132,-1.1249280000000113,1.625163811799851,-0.3979399999999486,1.872730000000004,1.914542738227584,2.8792900000000827,3.7789700000000153,4.750886776697651,-0.3197600000000875,-0.6471699999999885,0.7218555717732191,4.238099999999918,-4.405499999999989,6.113094295035797,-3.7889999999999873,0.1836599999999748,3.7934485624033294,-4.1059999999999945,0.7962599999999611,4.18249518679937,-3.0271000000000186,4.130579999999981,5.121037545888524,-1.703160000000025,6.128089999999958,6.360364850674808,-3.841999999999985,2.771070000000009,4.7370658581974485,-4.186049999999909,5.031100000000009,6.544843910476348,2.536200000000008,-1.0536800000000142,2.746370692823544,4.354199999999992,0.4213899999999739,4.374543081522904,4.567250000000058,-0.8706500000000119,4.64949502473124,7.943650000000048,1.1498599999999897,8.026440888843618,3.0844999999999345,-2.144959999999997,3.756992633955993,6.519699999999943,-3.313839999999999,7.313550685925357,-0.6641000000000759,-0.3819000000000017,0.7660785991007072,-1.5075000000001637,1.284610000000015,1.9806006922397383,1.6831300000000056,-3.647829999999999,4.017410895813374,2.408559999999966,-6.885760000000005,7.294851064360389,-1.274599999999964,-3.7128099999999904,3.925501656616621,-2.38779999999997,-5.216469999999987,5.736998178568625,-0.9621650000000272,0.7856249999999534,167.00546599999998,1.0222209460006513,120.566664,0.5112365811339312,108.68232,2.5238487076785416,0.0250558399999999,0.078066122,0.0101258393560642,0,0
18,600.0,530.351,112.715614,0.8918514,531.9081,109.1052,0.9300118,528.3942,109.990524,0.34174672,540.3324,107.69319,0.93032515,531.9876,109.53281,0.04511024,557.7836,120.60347,0.9878829,545.31287,121.72858,0.9261655,566.2783,147.80244,0.98430043,549.6241,148.11725,0.6024548,545.91626,163.37358,0.97199684,537.9513,162.22084,0.679855,575.72363,165.92249,0.9753794,567.12244,164.80792,0.9379233,532.40045,178.83046,0.9565678,530.78644,177.32364,0.84430826,539.5862,224.01201,0.8743199,541.0263,220.732,0.7079269,1.02923906,-0.46525246,0.91404668,0.0859759,110.061184830182,131.10854645439633,97.55448484622757,95.73277173065624,24.21175795337024,165.365205,121.166025,112.715614,47.32943,116.31882,0.4068939969740581,174.84472852742124,0.7993015494117647,-3.830100000000016,0.8156840000000045,3.915993666728296,-1.3444000000000642,-1.2273659999999893,1.8203951927963733,-5.072059999999965,1.4703799999999916,5.280891022166583,-2.618569999999977,-0.1939800000000104,2.6257450533705446,-3.777300000000082,1.4022839999999943,4.029192934901059,-1.4821000000001732,-0.4542760000000072,1.5501571191903485,-6.378839999999968,2.2476000000000056,6.763231883175352,-3.244679999999903,1.770690000000016,3.6963889647194095,-4.051459999999906,2.213390000000004,4.616646339465398,-3.2915199999998777,1.875415000000004,3.788309033411109,-4.789100000000076,0.5874799999999993,4.824998607295211,-1.9365000000001371,0.5416740000000004,2.0108314131912035,-4.218990000000076,-0.9438300000000056,4.323273260967974,-3.821050000000128,-2.8165600000000097,4.746939365117384,-2.8524400000000014,0.8190999999999917,2.967716085409788,-2.532679999999914,1.4662699999999802,2.9265022971628616,0.5230000000000246,1.4638200000000268,1.554444592901305,4.312000000000012,1.280160000000052,4.498016632428145,0.8674599999999373,-3.285599999999988,3.398183957881005,3.894559999999956,-7.416179999999969,8.376593781842306,0.2459999999999809,-1.3603599999999858,1.382423715653038,4.087999999999965,-4.131429999999995,5.8120958220679455,-3.738370000000032,-0.4059999999999775,3.7603518793990833,-6.27457000000004,0.6476800000000367,6.307909167648226,-3.9218100000000495,-0.0367799999999931,3.921982463563599,-8.489060000000109,0.8338700000000188,8.529916697160756,-4.469249999999988,1.8243599999999844,4.827264750570435,-7.553749999999923,3.969319999999982,8.53314949622346,-0.1720599999999876,0.6942900000000236,0.7152924211118336,0.4920400000000882,1.0761900000000253,1.1833377699119303,-1.2566000000000486,2.365129999999993,2.6782239407674804,-2.939730000000054,6.0129599999999925,6.69310842841353,1.19399999999996,3.2399800000000027,3.4529851433795544,2.468599999999924,6.952789999999993,7.378026480306202,-0.2213899999999853,0.7407750000000419,166.66800600000002,1.25484957986703,120.72794,0.554927555775988,110.1489468,2.241807017198847,-0.00786066,0.081161254,0.0095858397877222,0,0
19,633.3333333333333,527.9785,116.12947,0.9255004,529.89655,111.65619,0.94308394,525.5336,113.250244,0.5284514,538.4749,108.425,0.94199747,529.6718,111.77809,0.18874621,555.0874,120.78874,0.99632436,546.39026,125.69656,0.94236064,564.4159,145.04033,0.9926352,548.9258,148.48671,0.72671497,543.64343,166.49187,0.9835278,537.5413,165.6233,0.75811553,577.74176,166.27267,0.9905055,572.1793,166.26457,0.963183,534.4033,176.26987,0.97993684,531.5976,178.4653,0.9210415,541.24493,220.79865,0.92615354,540.40497,218.37492,0.8406061,0.9912485,-0.44879422,0.88137584,0.06583298,114.8818852471775,140.05398364450988,94.25470692567517,94.28846740767202,29.37757057858193,166.26862,123.24265,116.12947,52.20816000000002,112.37365,0.4645943202468345,150.56384340213955,0.8558167294117647,-2.372499999999945,3.413855999999996,4.157303096808761,1.4576000000000704,2.598171999999991,2.9791098505399494,-2.011549999999943,2.5509899999999988,3.2486740960890126,3.060510000000022,1.0806100000000072,3.245680118588421,-2.8605999999999767,3.259720000000001,4.336912131736113,0.9167000000001052,1.857436000000007,2.071329858833744,-1.857499999999959,0.7318099999999959,1.9964598984452055,4.521340000000009,-1.5157900000000095,4.76866173257237,-2.315800000000081,2.245280000000008,3.225556063440909,1.7356599999998252,0.0318900000000041,1.7359529393677104,-2.696199999999976,0.1852700000000027,2.7025579388608625,2.0929000000001,-0.4022099999999966,2.13119761967313,1.0773900000000367,3.9679800000000114,4.111646202252836,5.296380000000113,4.911810000000017,7.223400762833346,-1.86239999999998,-2.7621099999999785,3.3313338788088784,0.9900400000000218,-3.5812099999999703,3.715540911590105,-0.6983000000000175,0.3694599999999752,0.790014924922312,-1.221300000000042,-1.0943600000000515,1.6398772818720966,-2.272829999999999,3.118290000000002,3.858690028105394,-3.1402899999999363,6.40388999999999,7.132406916055721,-0.4099999999999681,3.4024599999999907,3.4270736863393982,-0.6559999999999491,4.7628199999999765,4.807784349614665,2.018130000000042,0.3501799999999946,2.048285802640873,5.756500000000074,0.7561799999999721,5.80595387876969,5.056860000000029,1.4566499999999962,5.262476820100996,8.97867000000008,1.4934299999999894,9.102024397561314,2.0028499999999667,-2.5605899999999906,3.2508505457187384,6.472099999999955,-4.384949999999975,7.817663647951298,0.8111600000000863,1.1416600000000017,1.4004885223378818,0.983220000000074,0.447369999999978,1.080213629473414,1.6587299999999914,-3.2133599999999944,3.616222850226453,2.91533000000004,-5.578489999999988,6.294338701484064,-0.6213299999999435,-2.3570799999999963,2.4375965817378216,-1.8153299999999035,-5.597059999999999,5.884089024861847,0.9034149999999954,1.1248049999999807,166.413146,1.1584317463676712,121.3780984,1.106819578404864,111.9602648,2.7387452013424225,-0.0201429199999999,0.07919609,0.0117571566907777,0,0
20,666.6666666666666,523.9587,119.16905,0.90325296,525.45435,115.07035,0.92957044,522.1229,116.107315,0.43430427,533.723,111.30787,0.9408982,527.7474,113.34541,0.15841225,551.27704,122.33568,0.9963888,544.9139,125.66499,0.9325077,563.1064,146.10919,0.9935743,548.648,148.31735,0.70676297,543.35815,166.76291,0.98494625,535.75525,166.2452,0.7456648,575.8256,167.33693,0.9907612,572.0097,166.69145,0.961118,535.10895,178.88887,0.9785711,533.29987,179.70917,0.9103127,540.5946,221.64978,0.9163434,540.83154,217.69328,0.8152725,0.9935683,-0.45395277,0.87867374,0.09506479,109.82958752552972,134.9176633659363,98.52910545514888,97.37186078596298,30.97733831970517,167.01419,124.000335,119.16905,53.70270000000005,110.34191,0.4866935828218531,152.38062157614175,0.8410977552941177,-4.019800000000032,3.039580000000001,5.039626833050267,-1.6473000000000866,-0.3742759999999947,1.689283816940268,-4.442200000000071,3.4141600000000096,5.602644852710253,-2.430650000000128,0.8631700000000109,2.5793646255232394,-3.41070000000002,2.857071000000005,4.449239169682965,-0.5501000000000431,-0.4026489999999967,0.6817156498137951,-4.751900000000092,2.882869999999997,5.558011609100943,-2.8944000000001324,2.151060000000001,3.6061905778259655,-1.9243999999999917,1.5673199999999952,2.4818959169151213,0.3914000000000897,-0.677960000000013,0.7828305829488829,-3.810359999999946,1.5469399999999922,4.112404004131837,-1.1141599999999698,1.3616699999999895,1.7594026527489108,-1.4763599999999997,-0.031570000000002,1.4766975027066305,-2.5537500000000364,-3.9995500000000135,4.7453176147651375,-1.3094999999999573,1.0688600000000008,1.69034077913298,0.5529000000000224,3.8309699999999793,3.870662675938045,-0.2777999999999565,-0.1693599999999833,0.3253546520337003,0.4205000000000609,-0.5388199999999586,0.6834817059731786,-0.2852799999999433,0.2710399999999993,0.3935064929578256,1.987550000000056,-2.8472500000000025,3.472346118260712,-1.786049999999932,0.6219000000000108,1.8912255847729456,-1.3760499999999638,-2.78055999999998,3.1024228461155627,-1.9161599999999908,1.0642599999999902,2.191875565172426,-3.9342900000000327,0.7140799999999956,3.99856825007405,-0.1696000000000594,0.4268800000000112,0.4593372338489769,-5.226460000000088,-1.029769999999985,5.326941935529323,0.7056500000001051,2.619,2.712398002229788,-1.2971999999998616,5.17958999999999,5.339558072359504,1.7022699999999986,1.243869999999987,2.10830162211197,0.8911099999999124,0.1022099999999852,0.8969525718787147,-0.6503299999999399,0.8511299999999835,1.07114489486712,-2.3090599999999317,4.064489999999978,4.674594853428424,0.4265699999999697,-0.6816400000000158,0.804111344591031,1.0478999999999132,1.6754399999999805,1.9761562700352808,0.7455699999999865,-0.1578450000000089,166.15667399999998,0.6806265996803516,122.0276284,1.5228045736027092,113.9541888,3.6901426730369606,0.0292318099999999,0.08189819,0.0138082470303619,0,0
21,700.0,521.5351,120.921646,0.9194166,523.0876,116.72739,0.94006395,519.1166,117.9059,0.5142394,530.9727,112.28325,0.9399401,523.51276,114.57727,0.19200014,547.2361,123.07646,0.99607855,541.8334,126.268555,0.93492395,559.4273,148.07515,0.9921674,547.7097,149.45132,0.70224816,542.57324,167.83784,0.98184204,536.55597,167.49213,0.73596144,573.9739,167.47311,0.9892988,570.59454,167.29301,0.9578197,533.5385,178.89786,0.97670764,532.231,181.21259,0.9082909,540.8301,220.88129,0.9159516,540.54065,219.19348,0.81945145,0.99139557,-0.44609212,0.88113019,0.08646719,113.54445253649324,134.04997883033514,95.9245444691344,97.6014685509242,33.01218416215369,167.38306,124.6725075,120.921646,54.85730000000001,108.59804,0.5051407879447845,149.42399242038806,0.8480236364705883,-2.423599999999965,1.752595999999997,2.990891121257312,1.5962000000000671,-1.286984000000004,2.05041026535087,-2.366750000000025,1.657039999999995,2.889167202517033,2.075450000000046,-1.757120000000015,2.7193681981115105,-3.00630000000001,1.7985850000000028,3.503248163094512,0.4044000000000096,-1.058486000000002,1.1331072200793764,-2.7502999999999247,0.9753800000000012,2.918135746396933,2.001600000000167,-1.907489999999996,2.764944965112443,-4.234640000000013,1.2318599999999975,4.410176299106432,-2.3102400000000216,-0.3354599999999976,2.334468305460603,-4.040940000000092,0.7407800000000009,4.108278361065708,-0.2305800000001454,-0.8061599999999913,0.8384873773647717,-3.080500000000029,0.6035650000000032,3.139071671565526,-1.6041400000000294,0.6351350000000053,1.725300439872749,-3.679100000000062,1.9659599999999957,4.171423681622431,-2.369600000000105,0.8970999999999947,2.5337309584879937,-0.9383000000000266,1.133970000000005,1.4718338394329915,-0.66050000000007,1.3033299999999883,1.4611397396895556,-0.784909999999968,1.0749299999999948,1.3309989530423902,-0.4996300000000246,0.8038899999999956,0.9465037078638506,0.8007199999999557,1.246929999999992,1.4818862788014162,2.586769999999888,0.6250299999999811,2.6612105391718623,-1.8517000000000507,0.1361799999999959,1.8567008058381904,0.06445999999994,-0.9280799999999942,0.9303158485159658,-1.4151599999999007,0.6015600000000063,1.537710069941576,-1.2455599999998412,0.174679999999995,1.2577491069365156,-1.5704500000000507,0.0089900000000113,1.570475731299328,-2.276100000000156,-2.6100099999999884,3.463059833456628,-1.0688700000000608,1.5034200000000055,1.8446557330028133,-2.7711400000000594,0.2595500000000186,2.78326842077805,0.2355000000000018,-0.7684899999999857,0.8037643498563363,0.8858299999999417,-1.6196199999999692,1.846040014002892,-0.2908899999999903,1.5002000000000066,1.5281416924159927,-0.71745999999996,2.1818400000000224,2.296774833805012,0.3688700000000153,-0.3766999999999711,166.32353400000002,0.8752271368578838,122.8851435,1.5728960816710922,116.16714199999998,3.9287505295512735,-0.0085975999999999,0.085435484,0.0117144808014793,0,0
22,733.3333333333333,516.7553,121.63197,0.88201636,517.8933,117.67461,0.9053951,514.9191,118.77017,0.41925558,525.5482,113.63246,0.91940993,520.3481,115.651085,0.16718476,543.43756,124.37482,0.9949536,537.764,126.95508,0.9310604,556.07794,149.50272,0.99095637,543.8712,149.88864,0.72845614,541.375,169.80875,0.9795221,535.8226,168.0493,0.7523966,572.3292,168.26678,0.989963,568.8153,167.98984,0.9641697,533.05707,181.07184,0.9781375,531.6192,182.62073,0.92180634,541.03357,221.5683,0.9220393,540.4084,218.9814,0.8412401,0.99809829,-0.44314437,0.8914473,0.07172847,117.38861756334354,141.18583272298514,96.91627466123956,97.8829084358277,35.21519311142275,168.12831,125.66495,121.63197,57.41010000000006,107.93584,0.5318909777151786,155.54458765541543,0.8404684047058824,-4.779800000000023,0.710324,4.832292232985938,-2.356200000000058,-1.042271999999997,2.57643345770549,-5.194299999999998,0.9472200000000016,5.279960058409531,-2.827549999999974,-0.7098199999999935,2.915284451798802,-4.197499999999991,0.8642699999999905,4.2855535095130834,-1.1911999999999807,-0.9343150000000122,1.51390288962832,-5.42450000000008,1.3492099999999994,5.589773508300749,-2.674200000000156,0.3738299999999981,2.700202679226289,-3.1646599999999125,1.0738149999999962,3.341878449289327,1.0699800000001003,-0.1580450000000013,1.0815893039528524,-3.7985400000000022,1.2983600000000024,4.014305023438058,0.2424000000000887,0.5575800000000015,0.607991131843257,-4.069399999999973,0.686524999999989,4.126903552983128,-0.9888999999999442,0.0829599999999857,0.992373705616935,-3.3493599999999333,1.427570000000003,3.640902156677595,0.3297400000001289,-0.5383899999999926,0.631341634695572,-3.8384999999999536,0.4373199999999997,3.863331597520415,-2.900199999999927,-0.6966500000000053,2.98269697798814,-1.1982400000000553,1.9709100000000035,2.3065700348569838,-0.4133300000000872,0.8959800000000087,0.9867227823963972,-0.7333700000000363,0.5571699999999851,0.9210157250557868,-1.534089999999992,-0.6897600000000068,1.6820228850107792,-1.6446999999999434,0.7936700000000201,1.8261845905876672,0.2070000000001073,0.6574900000000241,0.6893055201433368,-1.7792400000000723,0.6968299999999772,1.9108288846728865,-0.3640800000001718,0.0952699999999708,0.3763384371813748,-0.4814300000000457,2.17398,2.226648576964952,1.089020000000005,2.164989999999989,2.423457501277867,-0.6118000000000166,1.408140000000003,1.5353037157513914,0.4570700000000443,-0.0952800000000024,0.466895345125694,0.2034700000000384,0.6870099999999866,0.7165073488806638,-0.0320299999999633,1.4554999999999725,1.4558523863702382,-0.1322499999999991,-0.212079999999986,0.2499359696002035,0.1586399999999912,-1.7122799999999927,1.7196131681282196,0.7452499999999986,0.3763799999999833,166.83187700000002,1.05902838212438,123.7492935,1.6966915990903513,118.11355,3.689615467705219,-0.0147387199999999,0.081013866,0.0119212716178027,0,0
23,766.6666666666667,513.15564,122.60651,0.90639573,514.219,118.52171,0.9298535,510.84613,119.857574,0.47686383,521.83826,114.507706,0.9347725,515.8242,117.167404,0.18122464,539.47906,125.22989,0.9957353,535.3392,128.62679,0.93302536,551.59265,148.84277,0.99169606,541.49927,150.41565,0.7078672,540.0743,170.43138,0.980309,534.2051,168.12239,0.7350186,572.4929,167.11594,0.98964256,570.048,167.37062,0.9606886,531.2574,181.00505,0.97749126,532.10376,182.72229,0.9137094,540.64154,222.03703,0.91934234,541.5828,218.32341,0.82931817,0.995387,-0.46009391,0.88039326,0.06337652,124.76019702696937,141.8246516550796,95.73259564361906,97.118026929249,40.02756937175726,167.24328,126.92834,122.60651,61.64676999999995,107.529324,0.573301934146801,140.62992349486942,0.8448796500000001,-3.5996600000000853,0.9745400000000046,3.729246616570245,1.1801399999999376,0.2642160000000046,1.209355412712018,-3.674299999999903,0.8470999999999975,3.770684142168273,1.5200000000000955,-0.1001200000000039,1.523293804359583,-4.072969999999941,1.0874040000000065,4.215629499863043,0.1245300000000497,0.2231340000000159,0.2555318040010274,-3.709939999999961,0.8752460000000042,3.811785718546586,1.7145600000001195,-0.4739639999999951,1.7788642069861336,-4.523900000000026,1.51631900000001,4.771257121531103,-1.3592400000001137,0.4425040000000138,1.429455549367073,-3.958499999999958,0.8550699999999978,4.049798384475413,-0.1599599999999554,-0.4432900000000046,0.4712676794561556,-2.4248000000000047,1.6717100000000045,2.9452112596722224,1.6445999999999683,0.9851850000000156,1.9171068421517168,-4.485289999999964,-0.6599500000000091,4.533581408401054,-1.1359300000000303,-2.087520000000012,2.376568264388826,-2.3719300000000203,0.52700999999999,2.429771895672531,1.466569999999933,0.0896899999999902,1.4693099948614663,-1.3007000000000062,0.6226299999999867,1.4420432056287356,-0.1024599999999509,-1.3482800000000168,1.352167522905367,-1.61749999999995,0.0730900000000076,1.6191505174318537,-0.8841299999999137,-0.4840799999999774,1.0079778287739396,0.1636999999999489,-1.1508400000000163,1.162424361238193,1.8083999999998923,-1.9445100000000368,2.6554528239266,1.2327000000000226,-0.6192199999999843,1.3794863893493243,3.011940000000095,-1.3160499999999615,3.2869089074844275,-1.799669999999992,-0.0667899999999974,1.800908940785172,-1.318239999999946,-2.2407699999999977,2.599770545740498,0.4845599999999876,0.1015599999999778,0.4950887063951101,1.0963600000000042,-1.3065800000000252,1.7056249722609231,-0.3920300000000907,0.4687299999999936,0.6110608265959006,-0.5955000000001291,-0.2182799999999929,0.6342447543339643,1.1743999999999917,-0.6579900000000123,1.346167225904715,1.3066499999999903,-0.4459100000000262,1.3806411375154657,-0.8850300000000004,-1.630279999999999,167.207492,0.6706073717683202,124.9017565,1.441115471077864,120.0917292,2.5463729579079737,-0.0083519499999999,0.07649399,0.0137183696659934,0,0
24,800.0,509.99454,127.26361,0.8417768,510.14423,123.85245,0.8923357,508.4146,124.21428,0.30378106,516.4783,118.2909,0.92835516,514.97784,118.85942,0.1280781,535.1525,125.57817,0.995552,534.6455,126.406845,0.90353686,547.2694,148.8569,0.9929739,542.5805,149.12195,0.6390836,538.2174,170.75648,0.9815901,533.5296,168.38779,0.6811391,571.6286,164.65762,0.9906122,571.9199,163.50604,0.9577366,531.86127,184.10742,0.97980624,534.8694,180.73576,0.9087295,539.66425,224.72379,0.92501104,543.6116,213.40977,0.8265043,1.00868652,-0.44658341,0.90176441,0.06951766,130.04507398582754,135.58064054923418,105.18795677083249,99.96090355602374,44.07216084142975,164.08183000000002,125.9925075,127.26361,63.50529999999998,106.43289,0.5966698771717097,121.45913172910753,0.8162707211764705,-3.1610999999999763,4.6571,5.628599614468936,0.4385600000001091,3.682559999999995,3.708582347366721,-4.074770000000058,5.330740000000006,6.70973468182614,-0.4004700000001548,4.483640000000008,4.5014890725736745,-2.4315300000000093,4.356706000000003,4.9893111058878725,1.6414399999999318,3.269301999999996,3.658231928241258,-5.359960000000001,3.7831939999999946,6.560619486240302,-1.6500200000000405,2.9079479999999904,3.343460418653716,-0.8463600000000042,1.6920159999999953,1.891888842891144,3.677540000000022,0.1756969999999853,3.681734630226512,-4.326559999999972,0.3482800000000026,4.340555309174134,-0.368060000000014,-0.5067899999999952,0.626341973445821,-0.6937000000000353,-2.219944999999996,2.325806417788254,1.7310999999999694,-3.891655,4.259305794260949,-4.32325000000003,0.0141299999999944,4.323273091004113,0.1620399999999335,0.6740800000000036,0.6932826321205394,1.081230000000005,-1.2937000000000012,1.6860361807802389,3.4531600000000253,-1.8207099999999912,3.903754460733941,-1.856899999999996,0.3251000000000204,1.885143925539904,-0.5561999999999898,-0.2975299999999663,0.6307793123589015,-0.6755000000000564,0.2653999999999996,0.7257667738330793,0.9419999999998936,0.192309999999992,0.9614297353940102,-0.8642999999999574,-2.4583199999999863,2.605830330700727,-1.0279999999999063,-1.3074799999999698,1.663216146626688,1.8718999999999824,-3.8645799999999895,4.294064296956888,0.6391999999999598,-3.245360000000005,3.307708900371975,0.603870000000029,3.102369999999979,3.160594658256561,2.403540000000021,3.1691599999999767,3.977509225281565,2.765640000000076,-1.986529999999988,3.405152867420253,2.281080000000088,-2.0880899999999656,3.092482144572586,-0.9772899999999254,2.686760000000021,2.858981469282368,-0.5852599999998347,2.2180300000000277,2.293945585339793,2.028799999999933,-4.913639999999987,5.316002961774909,0.8543999999999414,-4.255649999999974,4.340570962730558,-3.1614499999999737,-2.276419999999973,166.77013399999998,1.5597058371147916,125.451728,1.1436799503704438,122.3185572,3.036388582533736,0.0061411399999999,0.077230926,0.013086933730631,0,0
25,833.3333333333334,505.7322,127.040955,0.8785776,506.01257,123.68553,0.9284653,504.41333,123.79474,0.36406562,513.14404,118.48692,0.9466872,510.46646,118.353134,0.12443511,532.1879,126.18222,0.997335,532.6658,126.46286,0.89790046,546.26556,148.9734,0.995455,542.6795,149.01402,0.5948977,537.0834,171.94269,0.9851576,533.5154,167.19745,0.6303961,571.1532,160.91321,0.99269193,571.8827,159.26855,0.9584421,531.19885,183.25372,0.9812056,535.941,178.0652,0.89431435,538.3968,225.01219,0.9193102,546.0054,211.04117,0.7872088,0.99622373,-0.45468971,0.88284971,0.07934348,126.50773599280129,129.30946056754263,109.43174962349993,100.63608968088094,49.178332048580224,160.09088,126.32254,127.040955,67.46937000000003,106.659056,0.6325704717228094,30.422982078649355,0.8162673923529412,-4.262339999999995,-0.2226550000000031,4.268151534871385,-1.1012400000000184,-4.879755000000003,5.002473228076795,-4.131660000000011,-0.1669200000000046,4.135030428183097,-0.056889999999953,-5.49766000000001,5.497954342089439,-4.001270000000034,-0.4195399999999978,4.023204621256576,-1.5697400000000243,-4.776246,5.027584859563892,-3.334259999999972,0.1960200000000043,3.3400170041483044,2.025700000000029,-3.5871739999999903,4.119621074355753,-4.511380000000031,-0.5062860000000029,4.539699881952141,-3.665020000000027,-2.198301999999998,4.273745814107829,-2.9646000000000186,0.6040500000000009,3.0255131073092563,1.3619599999999537,0.2557699999999983,1.3857681387951857,-1.97969999999998,0.0560150000000021,1.9804923050153265,-1.2859999999999443,2.2759599999999978,2.614151855114742,-1.0038399999999683,0.116500000000002,1.0105775554602114,3.3194100000000617,0.1023700000000076,3.3209881609244576,0.0989999999999327,-0.1079300000000103,0.146457792213282,-0.9822300000000724,1.1857699999999909,1.539748767104595,-1.1340000000000146,1.1862099999999884,1.6410515421826353,0.7228999999999814,0.8611099999999681,1.1243197241443017,-0.0141999999999598,-1.190339999999992,1.190424695476358,0.6613000000000966,-1.4557399999999916,1.5989048244345576,-0.475400000000036,-3.744410000000016,3.774468360988095,0.3888999999999214,-1.28609000000003,1.343603623878715,-0.0371999999999843,-4.237490000000008,4.237653282195238,-1.9090999999999667,-0.3729100000000187,1.9451798575195784,-0.6624199999999973,-0.8537000000000035,1.0805572388355935,-1.2662900000000263,-3.956069999999983,4.153791064678137,1.0715999999999894,-2.6705599999999947,2.8775366676377816,-1.6940400000000864,-0.684030000000007,1.8269287239792091,-1.2674500000000537,0.2883999999999957,1.2998477074258097,-0.2901600000001281,-2.398360000000025,2.415848404846669,2.393800000000056,-2.368600000000015,3.367572478804329,0.3650000000001228,2.545039999999972,2.571080240210318,-3.9909500000000255,-0.8295000000000528,165.385472,3.3427965682748217,125.916169,0.8374455209157461,123.8929382,3.0359055572165583,0.0098258199999999,0.074086664,0.0089729537986234,0,0
26,866.6666666666667,502.5952,127.28027,0.9042549,503.31616,123.66937,0.9356207,500.8804,124.18979,0.4602325,511.35764,118.26052,0.9383645,505.43887,119.07434,0.15008414,529.8213,126.14447,0.997184,527.1308,127.41792,0.92127055,544.2772,150.39488,0.9949822,536.3761,150.66566,0.6862113,535.5576,172.8482,0.98536795,530.83966,168.79214,0.7129722,568.235,158.92278,0.9939302,566.1276,158.31502,0.9708428,530.9468,182.03415,0.9854614,531.5526,181.03828,0.93004584,538.25775,223.72647,0.9378534,539.5041,216.97878,0.84605455,1.03903201,-0.48785184,0.91183587,0.10071463,127.97707310929732,141.32853458023155,111.8448232979638,110.83837314943013,50.56037598728655,158.6189,126.781195,127.28027,67.3546,105.46595,0.6386383412026504,154.67117377755167,0.8441607723529411,-3.1370000000000005,0.2393150000000048,3.1461151710045527,1.1253399999999942,0.461970000000008,1.2164729329089057,-2.6964099999999576,-0.0161599999999992,2.696458424248327,1.4352500000000532,0.1507600000000053,1.4431462642782102,-3.532929999999965,0.3950499999999977,3.5549485069969364,0.4683400000000688,0.8145899999999955,0.9396271727126972,-1.7864000000000146,-0.2263999999999981,1.8006892902441696,1.5478599999999574,-0.4224200000000024,1.604465405049255,-5.027589999999975,0.7212060000000093,5.079054961558869,-0.5162099999999441,1.2274920000000122,1.3316190799789451,-2.366600000000062,-0.0377500000000026,2.3669010588743027,0.5979999999999563,-0.6418000000000035,0.8772178976742051,-5.534999999999968,0.9550599999999888,5.616793088907551,-3.5552999999999884,0.8990449999999868,3.6672114749527194,-1.988360000000057,1.4214800000000023,2.444213754973209,-0.9845200000000888,1.3049800000000005,1.634702551169532,-6.3034000000000106,1.6516400000000149,6.516192619129685,-6.402399999999943,1.759570000000025,6.639790082894139,-1.5258000000000038,0.9055099999999924,1.7742643546270094,-0.3917999999999892,-0.2806999999999959,0.4819748229938876,-2.675740000000019,1.5946899999999855,3.11490300710954,-2.661540000000059,2.7850299999999777,3.8522963635343777,-2.918199999999956,-1.9904300000000037,3.532379201742044,-2.44279999999992,1.7539800000000128,3.0072774531791464,-5.75509999999997,-0.9535300000000008,5.833557702714499,-5.717899999999986,3.2839600000000075,6.593843620499343,-0.2520499999999401,-1.219569999999976,1.24534340139574,0.4103700000000572,-0.3658699999999726,0.5497857708235335,-4.388400000000047,2.9730799999999817,5.3006847903266525,-5.460000000000036,5.6436399999999765,7.852532868418962,-0.1390499999999974,-1.2857199999999978,1.293217236546124,1.128400000000056,-1.5741199999999935,1.936786083799681,-6.501300000000015,5.937610000000007,8.804664343522715,-8.89510000000007,8.306210000000021,12.17028876297114,-1.471980000000002,2.5189700000000244,163.63264,4.216965564828572,126.3379065,0.5285649112384071,125.164663,2.802940855609927,0.02137115,0.076936152,0.0144674534683775,0,0
27,900.0,499.74225,128.51718,0.90102243,500.31384,124.79512,0.93217504,497.90125,125.40364,0.4633955,508.177,119.04343,0.93315935,502.16147,120.13472,0.15323216,526.438,126.17317,0.99677354,524.91144,128.14949,0.9170808,541.4174,149.74823,0.9942303,535.3012,151.5392,0.68170846,535.3876,172.17802,0.9836891,530.0511,168.23878,0.71001446,567.1748,157.37376,0.99302495,565.6597,157.21976,0.96802115,531.0847,181.29803,0.9838483,531.7191,180.6955,0.9258393,538.4045,223.43051,0.93246394,539.1355,216.97397,0.8379979,1.07090351,-0.47335876,0.95998238,0.03463601,132.5213828133169,138.59672992101096,113.6847643712706,113.11672899901622,53.51132183043522,157.29676,127.16133,128.51718,69.27355,104.38708,0.6636218709861234,127.6834135250913,0.84162804,-2.8529499999999643,1.2369099999999946,3.1095449909270942,0.2840500000000361,0.9975949999999898,1.0372464444504017,-3.002319999999997,1.1257499999999965,3.206437032735865,-0.3059100000000399,1.1419099999999958,1.1821756959944725,-2.979150000000004,1.2138499999999937,3.216949882264256,0.5537799999999606,0.818799999999996,0.988486584835601,-3.1806399999999826,0.7829100000000011,3.275579166758131,-1.394239999999968,1.0093099999999993,1.7212239406015444,-3.2774,1.060379999999995,3.444670739620841,1.750189999999975,0.3391739999999856,1.7827518162593197,-3.383299999999963,0.0287000000000006,3.3834217265956883,-1.016699999999901,0.0664500000000032,1.0188692224715583,-2.2193600000000515,0.7315699999999907,2.3368255122067234,3.3156399999999167,-0.2234899999999982,3.3231636116356724,-2.85979999999995,-0.646649999999994,2.931997998379212,-0.8714399999998932,-2.0681299999999965,2.244230240082287,-1.074899999999957,0.8735399999999913,1.3850928277916583,5.228500000000054,-0.7781000000000233,5.286080954733913,-0.169999999999959,-0.6701799999999878,0.6914052591642399,1.3558000000000447,-1.5756899999999805,2.078699741689516,-0.7885599999999613,-0.5533599999999979,0.9633452980110176,1.8871800000000576,-2.148049999999984,2.8592948702259,-1.060200000000009,-1.5490199999999843,1.877095362628114,1.8579999999999472,0.4414100000000189,1.9097137974313905,-0.467899999999986,-1.095259999999996,1.1910184203445295,5.287199999999984,-0.1417299999999954,5.289099283706048,0.137899999999945,-0.7361199999999997,0.7489252729077744,0.3899499999998852,0.4834499999999764,0.6211158547323419,0.1665000000000418,-0.3427799999999763,0.381077916442291,4.554900000000089,-3.315859999999958,5.634007592256202,0.1467499999999972,-0.295960000000008,0.3303450984955035,0.2857999999999947,0.9897599999999898,1.0301973100333628,-0.3686000000000149,-0.0048099999999919,0.3686313824133954,6.1327,-5.942419999999999,8.539459277167376,-1.3221399999999903,0.1498400000000117,161.46633000000003,4.110931337446536,126.6371825,0.4729822010789248,126.541705,2.2750899330801,-0.06607862,0.06951766,0.0241051902246974,0,0
28,933.3333333333334,497.33554,128.81992,0.8730881,497.56763,125.247116,0.90719056,495.78586,125.90552,0.40514624,504.86346,119.82471,0.91548496,499.9369,121.079895,0.13923566,524.02405,126.48337,0.9962096,521.209,129.08069,0.9107167,540.5167,149.14246,0.9937894,531.83405,152.24019,0.69269395,534.1957,172.19286,0.98288697,528.43726,169.06569,0.719365,564.54596,156.98373,0.99338984,562.1744,157.19353,0.97088045,530.9515,181.62337,0.9848866,531.0074,181.29773,0.9335066,538.3893,223.17181,0.93704736,538.85895,217.04866,0.85192776,1.17442478,-0.74627085,0.88039326,-0.21739621,128.61564686237796,143.94176496438715,116.10863685197468,115.33141117532853,54.27282461395031,157.08863000000002,127.78203,128.81992,68.76010000000002,103.3471,0.6653316767927533,137.30366496086063,0.8357321029411766,-2.4067100000000323,0.30274,2.425676097853989,0.446239999999932,-0.9341699999999946,1.0352795402691628,-2.746210000000019,0.4519960000000083,2.7831582326767035,0.2561099999999783,-0.6737539999999882,0.7207890014532499,-2.1153899999999908,0.5018799999999999,2.174110941626476,0.8637600000000134,-0.7119699999999938,1.1193670615575635,-3.313540000000046,0.7812799999999953,3.4044009414286527,-0.1329000000000633,-0.0016300000000057,0.1329099954857303,-2.2245700000000284,0.945174999999992,2.417036918527541,1.0528299999999715,-0.1152050000000031,1.0591143474266322,-2.41395,0.3101999999999947,2.4337992198412746,0.9693499999999632,0.2814999999999941,1.0093966873830749,-3.702440000000024,0.9312000000000182,3.817747424018542,-1.4830799999999726,0.1996300000000275,1.4964552861011018,-0.9007000000000289,-0.6057700000000068,1.085457407225203,1.9590999999999208,0.0408799999999871,1.9595264694307373,-3.467149999999947,0.7009900000000187,3.5373035072777763,-2.39224999999999,-0.1725499999999726,2.398464835055945,-1.1919000000000324,0.0148399999999924,1.1919923806803787,-1.0219000000000733,0.6850199999999802,1.2302568879710134,-1.613839999999982,0.826909999999998,1.813355920303551,-0.8252800000000207,1.380269999999996,1.6081767164400878,-2.6288399999999683,-0.3900299999999959,2.657616064539765,-1.5686399999999594,1.1589899999999886,1.9503561904687683,-3.485300000000052,-0.0262299999999982,3.48539870070848,-3.017400000000066,1.069029999999998,3.2011760184189177,-0.133199999999988,0.3253399999999828,0.351551355565564,-0.271099999999933,1.0614599999999823,1.0955329943000012,-0.7117000000000644,0.6022299999999916,0.9323078155309444,-0.8782000000001062,0.945009999999968,1.2900694322787924,-0.0151999999999361,-0.2587000000000046,0.259146155672818,-0.1619499999999334,0.0372600000000034,0.166180955888389,-0.2765499999999292,0.0746900000000039,0.2864585460410658,0.0920500000000856,0.0794999999999959,0.12162833756989,-0.2081299999999828,1.1140100000000075,159.43540000000002,2.862112354005324,126.8079205,0.7026724762255623,127.784387,0.8196566273431333,-0.25203222,0.0133631139999999,0.1311863472304017,0,0
29,966.6666666666666,495.0383,129.15068,0.87012833,495.23843,125.47014,0.89806724,493.41653,126.40588,0.42446747,502.6598,120.29463,0.9005783,497.25256,122.08368,0.14992936,522.267,127.27588,0.9953885,518.22894,129.88002,0.9147998,539.83905,150.46207,0.9921828,528.44073,152.66817,0.71757925,532.7131,172.31918,0.9798319,525.95404,169.01659,0.7379762,562.3759,156.00172,0.9928716,559.07446,156.352,0.9724205,529.2769,179.88586,0.98497784,528.6266,180.46574,0.9417519,537.8789,222.23364,0.9409368,537.18713,217.8766,0.8703383,1.05711713,-0.543859,0.90569474,0.0378294,124.78548047197069,147.21323994839204,114.33197370428049,115.4893144138053,55.712338929837976,156.17686,128.57795,129.15068,68.95936999999998,101.93901,0.6764767415685441,147.18207939239085,0.8402485935294118,-2.297239999999988,0.3307599999999979,2.3209295110364603,0.1094700000000443,0.0280199999999979,0.1129991207930822,-2.3292000000000144,0.2230239999999952,2.339853060466846,0.4170100000000047,-0.228972000000013,0.4757368147242863,-2.369329999999991,0.5003600000000006,2.421587243627608,-0.25394,-0.0015199999999992,0.2539445490653422,-2.2036599999999567,0.4699200000000019,2.2532070925682377,1.1098800000000892,-0.3113599999999934,1.1527266215370382,-2.6843399999999638,1.0037850000000077,2.8658795441931644,-0.4597699999999349,0.0586100000000158,0.4634906525486161,-1.7570499999999356,0.7925100000000072,1.927510519452432,0.6569000000000642,0.4823100000000124,0.81494818614443,-2.9800599999999804,0.7993299999999977,3.0853988482042123,0.7223800000000438,-0.1318700000000205,0.7343177522708195,-0.6776499999999714,1.3196100000000115,1.4834352276388718,0.2230500000000574,1.9253800000000183,1.9382568062308196,-3.393320000000017,0.4279799999999909,3.4202028452710387,0.0738299999999299,-0.2730100000000277,0.282816776376517,-1.482599999999934,0.1263199999999926,1.4879716067182875,-0.2906999999999016,0.1114800000000002,0.3113427057117973,-2.483220000000074,-0.0490999999999814,2.483705372704332,-0.869380000000092,-0.8760099999999795,1.2341860088739154,-2.170060000000035,-0.9820100000000024,2.381911846332722,0.4587799999999333,-0.5919800000000066,0.748945531263754,-3.099939999999947,-0.8415300000000059,3.2121333634361573,0.3853600000001052,-0.8153000000000077,0.9017851293961848,-1.674600000000055,-1.737509999999986,2.413136166920577,-1.541400000000067,-2.062849999999969,2.575124090699336,-2.3807999999999083,-0.8319899999999905,2.521986518619707,-1.669099999999844,-1.434219999999982,2.200654861262762,-0.5104000000000042,-0.9381699999999852,1.0680220545007375,-0.495200000000068,-0.6794699999999807,0.8407749525884088,-1.6718200000000252,0.8279399999999839,1.8656009101627435,-1.395270000000096,0.75324999999998,1.5856115335731629,-0.9117700000000184,-0.7036400000000356,157.854406,1.5246154887642245,127.325009,0.8812204493655175,128.16180100000005,0.9448133662435926,0.25522561,0.0070254619999999,0.1285339135679999,0,0
30,1000.0,492.75964,129.64319,0.87709415,493.38837,125.99841,0.8980765,490.93195,126.6814,0.48401493,501.20062,120.45395,0.88687974,493.98547,121.645584,0.17911187,519.43475,127.58601,0.99402833,514.76263,128.54453,0.9184245,535.57513,151.84488,0.98827165,525.09296,151.3358,0.7256739,531.6235,172.94048,0.9709463,523.6025,170.07657,0.7314319,559.12213,155.22787,0.991731,555.20483,155.10583,0.972807,528.4546,181.00706,0.9847317,526.9607,180.94328,0.94979346,536.8196,221.7802,0.94737977,535.5004,217.92885,0.8946773,1.25142265,-0.63204572,1.07150541,-0.13584193,135.75291793135358,151.07001733348753,118.45657922834164,119.45063028710884,55.92385734179923,155.16685,128.06527,129.64319,68.19018,101.32625,0.6729764431923964,168.40621930111365,0.8467690588235294,-2.278660000000002,0.49251000000001,2.3312780820185357,0.0185799999999858,0.161750000000012,0.1628136324144982,-1.850059999999985,0.5282700000000062,1.924003949190321,0.4791400000000294,0.305246000000011,0.5681111335962664,-2.484580000000051,0.2755200000000002,2.499809802125004,-0.11525000000006,-0.2248400000000003,0.2526570563036267,-1.4591800000000037,0.1593200000000081,1.4678518776770402,0.7444799999999532,-0.3105999999999937,0.8066739306559537,-3.267089999999996,-0.4380960000000016,3.2963320787378168,-0.5827500000000327,-1.4418810000000093,1.5551907859362673,-2.832250000000045,0.3101300000000009,2.849178948293745,-1.075200000000109,-0.4823800000000062,1.178450467520905,-3.4663100000000213,-1.335489999999993,3.714678795831496,-0.4862500000000409,-2.1348199999999906,2.1894966304838195,-4.263920000000098,1.382809999999978,4.482541384360079,-3.586270000000127,0.0631999999999664,3.586826836202287,-3.3477700000000823,-1.3323699999999974,3.603161638034096,0.0455499999999347,-1.7603499999999883,1.7609392167249704,-1.0896000000000186,0.6213000000000193,1.2542893804860442,0.3929999999999154,0.4949800000000266,0.6320238922698729,-2.35154,1.059979999999996,2.579398761727235,0.1316800000000739,1.1090799999999774,1.1168697635803244,-3.253770000000032,-0.7738500000000101,3.3445273261554043,-1.0837099999999964,0.2081599999999923,1.103520706511658,-3.869630000000029,-1.2461700000000064,4.065338363014848,-0.7696900000000824,-0.4046400000000005,0.8695724384432427,-0.8222999999999274,1.1211999999999875,1.3904196237107174,0.8523000000001275,2.8587099999999737,2.9830585234118465,-1.6659000000000788,0.4775399999999763,1.732993728090278,0.7148999999998296,1.3095299999999668,1.4919620742162547,-1.0593000000000077,-0.4534400000000005,1.152269206218762,-0.5489000000000033,0.4847299999999848,0.7322939183824954,-1.6867300000000114,0.052250000000015,1.687539082628915,-0.0149099999999862,-0.7756899999999689,0.7758332837665263,-1.010009999999994,-0.0982399999999756,156.86960000000002,1.2912916563076375,127.673555,0.7144610911554031,128.682248,0.8880570649865788,-0.17367133,-0.03601162,0.1341679093361039,0,0
31,1033.3333333333337,490.26138,129.41324,0.8999346,491.26913,125.80266,0.90489846,488.23813,126.658264,0.5633209,499.7084,121.3833,0.88067406,490.39365,122.8333,0.22403143,518.7082,129.54854,0.9946517,509.76288,130.67041,0.9456513,536.48535,153.70122,0.9885677,519.55536,152.37637,0.8097382,530.091,174.90485,0.97289747,519.8412,169.80331,0.8038439,557.556,154.33049,0.99340457,550.81274,154.46283,0.98154783,528.4203,182.54648,0.9870207,525.26416,183.37613,0.9637219,537.8832,221.54489,0.95218664,536.558,219.54916,0.9132963,1.15558278,-0.53894609,1.01549825,-0.11692723,126.86407088383775,156.65753508101798,120.44214318631666,121.1960495708776,58.7021833928803,154.39666,130.109475,129.41324,69.31787000000003,100.16159,0.6920603926908472,172.85161899362438,0.8693757447058824,-2.498260000000016,-0.2299500000000023,2.5088204459666064,-0.219600000000014,-0.7224600000000123,0.755097749698689,-2.1192399999999907,-0.1957500000000038,2.1282613185649835,-0.2691800000000057,-0.7240200000000101,0.772439533426415,-2.69381999999996,-0.0231359999999938,2.6939193504809644,-0.2092399999999088,-0.298655999999994,0.3646598194700895,-1.4922200000000316,0.9293499999999996,1.7579567545591368,-0.0330400000000281,0.7700299999999913,0.7707385046174795,-3.591820000000041,1.1877159999999949,3.7830992861748,-0.324730000000045,1.6258119999999965,1.6579246762878033,-0.7265499999999747,1.962530000000001,2.09270134118559,2.10570000000007,1.6524,2.67663935747801,-4.999749999999949,2.125879999999995,5.432942649881321,-1.5334399999999275,3.461369999999988,3.7858315480881735,0.9102200000000948,1.8563400000000168,2.0674860686351035,5.174140000000193,0.4735300000000393,5.195763216362158,-5.537599999999998,1.0405700000000024,5.634518585016823,-2.189829999999916,2.37294,3.228962631016288,-1.5325000000000273,1.9643700000000024,2.491446516965615,-0.4429000000000087,1.343069999999983,1.4142126554729888,-3.7613000000000056,-0.2732599999999934,3.771213162577798,-1.4097600000000057,-1.333239999999989,1.9403484623128875,-1.56612999999993,-0.8973799999999983,1.805008044663452,1.6876400000001013,-0.1235299999999881,1.6921549664555957,-4.392090000000053,-0.6430000000000007,4.438907925165881,-0.5224600000000237,0.6031700000000058,0.7979840227097481,-0.0343000000000301,1.539420000000007,1.539802073774426,0.7879999999998972,0.4182200000000193,0.8921053572307781,-1.6965400000000272,2.432850000000002,2.9659748977528624,-0.0306399999999484,1.9553100000000256,1.955550051954717,1.0635999999999513,-0.2353099999999983,1.0893189414032491,2.1228999999999587,0.2181300000000021,2.1340771089395587,1.0575999999999794,1.6203099999999893,1.9349217700206696,2.744329999999991,1.5680599999999745,3.1607213278775257,-0.7701900000000137,0.2398199999999803,156.025152,1.2409327335394624,128.339211,1.1139713784720748,129.108842,0.4509645745760886,0.0189147,-0.079539992,0.1122316624667942,0,0
32,1066.6666666666667,487.85095,130.27339,0.90247065,489.17807,126.625244,0.9039304,485.82513,127.33252,0.5904391,498.07877,121.92935,0.87587804,487.95734,122.878494,0.2500973,516.84735,130.35707,0.99408036,507.21436,130.10188,0.95069504,533.4357,155.1916,0.986158,517.29865,151.51855,0.82287645,527.44495,177.81174,0.967335,516.9458,172.3881,0.8070844,555.5636,154.21324,0.9929558,548.297,153.71082,0.9823324,526.37317,185.3139,0.98632854,522.49805,184.60777,0.9656718,537.8838,222.07922,0.9516514,536.1952,218.66376,0.9181895,1.45551084,-0.9671061,1.03613246,-0.33113005,131.42511998270288,153.81741820385028,119.43022265369822,118.22837570847427,59.25543167169021,153.96203000000003,130.22947499999998,130.27339,69.73846999999995,100.14987,0.6963410866500263,-178.48251777829557,0.8734220105882353,-2.4104299999999625,0.8601500000000044,2.559302797130466,0.0878300000000535,1.0901000000000067,1.0936325337607802,-2.0910600000000272,0.822583999999992,2.247037240602857,0.0281799999999634,1.018333999999996,1.0187238330165784,-2.413000000000011,0.6742559999999997,2.5054321291018944,0.2808199999999488,0.6973919999999936,0.7518081364709764,-1.6296299999999633,0.5460499999999939,1.7186810464422633,-0.1374099999999316,-0.3833000000000055,0.4071859502733185,-2.436309999999992,0.0451940000000092,2.4367291424645376,1.155510000000049,-1.1425219999999854,1.6249799631331092,-1.860850000000028,0.8085299999999904,2.0289118964114947,-1.134300000000053,-1.1540000000000106,1.6181324080557018,-2.5485199999999963,-0.5685300000000097,2.611164596746056,2.4512299999999527,-2.694410000000005,3.6425779004710095,-3.0496500000000424,1.4903799999999876,3.3943479000980763,-3.959870000000137,-0.3659600000000296,3.976744540261683,-2.256709999999998,-0.8578200000000038,2.4142483667800207,3.2808899999999994,-1.8983900000000065,3.790530805072031,-2.6460500000000597,2.906889999999976,3.930851062378245,-1.113550000000032,0.9425199999999734,1.458882295766187,-2.895399999999995,2.584789999999998,3.881298816646299,0.8659000000000106,2.8580499999999915,2.986341007403537,-1.9924000000000888,-0.1172499999999843,1.9958470188119,-0.4262700000001587,0.780130000000014,0.8889932113352481,-2.515739999999937,-0.7520099999999843,2.625731667116741,1.876350000000116,-0.1090099999999836,1.879513900613781,-2.0471300000000383,2.767419999999987,3.442289164683886,-2.012830000000008,1.2279999999999802,2.3578525418057814,-2.7661099999999124,1.2316399999999987,3.0279203459964914,-1.0695699999998851,-1.2012100000000032,1.6083797589499074,0.000599999999963,0.5343299999999829,0.5343303368703499,-1.0629999999999882,0.7696399999999812,1.3123698905415142,-0.3627999999999929,-0.8854000000000042,0.9568474277542904,-1.4203999999999724,-2.505709999999993,2.880298381088301,-0.4346299999999701,0.3355600000000436,155.358206,1.2820936825480749,128.95283999999998,1.1474668317156114,129.460084,0.5483451466299322,-0.21420282,-0.152693204,0.13591193836672,0,0
33,1100.0,485.6966,131.84932,0.8693095,487.0223,128.38406,0.89124566,483.5402,128.92542,0.44217998,495.70547,123.54579,0.89861953,486.79797,124.5128,0.1828926,515.1385,130.88965,0.9927983,503.5934,130.54631,0.931217,531.5802,158.20496,0.9855964,510.1864,152.44174,0.7393471,521.99243,184.5004,0.96782,507.98752,177.5533,0.7428934,552.722,154.25565,0.99002343,544.93896,153.67647,0.9703325,524.2842,187.86133,0.98216003,517.1855,187.12317,0.9469942,537.6643,223.37701,0.940692,530.9152,218.22433,0.8932067,1.45562034,-0.90643167,1.10196544,-0.28789646,128.92259215312177,158.23795598596513,119.11814189757963,116.4955288589278,59.49817352349285,153.96606,130.71798,131.84932,69.18179999999995,99.83122000000002,0.6929876175710596,-178.29658152244355,0.8451369605882353,-2.154350000000022,1.5759299999999996,2.6692282194297463,0.2560799999999403,0.7157799999999952,0.7602091651644056,-2.155770000000018,1.75881600000001,2.782225370949685,-0.0647099999999909,0.9362320000000182,0.9384656317223518,-2.2849299999999744,1.5929000000000002,2.785360930813076,0.1280700000000365,0.9186440000000003,0.9275282872430416,-2.373300000000029,1.6164399999999972,2.871485880794145,-0.7436700000000656,1.0703900000000033,1.3033724797616777,-1.1593699999999671,1.6343059999999952,2.003770171086472,1.2769400000000246,1.589111999999986,2.0385908643335027,-1.708849999999984,0.5325799999999958,1.7899189308178012,0.1520000000000436,-0.2759499999999946,0.3150434930291535,-3.620960000000025,0.4444300000000112,3.648132309346824,-1.0724400000000287,1.012960000000021,1.475200161062933,-1.8555000000000064,3.013360000000006,3.538816008158669,1.194150000000036,1.5229800000000182,1.9353196901029408,-7.11224999999996,0.9231900000000052,7.171916050721693,-4.855539999999962,1.781010000000009,5.171872515027769,-5.452519999999936,6.688660000000027,8.629492855666529,-2.806469999999877,3.7817700000000514,4.709358575623616,-8.958279999999945,5.165199999999999,10.340699763478243,-6.06287999999995,2.5804100000000005,6.589160011905872,-2.8415999999999717,0.0424099999999896,2.8419164604364844,-0.8491999999998825,0.1596599999999739,0.8640786744271566,-3.3580400000000736,-0.0343500000000176,3.3582156815935,-0.8423000000001366,0.7176599999999667,1.1065736150840495,-2.088969999999904,2.54743000000002,3.294418805464736,-0.0418399999998655,-0.2199899999999672,0.2239334403343421,-5.3125499999999874,2.5154,5.8779609272689,-2.546440000000075,1.283760000000001,2.851735683965186,-0.2194999999999254,1.2977900000000204,1.3162215368622487,-0.2200999999998885,0.7634600000000376,0.7945534479190234,-5.279999999999973,-0.4394299999999873,5.298254309194652,-4.91719999999998,0.4459700000000168,4.937382411855478,0.0040299999999717,0.4386599999999419,154.73369200000002,0.9445463762937424,129.54003,1.1497481466119002,130.065964,1.0800365091202249,0.0432335899999999,-0.166793254,0.1474683053743663,0,0
34,1133.3333333333333,483.8018,133.30692,0.8366716,484.92715,130.02728,0.85468644,482.0501,130.49132,0.3795748,493.39648,125.027084,0.87797785,485.66406,125.86386,0.1645166,513.65454,132.2029,0.99258053,500.40564,131.52597,0.9348561,529.24615,161.10059,0.9865991,505.579,154.63876,0.7748459,517.7569,185.77797,0.9699976,502.8077,178.60497,0.7724829,549.99097,156.15326,0.99236965,541.2152,155.4205,0.9782175,523.5428,189.08607,0.9863246,515.3371,187.81139,0.96098596,537.1913,222.59302,0.9541932,530.18494,217.3074,0.9190214,1.18534748,-0.53255931,1.02507842,-0.26578837,126.68547240659008,160.78735629469722,119.06952264468492,114.65755927309056,58.193376162360025,155.78688,131.864435,133.30692,67.94086999999996,97.565936,0.6963585047105115,-177.075113039613,0.8432883370588236,-1.8947999999999752,1.4575999999999851,2.390578340067496,0.259550000000047,-0.1183300000000144,0.285251102364264,-2.0951499999999896,1.6432199999999852,2.662672621803121,0.0606200000000285,-0.1155960000000249,0.1305267007780753,-1.4901000000000408,1.5658999999999992,2.1615829431229603,0.7948299999999335,-0.027000000000001,0.795288456410562,-2.3089899999999943,1.4812940000000054,2.7432948683172924,0.0643100000000345,-0.1351459999999917,0.1496670218050797,-1.1339100000000144,1.351060000000004,1.7638353130890774,0.0254599999999527,-0.2832459999999912,0.2843879535352941,-1.4839600000000246,1.313250000000011,1.981606127387605,0.2248899999999594,0.7806700000000149,0.812416864054412,-3.187759999999969,0.9796599999999956,3.3348984292178665,0.4332000000000562,0.5352299999999843,0.688573447716387,-2.3340500000000475,2.8956300000000117,3.7192018632228456,-0.4785500000000411,-0.1177299999999945,0.4928188870163542,-4.607399999999984,2.1970199999999807,5.1044129574711885,2.5048499999999763,1.2738299999999754,2.810145261619018,-4.23553000000004,1.2775699999999972,4.424013956329741,1.216989999999896,-5.41109000000003,5.546256363368004,-5.179820000000007,1.0516700000000014,5.285503289309361,3.778459999999938,-4.113529999999997,5.585507052408001,-2.7310300000000325,1.897609999999986,3.32557492367863,0.1105699999999387,1.8551999999999964,1.8584920674837364,-3.72375999999997,1.7440300000000093,4.111937399632904,-0.3657199999998966,1.778380000000027,1.815595368687644,-0.7413999999999987,1.224739999999997,1.431664076381045,1.3475699999999051,-1.3226900000000228,1.888240911801194,-1.8484000000000835,0.6882200000000012,1.9723664285320588,3.464149999999904,-1.8271799999999985,3.916493581623661,-0.47300000000007,-0.7839900000000171,0.9156250980068716,-0.2535000000001446,-2.081780000000037,2.0971576522522644,-0.7302600000000439,-0.9169300000000078,1.1721946478721348,4.549739999999929,-0.4775000000000204,4.574728441951432,1.8208199999999977,1.8167900000000257,154.65569599999998,0.8007380400166066,130.197327,1.3788353009995586,130.897212,1.6490224566307612,0.02210809,-0.227516808,0.0954992889631182,0,0
35,1166.6666666666667,482.03827,133.97443,0.87440586,483.54272,130.5356,0.89736235,480.1371,130.82504,0.47414476,492.97876,125.48543,0.9076413,482.8907,126.00705,0.19497539,513.74603,133.97787,0.9954911,497.30725,130.68289,0.94888186,529.68695,162.8671,0.99070966,501.80972,151.52277,0.7997807,519.4609,188.01682,0.97416085,497.7926,172.75293,0.77764857,547.9764,154.85704,0.9948532,537.47253,152.5596,0.98426914,522.07605,190.1293,0.98879564,513.1051,185.55222,0.96514535,539.8064,219.95714,0.9561174,532.9282,211.15833,0.9152766,1.06542773,-0.50209928,0.93517219,-0.09211704,128.9833260574753,157.09389807995737,112.98201876796828,105.8060305585024,60.11361317012044,153.70832,132.33038,133.97443,67.83930000000004,94.47171000000002,0.7180911542927387,-168.6658594250798,0.8611564547058823,-1.763530000000003,0.6675100000000214,1.885631899655932,0.1312699999999722,-0.7900899999999638,0.8009207332813502,-1.384430000000009,0.5083199999999977,1.4748002058923175,0.7107199999999807,-1.1348999999999876,1.3390746537814628,-1.913000000000011,0.3337199999999996,1.9418903260483176,-0.4228999999999701,-1.2321799999999996,1.3027324984047852,-0.4177199999999743,0.4583459999999917,0.6201379315248914,1.89127000000002,-1.0229480000000135,2.150191810886672,-2.773360000000025,0.1431900000000041,2.7770540264280315,-1.6394500000000107,-1.2078699999999998,2.036356118020626,0.0914900000000216,1.7749699999999962,1.7773263406026452,1.5754500000000462,0.4617199999999855,1.6417149755362934,-3.098389999999995,-0.8430800000000147,3.211044141474856,0.0893699999999739,-1.8227400000000105,1.824929616314019,0.4408000000000811,1.7665099999999825,1.820676308435964,2.7748500000001286,-1.1291200000000288,2.995781116320212,-3.7692799999999806,-3.1159899999999823,4.890487235286454,0.8381200000000035,-5.313009999999963,5.378709919162736,1.7040000000000646,2.238849999999985,2.813550305663674,5.939530000000104,0.961279999999988,6.016816089868563,-5.015100000000018,-5.852040000000017,7.706983856970273,0.1647199999999884,-6.903710000000018,6.905674799938109,-2.014569999999935,-1.2962199999999768,2.395553917844405,0.7164600000000974,-3.193829999999963,3.2732040878166915,-3.742669999999976,-2.860900000000015,4.710873330806073,-0.0189100000000053,-4.604930000000024,4.60496882649603,-1.4667500000000473,1.043229999999994,1.7999123299205788,-0.7253500000000486,-0.1815100000000029,0.7477155225084414,-2.231999999999971,-2.2591699999999832,3.175794875129657,-0.3835999999998876,-2.9473899999999844,2.9722477642518,2.6151000000000977,-2.635879999999986,3.713032639824277,3.088100000000168,-1.851889999999969,3.600813544478653,2.743259999999964,-6.149069999999995,6.733241217459815,3.473520000000008,-5.232139999999987,6.280177558795604,-2.0785599999999818,-3.8993799999999794,154.36399,0.8329925804589199,131.05034899999998,0.9963386141606558,131.76345999999998,1.9379029713462168,0.17367133,-0.2187718299999999,0.1072694009106058,0,0
36,1200.0,481.48495,135.77605,0.9159026,483.51633,131.75168,0.9357248,478.68744,132.46736,0.5886558,493.7509,126.56122,0.9279476,480.0248,128.19662,0.22405896,513.3238,135.63113,0.99616265,495.36725,133.95459,0.94915175,531.1399,164.26447,0.9909888,498.87845,154.9601,0.7687721,524.26855,192.95415,0.9741424,493.86472,178.24765,0.7472006,546.3737,154.35924,0.99347854,535.3309,152.99548,0.9783482,520.8155,190.95139,0.98501474,513.3851,188.12747,0.9493992,538.8609,221.0651,0.9399073,533.665,213.78648,0.87866485,0.93581673,-0.40310417,0.84207257,-0.06460475,134.6405305370891,158.36027132818958,114.13537957642647,109.68683756514426,62.64803820004339,153.67736,134.79286000000002,135.77605,67.68626,94.50388,0.716227304992903,-174.6659579385016,0.8672659347058823,-0.5533199999999852,1.8016199999999856,1.8846744140036316,1.2102100000000178,1.1341099999999642,1.6585577277260992,-0.0263899999999921,1.2160800000000052,1.2163663093410686,1.3580400000000168,0.7077600000000075,1.531403558569738,-1.4496599999999944,1.6423200000000122,2.190600168447,0.4633400000000165,1.3086000000000126,1.388206726536091,0.772139999999979,1.075790000000012,1.3242070471417955,1.1898599999999533,0.6174440000000203,1.3405237456814834,-2.8658999999999537,2.189569999999989,3.606604995684957,-0.0925399999999285,2.046379999999985,2.048471321742124,-0.4222300000000132,1.6532600000000173,1.7063255259475163,-0.5137200000000348,-0.1217099999999788,0.5279408702686605,-1.9399999999999975,3.27170000000001,3.803632591352648,1.1583899999999971,4.1147800000000245,4.274725937472506,1.452949999999987,1.3973699999999951,2.0158637402860218,1.012149999999906,-0.3691399999999873,1.0773634308346467,-2.9312700000000405,3.437330000000003,4.517475106937531,0.8380099999999402,6.553319999999985,6.606683266397725,4.807649999999967,4.937330000000003,6.891351540256796,3.1036499999999023,2.6984800000000178,4.112716575804791,-3.927880000000016,5.494720000000001,6.75427192025907,1.087220000000002,11.346760000000016,11.398728430224152,-1.602700000000027,-0.4978000000000122,1.6782288669904648,0.411869999999908,0.7984199999999646,0.8983937852077271,-2.141629999999964,0.4358799999999974,2.185536646066554,1.6010400000000118,3.2967800000000125,3.66498123460409,-1.2605499999999663,0.8220900000000029,1.504931317568985,0.2062000000000807,-0.2211399999999912,0.3023596196584944,0.2799999999999727,2.5752499999999827,2.590427100402537,2.511999999999944,4.834419999999966,5.448096983020712,-0.9455000000000382,1.1079599999999914,1.4565526463537295,-3.560600000000136,3.7438399999999774,5.166644008019209,0.7368000000000166,2.628150000000005,2.7294773606864835,-2.0064599999999477,8.77722,9.003636635271317,-0.0309600000000216,2.04759999999996,154.22013,0.8863438224524378,131.987026,1.782209880027501,133.036022,2.0917783071999723,0.0275122899999999,-0.2083073339999999,0.1213203765972326,0,0
37,1233.3333333333337,480.68033,138.77858,0.93721503,482.37888,134.24728,0.9447365,477.2515,135.7717,0.6984794,492.17175,128.00703,0.9203834,477.19168,131.48904,0.2951567,513.0711,137.7291,0.99581087,491.33176,136.04742,0.9616392,532.3767,170.17148,0.98868203,490.80414,156.61945,0.81664306,521.4967,203.66345,0.9689488,484.128,181.89342,0.78652626,544.06244,154.52705,0.9914408,530.75714,153.25734,0.9767495,518.35724,187.64519,0.98000425,509.82715,186.04663,0.94419897,538.7162,217.53804,0.9240398,531.6838,211.85777,0.863489,0.86410238,-0.31368923,0.80498011,-0.01670389,131.24765054458746,166.67241195538506,107.92518422008732,107.19154458237534,64.22170510004646,153.89219500000002,136.88826,138.77858,66.87076000000002,89.53101000000001,0.7469005348325622,-175.57660627741495,0.8820084452941177,-0.8046199999999999,3.0025300000000072,3.108472252618647,-0.2513000000000147,1.2009100000000217,1.2269215615107836,-1.1374500000000012,2.495599999999996,2.7425921793988954,-1.111060000000009,1.2795199999999909,1.6945871927994725,-1.4359399999999596,3.3043399999999963,3.6028581042277894,0.0137200000000348,1.662019999999984,1.6620766284380355,-1.579150000000027,1.4458099999999805,2.141046771698374,-2.351290000000006,0.3700199999999682,2.380226767453052,-2.833120000000008,3.292419999999993,4.343569775058299,0.0327799999999456,1.1028500000000037,1.1033370522646309,-0.2527000000000043,2.0979699999999752,2.1131340257778017,0.1695300000000088,0.444709999999958,0.4759279409742252,-4.035490000000038,2.092829999999992,4.545890116247892,-2.0954900000000407,-1.1788700000000176,2.404332093742504,1.2368000000000166,5.907010000000014,6.035100776300276,-0.2161499999999705,4.509640000000019,4.514817133849405,-8.074309999999969,1.6593499999999892,8.24305309934368,-5.143039999999928,-1.7779800000000137,5.441697650733575,-2.771849999999972,10.709300000000011,11.062199551287264,-7.579499999999939,5.77197000000001,9.52703825597962,-9.736719999999991,3.645769999999999,10.396891614867387,-5.808839999999975,-1.848950000000002,6.096001824811056,-2.3112599999999475,0.1678100000000029,2.3173439502369426,-0.7085599999999204,0.6656100000000151,0.9721594240143472,-4.573759999999993,0.2618600000000128,4.581249960130962,-2.432130000000029,-0.1740199999999845,2.4383476571851146,-2.458259999999996,-3.30619999999999,4.119951537045055,-1.1977100000000291,-4.128289999999993,4.298521556093444,-3.5579499999999484,-2.080839999999995,4.121759734397386,-3.837949999999921,-4.656089999999978,6.033989914691538,-0.1447000000000571,-3.527060000000006,3.530026959330489,0.8007999999999811,-4.635019999999997,4.703689088407092,-1.9811999999999443,-1.928710000000024,2.7649730024179027,-2.717999999999961,-4.556860000000029,5.305892673207785,0.2148350000000221,0.2457950000000437,154.206163,0.8919601806104336,133.318783,2.4884891950629693,134.73706,2.66361274280858,0.04790086,-0.145422102,0.123215495453446,0,0
38,1266.6666666666663,479.43094,142.20924,0.94755214,480.9919,138.00806,0.9441368,476.08704,139.51175,0.7474442,490.215,131.38358,0.907019,475.17575,134.6919,0.34021434,511.4233,141.23207,0.9962871,487.7787,139.01607,0.9748848,529.3735,174.73227,0.98938584,483.58188,159.00638,0.8805986,517.2446,207.29788,0.97350186,477.13385,183.83438,0.85660523,543.2899,156.75594,0.9946747,528.68243,155.26602,0.9875787,515.65985,189.1697,0.9890354,506.43256,185.73444,0.9732559,537.0756,220.19235,0.96229386,530.81,211.69373,0.9375028,0.87526321,-0.37239849,0.7919609,0.01424744,131.38894338849,177.29808974087953,104.93681435265847,100.66078525492424,66.41240205389772,156.01098000000002,140.12407000000002,142.20924,68.11415,88.80877000000001,0.7669754826356058,-174.6458113891854,0.90599831,-1.249390000000005,3.430659999999989,3.6510824980682015,-0.4447700000000054,0.4281299999999817,0.6173456485632576,-1.386979999999994,3.760780000000011,4.00838866987722,-0.2495299999999929,1.265180000000015,1.289552501180171,-1.1644600000000196,3.740049999999997,3.9171342961532503,0.27147999999994,0.4357100000000002,0.5133659459878184,-1.9567499999999995,3.376550000000009,3.902558194953672,-0.3775999999999726,1.9307400000000283,1.967317642781686,-2.0159300000000258,3.202860000000016,3.784479613434349,0.8171899999999823,-0.0895599999999774,0.8220830187395718,-1.647800000000018,3.502970000000005,3.871181171283526,-1.3951000000000136,1.4050000000000296,1.9799820731511992,-3.5530599999999595,2.968650000000025,4.630023562153854,0.4824300000000789,0.8758200000000329,0.9998996836183788,-3.0031999999999925,4.560789999999997,5.460770610829568,-4.240000000000009,-1.3462200000000166,4.448584975967091,-7.222260000000006,2.3869300000000067,7.606475815546915,0.8520499999999629,0.7275800000000174,1.120429319011227,-4.252100000000041,3.634429999999981,5.593696079954667,-1.4802500000000691,-7.074870000000033,7.228065133865401,-6.994149999999991,1.9409600000000184,7.258475042603642,2.7425700000000006,-1.7048099999999806,3.229251823720153,-0.7725400000000491,2.228890000000007,2.35897619396638,1.5387199999998984,2.061080000000004,2.572102253954866,-2.0747100000000955,2.0086799999999982,2.887770234367753,2.4990499999998974,1.7468199999999854,3.0490377194943714,-2.6973900000000413,1.5245099999999925,3.098393705164048,-0.2391300000000455,4.830709999999982,4.836625089977498,-3.394589999999994,-0.3121899999999868,3.4089153501077067,0.1633599999999546,1.768650000000008,1.7761782883764832,-1.6405999999999494,2.654310000000009,3.120405412137962,-1.4958999999998923,6.181370000000015,6.359799673488141,-0.8738000000000739,-0.1640399999999999,0.8890644305111577,1.1073999999998705,1.7646700000000235,2.083361459012765,2.1187850000000026,1.9039499999999805,154.61514700000004,1.1774705141508472,135.200001,3.414057812403032,136.809044,3.688094851618117,0.03095133,-0.084993322,0.1091621110698308,0,0
39,1300.0,477.8394,144.11807,0.95455354,479.60687,139.83235,0.953039,474.1528,141.19644,0.78653944,488.69925,134.23381,0.9125114,472.15125,137.32797,0.3744346,508.4341,144.96149,0.99596536,484.4355,143.44899,0.97241396,524.8996,177.53345,0.98741186,478.56766,163.89871,0.8570782,514.29865,211.62842,0.9672002,470.72104,188.07104,0.826974,541.4025,157.32431,0.99131364,526.6954,156.41542,0.97957855,516.19415,195.66757,0.9786633,507.89322,192.52136,0.947621,536.53125,223.94145,0.92086434,531.1871,215.11313,0.87008834,0.83527158,-0.35495766,0.75609666,0.00122823,135.91114631234302,178.02625854878536,110.95046384677892,106.6151072672442,71.39170228430761,156.869865,144.20524,144.11807,70.68146000000002,89.70764,0.7879090254976164,-176.39373134408595,0.8986029841176473,-1.591540000000009,1.9088299999999947,2.485282990023472,-0.3421500000000037,-1.5218299999999942,1.5598183135865489,-1.385029999999972,1.8242899999999904,2.290489490261828,0.0019500000000221,-1.9364900000000205,1.9364909818018985,-1.9342399999999884,1.6846899999999891,2.565046739086818,-0.7697799999999688,-2.0553600000000074,2.194781533091616,-1.5157499999999686,2.8502300000000105,3.2282052467896096,0.4410000000000309,-0.5263199999999983,0.6866540194304738,-3.024499999999989,2.636069999999989,4.012040041537457,-1.008569999999963,-0.5667900000000259,1.1569201999273568,-2.9891999999999825,3.7294200000000046,4.779528237849415,-1.3413999999999646,0.2264499999999998,1.360379933143644,-3.3432000000000244,4.432919999999996,5.552275746610585,0.2098599999999351,1.4642699999999709,1.479232183431623,-4.473900000000072,2.801179999999988,5.278483740848367,-1.470700000000079,-1.7596100000000092,2.2932914865102223,-5.014220000000023,4.892329999999987,7.005518898504243,2.2080399999999827,2.5053999999999803,3.339531374549403,-2.945950000000039,4.330540000000013,5.237575593163343,1.3061500000000024,0.6961100000000329,1.4800665372205577,-6.412809999999979,4.2366600000000005,7.685923500250294,0.5813400000000115,2.2956999999999823,2.368162723631958,-1.887399999999957,0.5683699999999874,1.9711223241848344,-1.1148599999999078,-1.6605200000000195,2.0000598716038125,-1.9870300000000043,1.1494000000000142,2.2955192399324496,0.0876800000000912,-0.8592799999999841,0.8637418021608012,0.5343000000000302,6.497870000000006,6.519799922305907,3.2316900000000714,4.973360000000014,5.931115404854352,1.4606599999999617,6.786919999999981,6.942320269333562,4.855249999999955,7.099109999999968,8.60062877669994,-0.5443500000000085,3.749099999999999,3.788412297057964,1.0962499999999409,1.094789999999989,1.5492995858128429,0.3771000000000413,3.4194000000000244,3.440130923380708,1.2509000000001151,3.5834400000000244,3.795496415964645,0.8588849999999866,-1.259900000000016,154.831744,1.5018297990259044,137.668162,4.640377093590584,138.971274,4.248204627572898,-0.01301921,-0.031590002,0.0451475350538174,0,0
40,1333.3333333333333,475.75278,146.61111,0.9287876,477.20172,142.35863,0.9355482,472.5343,143.86452,0.6725632,486.17233,137.08607,0.9048366,471.43008,140.63351,0.26310137,507.0292,147.63135,0.99515957,481.30066,147.23088,0.94915885,522.9098,180.14015,0.98870987,474.01352,167.21652,0.7855733,510.23547,217.80371,0.9673587,466.42062,192.07047,0.7586908,538.785,164.57764,0.98739237,522.05334,164.71487,0.9632462,523.1896,202.3383,0.95569676,507.30847,202.18402,0.8727375,544.0752,220.55148,0.82637566,526.116,215.71613,0.7001072,0.78223707,-0.33358651,0.70745887,0.0108084,135.36559088109752,176.95514239617685,108.64894202598953,104.25455727243884,64.59953490026723,164.646255,147.431115,146.61111,77.65458000000001,83.46540999999999,0.930380370378815,-179.10825145667536,0.8502966911764706,-2.086620000000039,2.493040000000008,3.251035445208218,-0.4950800000000299,0.584210000000013,0.7657711998371608,-2.405149999999992,2.526280000000014,3.488099362245868,-1.02012000000002,0.7019900000000234,1.2383193346225656,-1.61850000000004,2.668080000000004,3.120607815218078,0.3157399999999484,0.9833900000000142,1.0328347591459126,-2.5269200000000183,2.852260000000001,3.810605174247274,-1.0111700000000496,0.0020299999999906,1.01117203768701,-0.7211700000000292,3.305540000000008,3.383294379816822,2.30332999999996,0.6694700000000182,2.3986494470430317,-1.4048999999999978,2.66986,3.0169349395702905,1.5842999999999847,-1.0595600000000047,1.905957471613667,-3.134839999999997,3.781890000000004,4.912220862064328,0.2083600000000274,-0.6510299999999916,0.6835597636637197,-1.9897999999999456,2.606700000000018,3.279358005768793,2.484100000000126,-0.1944799999999702,2.491701282337153,-4.554139999999961,3.3178100000000086,5.634541182359013,0.4600800000000618,-1.5745199999999784,1.6403618005793688,-4.063179999999932,6.17528999999999,7.392133541576432,-1.1172299999998927,1.8447499999999764,2.156688534628882,-4.300420000000031,3.9994299999999896,5.872738075318886,2.112389999999948,-0.2372300000000109,2.1256692087433984,-2.617500000000064,7.253330000000005,7.711167378477815,-0.7301000000001068,6.684960000000018,6.724710864535396,-4.642059999999901,8.299449999999979,9.509447478486788,-2.655029999999897,7.150049999999965,7.627083276285827,6.995450000000005,6.670729999999992,9.666176050300344,6.461149999999975,0.1728599999999858,6.463461913100415,-0.5847499999999854,9.662660000000017,9.680337330801043,-2.045409999999947,2.875740000000036,3.5289633910965965,7.543949999999995,-3.3899700000000053,8.270615346115425,8.088300000000004,-7.139070000000004,10.788276848269147,-5.071100000000001,0.6029999999999802,5.106825257437343,-5.448200000000043,-2.816400000000044,6.133106243984423,7.776389999999992,6.917505000000006,157.01933100000002,4.476517375523913,140.68830900000003,5.180475204446032,141.49861,4.290992836541624,0.0095801699999999,-0.011004914,0.0322822420573762,0,0
