frame_id,timestamp_ms,nose_x,nose_y,nose_conf,left_eye_x,left_eye_y,left_eye_conf,right_eye_x,right_eye_y,right_eye_conf,left_ear_x,left_ear_y,left_ear_conf,right_ear_x,right_ear_y,right_ear_conf,left_shoulder_x,left_shoulder_y,left_shoulder_conf,right_shoulder_x,right_shoulder_y,right_shoulder_conf,left_elbow_x,left_elbow_y,left_elbow_conf,right_elbow_x,right_elbow_y,right_elbow_conf,left_wrist_x,left_wrist_y,left_wrist_conf,right_wrist_x,right_wrist_y,right_wrist_conf,left_hip_x,left_hip_y,left_hip_conf,right_hip_x,right_hip_y,right_hip_conf,left_knee_x,left_knee_y,left_knee_conf,right_knee_x,right_knee_y,right_knee_conf,left_ankle_x,left_ankle_y,left_ankle_conf,right_ankle_x,right_ankle_y,right_ankle_conf,acc_x,acc_y,acc_z,acc_mag,left_elbow_angle,right_elbow_angle,left_knee_angle,right_knee_angle,spine_angle,hip_height,shoulder_height,head_height,bbox_width,bbox_height,bbox_aspect_ratio,shoulder_tilt,avg_confidence,nose_vx,nose_vy,nose_speed,nose_ax,nose_ay,nose_accel,left_eye_vx,left_eye_vy,left_eye_speed,left_eye_ax,left_eye_ay,left_eye_accel,right_eye_vx,right_eye_vy,right_eye_speed,right_eye_ax,right_eye_ay,right_eye_accel,left_ear_vx,left_ear_vy,left_ear_speed,left_ear_ax,left_ear_ay,left_ear_accel,right_ear_vx,right_ear_vy,right_ear_speed,right_ear_ax,right_ear_ay,right_ear_accel,left_shoulder_vx,left_shoulder_vy,left_shoulder_speed,left_shoulder_ax,left_shoulder_ay,left_shoulder_accel,right_shoulder_vx,right_shoulder_vy,right_shoulder_speed,right_shoulder_ax,right_shoulder_ay,right_shoulder_accel,left_elbow_vx,left_elbow_vy,left_elbow_speed,left_elbow_ax,left_elbow_ay,left_elbow_accel,right_elbow_vx,right_elbow_vy,right_elbow_speed,right_elbow_ax,right_elbow_ay,right_elbow_accel,left_wrist_vx,left_wrist_vy,left_wrist_speed,left_wrist_ax,left_wrist_ay,left_wrist_accel,right_wrist_vx,right_wrist_vy,right_wrist_speed,right_wrist_ax,right_wrist_ay,right_wrist_accel,left_hip_vx,left_hip_vy,left_hip_speed,left_hip_ax,left_hip_ay,left_hip_accel,right_hip_vx,right_hip_vy,right_hip_speed,right_hip_ax,right_hip_ay,right_hip_accel,left_knee_vx,left_knee_vy,left_knee_speed,left_knee_ax,left_knee_ay,left_knee_accel,right_knee_vx,right_knee_vy,right_knee_speed,right_knee_ax,right_knee_ay,right_knee_accel,left_ankle_vx,left_ankle_vy,left_ankle_speed,left_ankle_ax,left_ankle_ay,left_ankle_accel,right_ankle_vx,right_ankle_vy,right_ankle_speed,right_ankle_ax,right_ankle_ay,right_ankle_accel,hip_velocity,hip_acceleration,hip_height_mean_5,hip_height_std_5,shoulder_height_mean_5,shoulder_height_std_5,head_height_mean_5,head_height_std_5,acc_mag_diff,acc_mag_mean_5,acc_mag_std_5,label_binary,label_3class
0,0.0,503.2869,97.64455,0.93733233,505.56476,95.49681,0.9079068,501.45645,95.39392,0.8548181,509.6221,95.9586,0.76247233,498.91714,95.83682,0.53471947,515.2261,107.36282,0.99157953,495.1247,107.768555,0.9908471,521.80707,121.92496,0.9650966,490.98483,122.91196,0.9440063,520.4296,134.66727,0.9435483,489.9358,137.22963,0.9161345,511.44794,137.44228,0.9940323,498.81387,137.57202,0.9937782,511.47733,161.4453,0.98760253,498.47165,161.37456,0.9849268,512.75464,183.74277,0.9714983,500.3088,183.33038,0.9665485,1.26670515,-0.01744083,1.24517673,0.23188929,149.51084874477982,168.90066751401375,176.79154860789262,174.39321422484497,0.0864233636881249,137.50715000000002,107.5656875,97.64455,31.87126999999998,88.34885000000001,0.3607434577728688,178.8436752235873,0.9204028229411764,0.0,0.0,0.0,0.0,0.0,0.0,0.0,0.0,0.0,0.0,0.0,0.0,0.0,0.0,0.0,0.0,0.0,0.0,0.0,0.0,0.0,0.0,0.0,0.0,0.0,0.0,0.0,0.0,0.0,0.0,0.0,0.0,0.0,0.0,0.0,0.0,0.0,0.0,0.0,0.0,0.0,0.0,0.0,0.0,0.0,0.0,0.0,0.0,0.0,0.0,0.0,0.0,0.0,0.0,0.0,0.0,0.0,0.0,0.0,0.0,0.0,0.0,0.0,0.0,0.0,0.0,0.0,0.0,0.0,0.0,0.0,0.0,0.0,0.0,0.0,0.0,0.0,0.0,0.0,0.0,0.0,0.0,0.0,0.0,0.0,0.0,0.0,0.0,0.0,0.0,0.0,0.0,0.0,0.0,0.0,0.0,0.0,0.0,0.0,0.0,0.0,0.0,0.0,0.0,137.50715000000002,0.0,107.5656875,0.0,97.64455,0.0,0.0,0.23188929,0.0,0,0
1,33.333333333333336,503.28296,97.064804,0.9459305,505.55347,94.81063,0.9244893,501.29407,94.918434,0.88197696,509.70804,95.3878,0.7915552,498.62222,95.69619,0.60753703,514.9129,106.93195,0.9936259,495.55124,107.66524,0.993457,521.19104,121.74869,0.9626249,492.1239,123.49902,0.93952054,520.79297,135.11194,0.93099576,490.2799,137.16849,0.8948939,511.2431,137.26883,0.99417686,498.8851,137.39737,0.99404496,512.47284,161.21104,0.9835014,498.01047,161.14197,0.98037946,512.861,184.68059,0.9627282,499.40097,184.47696,0.95768267,1.10295341,-0.11054045,1.0774009,0.20855298,155.3304384783536,175.46909639646222,178.0072281612708,174.4803239157064,0.3207681008849218,137.3331,107.298595,97.064804,30.91114000000005,89.86995999999999,0.3439540827218123,177.8310562670663,0.92583062,-0.00394,-0.5797460000000001,0.5797593881223487,-0.00394,-0.5797460000000001,0.5797593881223487,-0.011289999999974,-0.6861799999999931,0.6862728732071449,-0.011289999999974,-0.6861799999999931,0.6862728732071449,-0.1623800000000415,-0.4754859999999894,0.5024482068790806,-0.1623800000000415,-0.4754859999999894,0.5024482068790806,0.0859399999999936,-0.5708000000000055,0.5772333354892155,0.0859399999999936,-0.5708000000000055,0.5772333354892155,-0.2949199999999905,-0.1406300000000016,0.3267332295619698,-0.2949199999999905,-0.1406300000000016,0.3267332295619698,-0.313199999999938,-0.4308699999999987,0.5326755080721847,-0.313199999999938,-0.4308699999999987,0.5326755080721847,0.4265399999999886,-0.1033150000000091,0.4388739691813496,0.4265399999999886,-0.1033150000000091,0.4388739691813496,-0.6160299999999097,-0.1762700000000023,0.640752739986252,-0.6160299999999097,-0.1762700000000023,0.640752739986252,1.1390700000000038,0.5870600000000081,1.2814522654004783,1.1390700000000038,0.5870600000000081,1.2814522654004783,0.363369999999918,0.4446700000000021,0.5742553141242511,0.363369999999918,0.4446700000000021,0.5742553141242511,0.3441000000000258,-0.0611399999999946,0.3494894985547021,0.3441000000000258,-0.0611399999999946,0.3494894985547021,-0.2048399999999901,-0.1734500000000025,0.2684107451276808,-0.2048399999999901,-0.1734500000000025,0.2684107451276808,0.0712300000000141,-0.1746500000000139,0.1886169011515322,0.0712300000000141,-0.1746500000000139,0.1886169011515322,0.9955100000000244,-0.2342600000000061,1.0227012797977968,0.9955100000000244,-0.2342600000000061,1.0227012797977968,-0.461180000000013,-0.232590000000016,0.5165124398308519,-0.461180000000013,-0.232590000000016,0.5165124398308519,0.1063599999999951,0.937819999999988,0.9438319776315997,0.1063599999999951,0.937819999999988,0.9438319776315997,-0.9078300000000468,1.1465800000000002,1.4624640184633897,-0.9078300000000468,1.1465800000000002,1.4624640184633897,-0.1740500000000224,-0.1740500000000224,137.420125,0.1230719352655344,107.43214125,0.1888629179540606,97.354677,0.4099423279657762,-0.02333631,0.220221135,0.0165012630488714,0,0
2,66.66666666666667,502.94687,97.22229,0.94912016,505.19318,94.997406,0.9254182,500.935,95.08622,0.8925364,509.2144,95.58408,0.78315777,498.1493,95.826584,0.6374637,514.1826,107.01326,0.9937416,494.92163,107.74274,0.99415624,520.72656,121.436905,0.96214586,491.22977,123.35715,0.9473365,520.7096,134.4579,0.9311639,489.4359,137.02042,0.905939,510.7624,137.32782,0.9941367,498.50217,137.50604,0.9943151,511.941,161.11678,0.98237234,497.9917,161.10907,0.98016936,512.28455,184.16061,0.95917153,499.3971,184.0595,0.95550066,0.95914589,0.0913801,0.95212172,0.07123718,155.52173255038397,174.176984766669,178.01778812094855,175.25683115958483,0.1536276393650058,137.41693,107.378,97.22229,31.290659999999946,89.163204,0.3509369139433688,177.8310459810071,0.928696765882353,-0.3360900000000129,0.1574860000000058,0.3711580907053091,-0.3321500000000128,0.7372320000000059,0.8086004231534987,-0.3602900000000204,0.1867759999999947,0.4058252804791894,-0.3490000000000464,0.8729559999999879,0.9401346594695948,-0.3590699999999742,0.1677859999999924,0.3963374909038747,-0.1966899999999327,0.6432719999999819,0.6726706639091303,-0.4936399999999707,0.1962800000000015,0.5312309177749087,-0.5795799999999645,0.7670800000000071,0.9614180686881072,-0.4729200000000446,0.1303939999999954,0.4905669389961384,-0.1780000000000541,0.271023999999997,0.3242499168481276,-0.7303000000000566,0.0813100000000019,0.7348124972399985,-0.4171000000001186,0.5121800000000007,0.660530667266933,-0.6296100000000138,0.0775000000000005,0.634361885756086,-1.0561500000000024,0.1808150000000097,1.0715161626055898,-0.4644800000000941,-0.3117850000000004,0.5594207331026333,0.1515499999998155,-0.135514999999998,0.2033020357127384,-0.8941300000000183,-0.1418699999999972,0.9053151682149329,-2.033200000000022,-0.7289300000000054,2.1599169393520894,-0.0833699999999453,-0.6540400000000091,0.6593321458112009,-0.4467399999998633,-1.0987100000000112,1.1860608296794488,-0.8439999999999941,-0.1480699999999899,0.8568901475101619,-1.18810000000002,-0.0869299999999952,1.1912759692447616,-0.480700000000013,0.0589899999999943,0.4843060087382892,-0.2758600000000228,0.2324399999999968,0.3607313310484843,-0.3829300000000444,0.1086700000000178,0.3980509437245914,-0.4541600000000585,0.2833200000000317,0.535286398108593,-0.5318400000000452,-0.0942599999999913,0.5401284413915327,-1.5273500000000697,0.1400000000000147,1.5337529209426843,-0.0187700000000177,-0.0328999999999837,0.0378777362047891,0.4424099999999953,0.1996900000000323,0.4853892295879758,-0.5764500000000226,-0.5199800000000039,0.7763206830299126,-0.6828100000000177,-1.4577999999999918,1.6097858044162272,-0.0038699999999494,-0.417459999999977,0.4174779377404037,0.9039600000000974,-1.5640399999999772,1.8064785642791628,0.083830000000006,0.2578800000000285,137.41906000000003,0.0870445477902088,107.41409416666666,0.1371557236850949,97.310548,0.299780689925151,-0.1373158,0.1705598166666666,0.0868037179901761,0,0
3,100.0,502.68384,97.19573,0.94948846,504.9042,94.97456,0.92398524,500.6539,95.05274,0.89641756,508.85342,95.524315,0.7734894,497.77875,95.72212,0.6513371,513.8791,106.94888,0.9934493,494.38043,107.629135,0.9942192,520.81134,121.20261,0.9594269,490.4099,123.07127,0.94898736,520.6262,133.80367,0.92718816,488.72394,136.48706,0.90774757,510.58823,137.63695,0.99372804,498.17786,137.81677,0.99411124,511.78577,161.46796,0.98045784,497.77084,161.46593,0.97879225,512.1701,184.32655,0.95449,499.27692,184.24347,0.9516841,0.97431172,0.27414031,0.93247009,-0.06804379,153.22247520910122,172.74308628548658,178.0864720004329,175.231028832832,0.4769858101827285,137.72686,107.2890075,97.19573,32.087399999999946,89.35199,0.3591123112186716,178.00191811500216,0.928176454117647,-0.2630300000000147,-0.0265600000000034,0.2643675746002296,0.0730599999999981,-0.1840460000000092,0.1980169026017808,-0.2889799999999809,-0.0228460000000012,0.2898816657120436,0.0713100000000395,-0.2096219999999959,0.2214192832252962,-0.2810999999999808,-0.0334799999999972,0.2830867718562438,0.0779699999999934,-0.2012659999999897,0.2158409684374003,-0.3609799999999836,-0.0597649999999987,0.3658939950654944,0.1326599999999871,-0.2560450000000003,0.2883707988423875,-0.3705499999999802,-0.104463999999993,0.3849935451354787,0.1023700000000644,-0.2348579999999884,0.2561989404037569,-0.3034999999999854,-0.0643799999999998,0.3102531779047414,0.4268000000000711,-0.1456900000000018,0.4509809487107645,-0.5412000000000035,-0.1136049999999926,0.5529950596750409,0.0884100000000103,-0.1911049999999932,0.2105645960863298,0.0847800000000233,-0.2342949999999888,0.2491621869887137,0.5492600000001175,0.0774900000000116,0.55469924076037,-0.8198699999999803,-0.2858800000000059,0.8682823223468109,0.0742600000000379,-0.1440100000000086,0.1620290952267774,-0.0833999999999832,-0.6542299999999841,0.6595244141803822,-3.000000003794412e-05,-0.000189999999975,0.0001923538405979,-0.7119599999999764,-0.5333599999999876,0.8895841338512919,0.1320400000000177,-0.3852899999999977,0.4072873011769491,-0.1741700000000037,0.3091300000000103,0.3548190324658581,0.3065300000000093,0.250140000000016,0.3956395588158667,-0.3243099999999685,0.3107299999999782,0.4491437509305523,0.0586200000000758,0.2020599999999603,0.210391416174693,-0.1552299999999604,0.3511799999999994,0.3839579993957507,0.3766100000000847,0.4454399999999907,0.5833111397016651,-0.2208599999999592,0.3568599999999833,0.4196763028811253,-0.2020899999999414,0.389759999999967,0.4390367019964853,-0.1144499999999197,0.1659400000000062,0.2015809666113933,0.4620000000001028,0.6859200000000101,0.8270007535668324,-0.1201800000000048,0.1839699999999879,0.219745746944046,-0.1163100000000554,0.601429999999965,0.612573310714702,0.30992999999998,0.226099999999974,137.49601,0.1695180782886131,107.3828225,0.1282684563880239,97.2818435,0.2514122139349363,-0.13928097,0.110908915,0.1387666287327901,0,0
4,133.33333333333334,502.36774,97.12212,0.9501911,504.5793,94.90666,0.92562276,500.36044,94.98594,0.89658195,508.54987,95.387054,0.77846324,497.55048,95.58136,0.6489524,513.64154,106.732185,0.99369663,494.16077,107.34599,0.99438703,520.73926,120.91284,0.9613807,489.87814,122.487595,0.9504743,520.85834,133.56175,0.9305237,487.8922,135.61526,0.9106914,510.2936,137.32787,0.99405766,497.9923,137.48082,0.9943961,511.19684,161.0905,0.98154366,497.86517,161.08023,0.9798166,511.33383,183.94907,0.95656085,499.4479,183.8509,0.95359683,1.29885574,0.18079504,1.28079532,-0.11790981,153.950439040631,172.80946895287792,178.16654397354253,175.7152637235676,0.4564668508525565,137.40434499999998,107.0390875,97.12212,32.96614,89.04241,0.3702296425913264,178.19530722777088,0.9294668770588236,-0.316099999999949,-0.0736100000000021,0.3245576098321653,-0.0530699999999342,-0.0470499999999987,0.0709233910638295,-0.3249000000000137,-0.0678999999999945,0.331919297420334,-0.0359200000000328,-0.0450539999999932,0.0576203897591968,-0.2934600000000387,-0.0668000000000006,0.3009667948462468,-0.0123600000000578,-0.0333200000000033,0.0355385987343571,-0.3035500000000297,-0.1372609999999952,0.3331413883338675,0.0574299999999539,-0.0774959999999964,0.0964563886738154,-0.228270000000009,-0.1407600000000002,0.2681801083227542,0.1422799999999711,-0.0362960000000072,0.1468366371720365,-0.2375600000000304,-0.2166950000000014,0.321545450325479,0.065939999999955,-0.1523150000000015,0.1659757296263358,-0.2196599999999762,-0.2831450000000046,0.3583596051803163,0.3215400000000272,-0.169540000000012,0.3634993579086785,-0.0720800000000281,-0.2897700000000043,0.2986003672134489,-0.1568600000000515,-0.0554750000000154,0.1663806936667168,-0.5317600000000198,-0.5836749999999995,0.7895854629012748,0.2881099999999605,-0.2977949999999936,0.4143539961493957,0.2321399999999585,-0.2419200000000216,0.3352823675649992,0.3155399999999417,0.4123099999999624,0.5191965212710233,-0.8317400000000248,-0.8718000000000075,1.2049177015879775,-0.1197800000000484,-0.3384400000000198,0.3590109775480758,-0.2946299999999837,-0.3090800000000229,0.4270096993043654,-0.12045999999998,-0.6182100000000332,0.629836657951914,-0.1855600000000095,-0.3359499999999968,0.3837901980249123,0.138749999999959,-0.646679999999975,0.6613974485133401,-0.5889300000000048,-0.3774600000000134,0.6995102547497184,-0.4337000000000444,-0.7286400000000128,0.8479457173664227,0.0943299999999567,-0.3856999999999857,0.3970675495428716,0.3151899999999159,-0.742559999999969,0.8066846284018935,-0.83627000000007,-0.3774799999999914,0.9175176637537342,-0.7218200000001502,-0.5434199999999976,0.9035094956890128,0.1709799999999859,-0.3925700000000063,0.428188469368338,0.2911599999999907,-0.5765399999999943,0.6458889356537918,-0.3225150000000099,-0.6324449999999899,137.477677,0.1524230251471194,107.3140755,0.1896585029022587,97.2498988,0.2291471040122472,-0.04986602,0.06514517,0.1578408525050569,0,0
5,166.66666666666666,502.01727,96.62476,0.95052487,504.2215,94.422585,0.92700243,500.02838,94.508606,0.8953676,508.18286,94.99654,0.7846686,497.27612,95.20392,0.6430033,513.42065,106.53591,0.99390066,493.81418,107.140656,0.99441105,520.57,120.91922,0.96278477,489.3351,122.405075,0.9499492,520.8266,133.95108,0.9322964,487.258,135.80782,0.90991515,509.97144,137.34624,0.9942106,497.70392,137.48035,0.99445575,510.21518,161.44168,0.98186976,497.7173,161.42447,0.9798075,509.9195,184.74948,0.95673877,499.58386,184.64484,0.9531599,1.13810162,0.13608757,1.12947773,-0.03217955,154.6979439505403,172.45595750212135,178.69362519998916,175.43619961831314,0.4130165861911491,137.413295,106.838283,96.62476,33.5686,90.326895,0.3716346015034105,178.2333172839663,0.9296509594117648,-0.3504700000000298,-0.4973600000000004,0.608437499255282,-0.0343700000000808,-0.4237499999999983,0.4251415757133194,-0.3577999999999974,-0.4840750000000042,0.6019546873519652,-0.0328999999999837,-0.4161750000000097,0.4174734010988089,-0.3320599999999558,-0.477333999999999,0.5814736375416943,-0.0385999999999171,-0.4105339999999984,0.4123446679126484,-0.3670099999999934,-0.3905140000000102,0.5359081304626784,-0.0634599999999636,-0.253253000000015,0.2610828481708498,-0.2743600000000015,-0.3774400000000071,0.4666201487291415,-0.0460899999999924,-0.2366800000000068,0.2411259224969446,-0.2208899999999403,-0.1962749999999999,0.2954932617251595,0.0166700000000901,0.0204200000000014,0.0263602977980724,-0.3465899999999919,-0.2053339999999934,0.4028482092004279,-0.1269300000000157,0.0778110000000111,0.1488817538216343,-0.1692599999998947,0.0063799999999929,0.1693801995510817,-0.0971799999998666,0.2961499999999972,0.3116869822433597,-0.5430399999999622,-0.0825200000000023,0.5492740590997898,-0.0112799999999424,0.5011549999999971,0.5012819290828224,-0.0317400000000134,0.389330000000001,0.3906216539056708,-0.2638799999999719,0.6312500000000227,0.6841850750345362,-0.6342000000000212,0.192559999999986,0.66278880014679,0.1975400000000036,1.0643599999999935,1.0825360322871418,-0.3221600000000535,0.0183700000000044,0.3226833161166449,-0.0275300000000697,0.3274500000000273,0.328605239459175,-0.2883800000000178,-0.000470000000007,0.2883803830013586,-0.1028200000000083,0.3354799999999898,0.3508828619354255,-0.9816600000000336,0.3511799999999994,1.0425851274596551,-0.3927300000000286,0.7286400000000128,0.827739755297546,-0.1478699999999548,0.3442400000000134,0.374655461057217,-0.2421999999999116,0.7299399999999991,0.7690729767713568,-1.41432999999995,0.8004099999999994,1.6251109245217257,-0.5780599999998799,1.1778899999999908,1.3120892559958863,0.1359600000000114,0.7939399999999921,0.8054972657929949,-0.0350199999999745,1.1865099999999984,1.187026697467245,0.0089500000000271,0.331465000000037,137.458906,0.1536601333869602,107.1685946,0.2242363898214884,97.0459408,0.2434585189990289,0.08573026,0.0123314019999999,0.1297853689700879,0,0
6,200.0,501.82852,96.127426,0.95203125,503.97098,93.941864,0.9291678,499.8215,94.053116,0.8969559,507.80472,94.64389,0.7900822,497.04587,94.91386,0.6444176,513.0826,106.430046,0.99428976,493.66364,107.07388,0.9947331,520.2712,120.94238,0.965287,489.11276,122.321014,0.95230347,520.73706,134.30789,0.93631375,486.32016,135.68907,0.9138586,509.68588,137.31297,0.99460065,497.64362,137.46387,0.9948112,509.26917,161.47217,0.9828881,497.67868,161.50093,0.9807751,508.71823,184.88203,0.9583984,499.58643,184.86365,0.9546527,1.02504004,0.06632427,1.01721777,-0.1075927,155.6450113901432,175.18043273914645,179.6399719973501,175.4152754666485,0.5455814041732655,137.38842,106.751963,96.127426,34.416900000000055,90.940166,0.378456529555307,178.10105880543085,0.9315039164705884,-0.1887499999999704,-0.497333999999995,0.5319470556888006,0.1617200000000593,2.6000000005410584e-05,0.1617200020900915,-0.2505199999999945,-0.4807210000000026,0.5420820512071948,0.1072800000000029,0.0033540000000016,0.1073324168925708,-0.2068800000000124,-0.4554899999999975,0.5002704013830949,0.1251799999999434,0.0218440000000015,0.1270716047588362,-0.3781400000000303,-0.352649999999997,0.5170608108337169,-0.0111300000000369,0.0378640000000132,0.0394659270257499,-0.2302500000000122,-0.2900599999999969,0.3703375029618305,0.0441099999999892,0.0873800000000102,0.0978823605150633,-0.3380500000000666,-0.1058639999999968,0.3542386046100063,-0.1171600000001262,0.0904110000000031,0.1479885621290718,-0.1505400000000349,-0.0667760000000043,0.1646855360255147,0.1960499999999569,0.138557999999989,0.240070660148174,-0.2988000000000284,0.0231600000000042,0.2996962221984407,-0.1295400000001336,0.0167800000000113,0.1306222798761184,-0.222340000000031,-0.0840609999999912,0.2377000785044303,0.3206999999999311,-0.0015409999999889,0.3207037023187537,-0.0895399999999426,0.3568099999999958,0.367873331052941,-0.0577999999999292,-0.0325200000000052,0.0663203618807388,-0.9378399999999942,-0.1187500000000056,0.9453282118396714,-0.303639999999973,-0.3113099999999917,0.4348691362927225,-0.2855599999999754,-0.0332699999999874,0.2874915763983096,0.0366000000000781,-0.0516399999999919,0.0632949413460892,-0.0602999999999838,-0.0164800000000013,0.0625114421526018,0.228080000000034,-0.0160099999999943,0.2286412178501841,-0.9460100000000012,0.0304900000000145,0.9465012203901286,0.0356500000000323,-0.3206899999999848,0.3226654592608148,-0.0386200000000371,0.0764599999999973,0.0856600023348263,0.1092499999999176,-0.2677800000000161,0.2892087324061821,-1.2012700000000225,0.1325499999999806,1.2085607619809806,0.2130599999999276,-0.6678600000000188,0.7010217851108439,0.0025699999999915,0.218810000000019,0.2188250922540838,-0.1333900000000198,-0.575129999999973,0.5903959764429076,-0.0248750000000086,-0.0338250000000357,137.46997000000002,0.1440267444348415,107.0592682,0.2729690053441427,96.8584652,0.4755697415786665,-0.07541315,-0.050897734,0.0762663627787036,0,0
7,233.3333333333333,501.3051,95.47995,0.95211834,503.49066,93.3089,0.93133813,499.34534,93.419205,0.8943339,507.42816,94.2105,0.8007407,496.75156,94.49135,0.63231117,512.9409,106.367615,0.9944114,493.37573,107.007545,0.9945868,520.2027,121.00787,0.9663163,488.7376,122.33069,0.9499816,520.76245,134.45134,0.93745667,486.03586,135.74684,0.9104945,509.4433,137.4077,0.99450594,497.38232,137.52972,0.99458295,508.69965,161.53879,0.98239845,497.56833,161.53203,0.979683,507.74106,184.9053,0.9569219,499.58725,184.81049,0.952122,0.97090474,0.06263959,0.96415835,-0.09555608,156.00211971297958,174.5454922177443,179.41593027230556,175.487205006649,0.4739294886032572,137.46871,106.68758,95.47995,34.72658999999993,91.59640000000002,0.3791261405565479,178.1266596776021,0.9308413970588234,-0.5234200000000442,-0.6474759999999975,0.8325825286276688,-0.3346700000000737,-0.1501420000000024,0.3668059828629436,-0.4803200000000061,-0.6329640000000012,0.7945758162038455,-0.2298000000000115,-0.1522429999999985,0.2756555296905993,-0.476159999999993,-0.6339109999999977,0.7928250131781858,-0.2692799999999806,-0.1784210000000001,0.3230259612492309,-0.3765599999999836,-0.4333900000000028,0.5741291890332612,0.0015800000000467,-0.0807400000000058,0.080755458019883,-0.2943099999999958,-0.4225100000000026,0.5149107458579592,-0.0640599999999835,-0.1324500000000057,0.147128128174049,-0.1416999999999006,-0.0624310000000036,0.1548435331583864,0.1963500000001659,0.0434329999999931,0.2010963649324983,-0.2879100000000107,-0.0663350000000093,0.2954530425042319,-0.1373699999999758,0.000440999999995,0.1373707078710499,-0.0684999999999718,0.0654899999999969,0.0947691410744855,0.2303000000000565,0.0423299999999926,0.2341578930978527,-0.3751599999999939,0.0096759999999989,0.375284759317502,-0.1528199999999628,0.0937369999999901,0.1792779338596549,0.0253899999999021,0.1434500000000014,0.1456796300104974,0.1149299999998447,-0.2133599999999944,0.2423456096156106,-0.2842999999999733,0.0577700000000049,0.2901100875529588,0.6535400000000209,0.1765200000000106,0.6769592616989821,-0.2425799999999753,0.0947299999999984,0.2604204855613086,0.04298,0.1279999999999859,0.135023258737139,-0.2613000000000056,0.0658500000000117,0.2694696875346177,-0.2010000000000218,0.0823300000000131,0.2172078011951019,-0.5695199999999545,0.0666200000000003,0.5734032218255738,0.3764900000000466,0.0361299999999857,0.378219641213983,-0.1103499999999826,0.0310999999999808,0.1146487352742932,-0.0717299999999454,-0.0453600000000165,0.084868854711217,-0.977170000000001,0.0232700000000249,0.9774470327337452,0.2241000000000212,-0.1092799999999556,0.2493249454025806,0.000819999999976,-0.0531600000000196,0.0531663239278591,-0.0017500000000154,-0.2719700000000387,0.2719756301583307,0.0802899999999908,0.1051649999999995,137.480326,0.1410912158587476,106.9211842,0.2445784710079097,96.5099972,0.7185840682962502,0.0120366199999999,-0.084256386,0.0345675595730813,0,0
8,266.6666666666667,501.04782,95.57647,0.95150393,503.21088,93.398735,0.930508,499.06018,93.51597,0.89312387,507.11548,94.249664,0.79846305,496.4142,94.55197,0.6293873,512.62335,106.29737,0.9942952,493.14496,107.0215,0.994418,520.0757,120.77283,0.9658762,488.58893,122.398865,0.94871616,520.77185,133.70856,0.9370017,485.62146,135.55156,0.9090436,509.13593,137.4957,0.99443984,497.18463,137.64542,0.9944898,508.10382,161.91315,0.98224705,497.47095,161.94511,0.9794114,507.04715,185.55972,0.95648795,499.50464,185.5214,0.9514858,0.96208729,0.05797232,0.95064785,-0.13608757,155.8398522145412,176.21043027098506,179.86175853501916,175.74494771147857,0.5120094726576238,137.57056,106.659435,95.57647,35.15038999999996,92.160985,0.3814020609545123,177.87094852563703,0.9300528735294118,-0.2572799999999802,0.0965199999999981,0.2747892079394485,0.266140000000064,0.7439959999999957,0.7901648863471646,-0.2797800000000165,0.0898350000000078,0.2938488993088296,0.2005399999999895,0.7227990000000091,0.7501031169119409,-0.2851600000000189,0.0967649999999906,0.3011306872854525,0.190999999999974,0.7306759999999883,0.7552273942171146,-0.3126800000000003,0.0391639999999995,0.3151231525864136,0.0638799999999832,0.4725540000000023,0.4768521126261266,-0.3373599999999896,0.0606200000000001,0.3427631164521542,-0.0430499999999938,0.4831300000000027,0.485044224169304,-0.3175500000000966,-0.0702449999999998,0.3252266325580691,-0.1758500000001959,-0.0078139999999962,0.1760235242689704,-0.2307699999999499,0.0139550000000099,0.2311915546143007,0.0571400000000608,0.0802900000000192,0.0985467589523371,-0.1270000000000664,-0.2350399999999979,0.2671568857432199,-0.0585000000000945,-0.3005299999999948,0.3061707544818871,-0.1486699999999814,0.0681749999999965,0.1635561051290779,0.2264900000000125,0.0584989999999976,0.2339227502852285,0.0094000000000278,-0.742779999999982,0.7428394768723414,-0.0159899999998742,-0.8862299999999834,0.8863742398106832,-0.4144000000000005,-0.1952799999999968,0.4581065797388193,-0.1301000000000272,-0.2530500000000018,0.2845352570420896,-0.3073700000000485,0.0879999999999938,0.319719121886741,-0.0647900000000731,-0.0067300000000045,0.0651385983884328,-0.1976899999999659,0.1157000000000039,0.229058564781995,0.0636100000000396,0.0498499999999921,0.0808161778359028,-0.5958300000000349,0.3743599999999958,0.7036752081038797,-0.0263100000000804,0.3077399999999954,0.3088626291735558,-0.0973799999999869,0.4130800000000079,0.4244030522981709,0.0129699999999957,0.3819800000000271,0.3822001325222435,-0.6939100000000167,0.6544199999999876,0.9538221136564232,0.2832599999999843,0.6311499999999626,0.691799501373009,-0.0826099999999883,0.7109100000000126,0.7156936776303224,-0.0834299999999643,0.7640700000000322,0.7686114296574331,0.1018500000000131,0.0215600000000222,137.449066,0.0743373196483497,106.7952697,0.1526604656163098,96.1861452,0.6968312606830902,-0.0405314899999999,-0.0978651419999999,0.0396146969753622,0,0
9,300.0,500.96942,95.54138,0.9538108,503.10953,93.32862,0.9326409,498.884,93.49612,0.8995873,506.95053,94.215546,0.79726166,496.08295,94.64003,0.6440154,512.4858,106.39019,0.9944254,492.8278,107.25726,0.99476224,520.07983,120.949265,0.9660213,488.14584,122.64511,0.9519584,520.9441,134.20174,0.9373427,484.96405,135.67247,0.91350424,509.16022,137.7262,0.9944648,497.08774,137.95471,0.9946406,507.89487,162.29088,0.98174745,497.1744,162.41885,0.97929263,506.58673,185.97171,0.95475847,498.96338,186.09714,0.9503757,1.00225681,0.0756588,0.98675773,-0.15844131,156.18470607129362,176.80207092302115,179.78689555879262,175.88226478377982,0.8630575032503947,137.84045500000002,106.823725,95.54138,35.98005000000006,92.76852,0.3878476191293388,177.4744494816561,0.9318005876470588,-0.0783999999999878,-0.0350899999999967,0.0858945172871811,0.1788799999999923,-0.1316099999999949,0.2220793698207826,-0.101349999999968,-0.0701150000000012,0.1232393432512268,0.1784300000000485,-0.1599500000000091,0.2396273511100521,-0.176179999999988,-0.019849999999991,0.177294711991067,0.1089800000000309,-0.1166149999999817,0.1596110855329368,-0.1649499999999761,-0.0341179999999923,0.1684415044577541,0.1477300000000241,-0.0732819999999918,0.1649072600706407,-0.3312500000000113,0.0880599999999987,0.3427551985017985,0.0061099999999782,0.0274399999999985,0.028112020560601,-0.1375499999999192,0.0928200000000032,0.1659384069466089,0.1800000000001773,0.1630650000000031,0.2428789703228026,-0.3171600000000012,0.235759999999999,0.3951876050687829,-0.0863900000000512,0.2218049999999891,0.2380350607053592,0.0041300000000319,0.1764349999999979,0.1764833310117403,0.1311300000000983,0.4114749999999958,0.4318642755832234,-0.4430899999999838,0.2462450000000018,0.5069174963689718,-0.2944200000000023,0.1780700000000052,0.3440814747992156,0.1722500000000764,0.4931799999999953,0.5223950372084536,0.1628500000000485,1.2359599999999773,1.2466423882172304,-0.6574100000000271,0.1209100000000091,0.6684363366843831,-0.2430100000000266,0.3161900000000059,0.3987856268724046,0.0242900000000076,0.2305000000000063,0.2317763018515985,0.3316600000000562,0.1425000000000125,0.3609772923606703,-0.0968900000000303,0.3092900000000043,0.3241110553498731,0.1007999999999356,0.1935900000000003,0.2182606883980419,-0.2089499999999589,0.3777299999999854,0.431671235316846,0.386880000000076,0.0033699999999896,0.3868946772702601,-0.2965500000000247,0.4737399999999923,0.558902039806626,-0.1991700000000378,0.0606599999999843,0.2082026044506004,-0.4604199999999991,0.4119900000000029,0.6178368202850989,0.2334900000000175,-0.2424299999999846,0.3365856280354238,-0.5412600000000225,0.5757399999999961,0.7902144868325434,-0.4586500000000342,-0.1351700000000164,0.4781534810079665,0.2698950000000195,0.1680450000000064,137.536288,0.1838825327689035,106.7521972,0.0795412695849669,95.8699972,0.4955352587951597,-0.02235374,-0.105971442,0.0480010931690182,0,0
10,333.3333333333333,500.74255,95.80934,0.9548767,502.89343,93.58484,0.9340102,498.61893,93.75625,0.90209216,506.733,94.43059,0.79807115,495.75568,94.85738,0.6484319,512.10596,106.47283,0.99453235,492.5912,107.37515,0.99491787,519.7157,120.88298,0.9667404,487.8091,122.660324,0.9535038,521.1174,134.11371,0.93890256,484.60083,135.5571,0.9162682,509.01675,137.66835,0.99462825,497.0692,137.93924,0.99483335,507.64032,162.30923,0.9823183,497.34558,162.48898,0.98002815,506.18124,186.10753,0.9560663,498.99576,186.29715,0.9519627,1.00852445,0.03537294,0.99977694,-0.12773563,158.2097887202682,176.59688902733816,179.68875182610307,176.6800893473241,1.2882771099267225,137.803795,106.92399,95.80934,36.51657,92.71231,0.3938696987070035,177.35265348824143,0.9330696670588234,-0.2268700000000194,0.2679600000000022,0.3511019203878127,-0.1484700000000316,0.3030499999999989,0.3374650254470954,-0.216099999999983,0.256219999999999,0.3351833802562295,-0.114750000000015,0.3263350000000002,0.3459220934329052,-0.265070000000037,0.2601299999999895,0.3713889090966694,-0.0888900000000489,0.2799799999999806,0.2937519914826074,-0.2175300000000106,0.2150439999999918,0.3058810599497803,-0.0525800000000344,0.2491619999999841,0.2546494819236742,-0.3272699999999986,0.2173500000000103,0.392869794461223,0.0039800000000127,0.1292900000000116,0.1293512446789868,-0.3798400000000583,0.0826399999999978,0.3887258612441986,-0.2422900000001391,-0.0101800000000054,0.2425037659502786,-0.2366000000000099,0.1178900000000027,0.2643437385299779,0.0805599999999913,-0.1178699999999963,0.1427699215521173,-0.3641300000000456,-0.0662849999999934,0.370113979910287,-0.3682600000000775,-0.2427199999999914,0.4410537676973783,-0.3367400000000202,0.0152140000000002,0.3370835110117575,0.1063499999999635,-0.2310310000000015,0.2543337285162803,0.1732999999999265,-0.0880300000000033,0.1943763640465968,0.0010499999998501,-0.5812099999999987,0.5812109484515912,-0.3632200000000125,-0.1153700000000128,0.3811023554112623,0.2941900000000146,-0.236280000000022,0.3773274367177915,-0.1434699999999793,-0.0578500000000019,0.1546940962027778,-0.167759999999987,-0.2883500000000083,0.3336002699339442,-0.0185399999999731,-0.0154699999999934,0.0241464800747189,0.0783500000000572,-0.3247599999999977,0.3340775061269577,-0.2545500000000515,0.0183500000000265,0.2552105503305598,-0.0456000000000926,-0.3593799999999589,0.3622614310135416,0.1711799999999925,0.070130000000006,0.1849886734370466,0.4677300000000173,-0.4036099999999862,0.6177963944537108,-0.4054899999999861,0.1358199999999954,0.4276320994733528,0.054930000000013,-0.2761700000000076,0.281579782299805,0.032380000000046,0.2000099999999918,0.2026140777438717,0.5736400000000685,-0.3757300000000043,0.6857374734547339,-0.0366600000000119,-0.3065550000000314,137.61438800000002,0.2007397633940802,106.7693386,0.1071682292812974,95.7069132,0.2661067582779312,0.03070568,-0.125082658,0.0245899545091562,0,0
11,366.6666666666666,500.44223,96.08128,0.9556437,502.61816,93.81113,0.9356467,498.25507,94.006905,0.90380967,506.52643,94.61281,0.79992586,495.31335,95.10534,0.64833266,511.98932,106.64175,0.9944621,492.1824,107.7051,0.99478817,519.7953,120.99542,0.96640533,487.29755,123.17062,0.95219,521.24445,134.22914,0.93815243,484.38416,136.23875,0.9141448,509.24033,138.10434,0.9943269,497.0673,138.46661,0.99450797,508.15234,162.8764,0.98076904,497.45627,163.13744,0.97816217,506.6012,186.53912,0.951997,499.00836,186.81485,0.94735897,0.92730779,-0.02530148,0.92092475,-0.10562754,157.7104905880615,175.0389676431164,178.76432217294817,177.15281181673797,1.9660217381670535,138.28547500000002,107.173425,96.08128,36.86029000000002,93.00372,0.3963313467855767,176.92698128853445,0.9323896158823528,-0.3003199999999992,0.2719400000000007,0.4051462279227094,-0.0734499999999798,0.0039799999999985,0.0735577521407296,-0.2752700000000345,0.2262900000000058,0.3563435659585025,-0.0591700000000514,-0.0299299999999931,0.0663090778099475,-0.3638599999999883,0.2506550000000089,0.4418393697091693,-0.0987899999999513,-0.0094749999999805,0.0992433359223177,-0.2065699999999992,0.1822200000000009,0.2754547028097361,0.0109600000000114,-0.0328239999999908,0.0346054414218291,-0.4423299999999699,0.2479599999999919,0.5070897262812266,-0.1150599999999713,0.0306099999999815,0.1190620665871051,-0.1166399999999612,0.1689199999999999,0.2052775097276634,0.2632000000000971,0.0862800000000021,0.2769810072912067,-0.408800000000042,0.3299499999999966,0.525342214656344,-0.1722000000000321,0.2120599999999939,0.273170795657238,0.0796000000000276,0.1124399999999923,0.1377639778752148,0.4437300000000732,0.1787249999999858,0.4783711305305326,-0.5115499999999997,0.5102959999999968,0.7225547800104822,-0.1748099999999794,0.4950819999999964,0.5250378298979888,0.1270500000000538,0.1154300000000034,0.1716560147504726,-0.0462499999998726,0.2034600000000068,0.208650507068617,-0.216669999999965,0.681650000000019,0.7152570247121035,0.1465500000000474,0.7970200000000318,0.8103812577423447,0.2235799999999699,0.4359900000000039,0.4899747916985015,0.3670499999999492,0.4938400000000058,0.6153077669751686,-0.0019000000000346,0.5273699999999906,0.5273734226333274,0.0166399999999384,0.542839999999984,0.5430949780655135,0.5120200000000068,0.567169999999976,0.7640983505413289,0.7665700000000584,0.5488199999999495,0.9427793789111184,0.1106900000000337,0.64846,0.6578393783439902,-0.0604899999999588,0.578329999999994,0.581484848469836,0.4199600000000032,0.4315899999999999,0.6021929339505758,0.8254499999999894,0.2957700000000045,0.8768395494045562,0.0125999999999635,0.5177000000000191,0.5178533093454352,-0.0197800000000825,0.3176900000000273,0.3183051751071927,0.4816800000000114,0.5183400000000233,137.79379899999998,0.3160460806473057,106.853631,0.2082054160978808,95.697684,0.2480649222078567,0.0221080899999999,-0.124689626,0.0249524250616875,0,0
12,400.0,500.13287,96.325294,0.9556224,502.32144,94.02368,0.9368818,497.9254,94.249344,0.90241706,506.2736,94.75492,0.8051976,494.97952,95.340126,0.6404179,511.82108,106.6978,0.99449086,491.92328,107.98259,0.994595,519.78046,120.94661,0.967166,487.09058,123.5936,0.94996876,521.1912,134.09436,0.93917525,484.17557,136.67204,0.9111792,509.36023,138.25992,0.99421716,497.13947,138.74295,0.99427056,508.42294,163.10214,0.98021275,497.84445,163.48236,0.9769836,506.9803,186.67915,0.9503312,499.66364,187.08167,0.9445908,0.88155509,-0.04667263,0.87425212,-0.10317108,156.93663631464523,175.36412304289107,178.65925190391192,177.22425222823796,2.531497544534336,138.501435,107.340195,96.325294,37.01562999999999,93.05799,0.3977694940781602,176.30557162738808,0.9316304647058824,-0.3093599999999696,0.2440139999999928,0.3940132507873025,-0.0090399999999704,-0.0279260000000078,0.0293527354091557,-0.2967199999999934,0.2125499999999931,0.3649935080244485,-0.0214499999999588,-0.0137400000000127,0.025473321338188,-0.3296699999999646,0.2424389999999903,0.4092175187122027,0.0341900000000237,-0.0082160000000186,0.0351633154864828,-0.2528300000000172,0.1421100000000024,0.2900314827738695,-0.0462600000000179,-0.0401099999999985,0.0612274423767769,-0.3338300000000345,0.2347859999999997,0.4081261259660093,0.1084999999999354,-0.0131739999999922,0.109296863065624,-0.1682400000000257,0.056049999999999,0.1773310466331503,-0.0516000000000644,-0.1128700000000009,0.1241055877066252,-0.2591199999999958,0.2774900000000002,0.3796628431911634,0.1496800000000462,-0.0524599999999964,0.1586069166209767,-0.0148400000000492,-0.0488099999999889,0.0510160925591168,-0.0944400000000769,-0.1612499999999812,0.1868702119119269,-0.2069700000000125,0.4229799999999954,0.4709019656998698,0.3045799999999872,-0.0873160000000012,0.3168486393469166,-0.0532500000000482,-0.1347800000000063,0.1449179454036208,-0.180300000000102,-0.2502100000000098,0.3084041732857091,-0.2085900000000151,0.4332899999999995,0.4808846142267455,0.0080799999999499,-0.2483600000000194,0.2484914002536282,0.1199000000000296,0.1555799999999862,0.1964208400348671,-0.1036799999999402,-0.2804100000000176,0.2989637277329768,0.0721700000000282,0.2763400000000047,0.2856086562063669,0.0740700000000629,-0.2510299999999859,0.2617296807777104,0.2706000000000017,0.2257400000000018,0.352395952871201,-0.241420000000005,-0.3414299999999741,0.4181603296583558,0.3881799999999771,0.3449200000000019,0.5192817335512424,0.2774899999999434,-0.3035399999999981,0.4112629714671228,0.379099999999994,0.1400299999999958,0.4041351394026437,-0.0408600000000092,-0.291560000000004,0.2944091934705897,0.6552800000000047,0.2668199999999956,0.7075201698891728,0.6426800000000412,-0.2508800000000235,0.6899118471225616,0.2159599999999955,-0.2657200000000159,138.00034399999998,0.3812158725119373,106.984154,0.2726666027495728,95.8667528,0.3353020072251067,0.00245646,-0.126212626,0.0228756461124955,0,0
13,433.33333333333337,499.95102,96.42346,0.9553392,502.16772,94.09981,0.93734103,497.73315,94.333755,0.90095305,506.1882,94.81557,0.8079956,494.80597,95.42215,0.6340625,511.80133,106.79508,0.9944621,491.8155,108.073746,0.9944646,519.7011,121.13637,0.967202,487.0517,123.64813,0.9484807,521.0716,134.52663,0.93907386,484.09766,136.66891,0.9091434,509.36496,138.32985,0.9941806,497.07266,138.80345,0.994181,508.32846,163.03378,0.98033774,497.54913,163.40198,0.97687984,506.94672,186.47318,0.95107013,499.38107,186.8505,0.944966,1.01652672,0.09874947,0.99019677,-0.2075704,156.9961285939414,175.7748725690729,179.02888650243207,176.64245232273586,2.5939584066164976,138.56664999999998,107.434413,96.42346,36.97393999999997,92.75069,0.3986378926276675,176.3392839073548,0.9311843147058824,-0.1818499999999971,0.0981660000000061,0.2066542669678034,0.1275099999999724,-0.1458479999999866,0.1937277450547264,-0.1537200000000211,0.0761300000000062,0.1715389614635913,0.1429999999999722,-0.1364199999999868,0.1976345526470219,-0.1922500000000013,0.0844110000000029,0.2099649480770564,0.1374199999999632,-0.1580279999999874,0.2094208804870849,-0.0853999999999928,0.0606499999999954,0.1047453220912429,0.1674300000000244,-0.0814600000000069,0.1861948884905525,-0.1735499999999774,0.0820240000000041,0.1919571282239678,0.160280000000057,-0.1527619999999956,0.2214179465265111,-0.0197499999999877,0.0972799999999978,0.0992646004374121,0.1484900000000379,0.0412299999999987,0.1541077317982818,-0.1077799999999911,0.091155999999998,0.14115928852186,0.1513400000000047,-0.1863340000000022,0.2400503179668842,-0.0793599999999514,0.1897599999999926,0.205686332068977,-0.0645199999999022,0.2385699999999815,0.2471405982431428,-0.038880000000006,0.0545299999999997,0.0669714513804235,0.1680900000000065,-0.3684499999999957,0.4049810496801042,-0.1195999999999912,0.4322700000000168,0.4485103264140219,-0.066349999999943,0.5670500000000231,0.5709185800094604,-0.0779099999999743,-0.0031299999999987,0.0779728478381801,0.1306800000000407,-0.4364199999999982,0.4555652300165247,0.004729999999995,0.0699299999999993,0.0700897838490023,-0.1151700000000346,-0.0856499999999869,0.1435271800043662,-0.0668100000000322,0.0604999999999904,0.0901322700257968,-0.1389800000000605,-0.2158400000000142,0.2567145223785031,-0.0944799999999759,-0.0683599999999842,0.1166171513971821,-0.3650799999999776,-0.294099999999986,0.4688050942555717,-0.2953200000000038,-0.080379999999991,0.3060634685812745,-0.6834999999999809,-0.4252999999999929,0.8050169811873336,-0.0335799999999721,-0.2059699999999793,0.208689379940594,-0.4126799999999662,-0.3459999999999752,0.5385357763416976,-0.2825699999999642,-0.2311699999999916,0.3650826944679464,-0.937849999999969,-0.4979899999999873,1.0618647101207994,0.0652149999999665,-0.150745000000029,138.199562,0.3601566697911448,107.1391496,0.2619927780699321,96.0361508,0.3646539917280231,-0.1043993199999999,-0.1405091919999999,0.0435683216756357,0,0
14,466.6666666666667,499.955,96.78558,0.9554686,502.1631,94.36807,0.92498404,497.68246,94.57021,0.91129816,505.89322,94.80571,0.73203695,494.5611,95.38046,0.6727659,511.99942,106.99374,0.99154305,490.66095,108.31408,0.99402183,520.568,121.31018,0.95988655,486.74677,123.807755,0.96322745,521.8886,135.1185,0.9424047,484.61624,136.5273,0.9408297,508.72742,137.74867,0.99404436,495.91956,138.23268,0.99492943,506.6983,162.77383,0.98671734,497.38614,163.04836,0.98677516,504.8002,186.01537,0.96858066,500.19452,186.38263,0.9690428,1.12087131,0.14935243,1.08845494,-0.22206348,154.56195447030166,175.33077161074024,179.96652155218098,176.51939841780754,1.875401287716059,137.990675,107.65391,96.78558,37.27235999999999,92.01456,0.4050702366552615,176.4592782344852,0.9346209811764706,0.0039799999999559,0.3621199999999902,0.3621418710947308,0.1858299999999531,0.263953999999984,0.3228072226824767,-0.0046199999999885,0.2682599999999979,0.2682997800968141,0.1491000000000326,0.1921299999999917,0.2431969302849165,-0.0506900000000314,0.2364550000000065,0.2418273002061725,0.1415599999999699,0.1520440000000036,0.2077416942647589,-0.2949800000000095,-0.0098599999999891,0.2951447441510782,-0.2095800000000167,-0.0705099999999845,0.2211231252040474,-0.2448699999999917,-0.0416900000000026,0.2483935848607933,-0.0713200000000142,-0.1237140000000067,0.1427994964837191,0.1980899999999792,0.1986600000000038,0.2805449049617428,0.2178399999999669,0.101380000000006,0.2402751963894459,-1.154549999999972,0.2403340000000042,1.179299001125642,-1.0467699999999809,0.1491780000000062,1.0573464468110545,0.8668999999999869,0.1738100000000031,0.8841524337465675,0.9462599999999384,-0.0159499999999894,0.9463944157167682,-0.3049299999999562,0.1596250000000054,0.3441837380309753,-0.2660499999999501,0.1050950000000057,0.2860551721695916,0.8170000000000073,0.5918700000000001,1.0088602960271615,0.9365999999999984,0.1595999999999833,0.9501008999048428,0.5185799999999858,-0.1416100000000142,0.5375673060185016,0.5964899999999602,-0.1384800000000154,0.6123536808903469,-0.6375400000000013,-0.5811799999999891,0.8626861793259407,-0.6422699999999963,-0.6511099999999885,0.914579129982737,-1.153099999999995,-0.5707700000000102,1.286630484210599,-1.086289999999963,-0.6312700000000007,1.2563947536502689,-1.6301599999999894,-0.2599500000000034,1.6507560777110493,-1.5356800000000137,-0.1915900000000192,1.547585148061343,-0.1629899999999793,-0.3536200000000065,0.3893749407704582,0.1323300000000244,-0.2732400000000154,0.3035973097707141,-2.146520000000009,-0.4578100000000233,2.194797964847804,-2.1129400000000373,-0.251840000000044,2.1278953990269778,0.8134499999999889,-0.4678700000000049,0.93840462456234,1.0960199999999531,-0.2367000000000132,1.1212879783534218,-0.5759749999999713,-0.6411899999999378,138.22960600000002,0.3274958163168707,107.3051866,0.2748658888081729,96.2849908,0.3671271537262947,-0.01449308,-0.153233626,0.0572555227612278,0,0
15,500.0,499.70276,96.74985,0.9554987,501.94553,94.30165,0.9265687,497.3825,94.51395,0.90984726,505.73602,94.750656,0.7400705,494.1575,95.3479,0.66435444,511.9185,106.854904,0.9921617,490.1109,108.27658,0.9940386,520.7961,121.059006,0.96364826,486.17978,123.93709,0.96265715,521.6555,134.57103,0.94663084,484.39133,136.67494,0.94026554,508.38177,137.87302,0.99461174,495.0672,138.36415,0.99521697,506.50842,162.56851,0.98788446,495.32083,162.8594,0.9873991,504.87042,185.4895,0.97102743,497.64804,185.91052,0.9705127,0.98763853,0.12331401,0.97373852,-0.10980351,151.63377031814818,173.9010318928903,179.74951572622854,174.82826180587304,1.3309018972933664,138.118585,107.565742,96.74985,37.26416999999998,91.60887,0.4067746888835687,176.27006489217544,0.9354349464705882,-0.252239999999972,-0.0357300000000009,0.2547580234261248,-0.2562199999999279,-0.3978499999999911,0.4732159241825617,-0.2175699999999665,-0.0664200000000079,0.2274825736182587,-0.212949999999978,-0.3346800000000058,0.3966842634892321,-0.2999599999999986,-0.0562600000000088,0.3051904146594388,-0.2492699999999672,-0.2927150000000154,0.3844705504001479,-0.1571999999999889,-0.0550539999999983,0.1665616489951883,0.1377800000000206,-0.0451940000000092,0.1450028483720458,-0.4035999999999831,-0.0325600000000037,0.4049112416320231,-0.1587299999999913,0.0091299999999989,0.1589923576779627,-0.0809199999999918,-0.1388359999999977,0.1606968615001489,-0.2790099999999711,-0.3374960000000016,0.4378928294868334,-0.5500499999999988,-0.0375000000000085,0.5513268109751234,0.6044999999999732,-0.2778340000000128,0.6652908999497699,0.2281000000000403,-0.251174000000006,0.3392904187801674,-0.6387999999999465,-0.4249840000000091,0.7672527877146745,-0.5669900000000325,0.1293349999999975,0.5815541267371733,-0.2620600000000763,-0.0302900000000079,0.2638047150830335,-0.2331000000000358,-0.5474700000000041,0.5950285799018574,-1.050100000000043,-1.1393400000000042,1.5494533376646424,-0.2249100000000226,0.1476399999999955,0.2690391750284869,-0.7434900000000084,0.2892500000000098,0.7977737414831465,-0.3456499999999778,0.1243499999999926,0.3673375082944605,0.2918900000000235,0.7055299999999818,0.7635262621547395,-0.852359999999976,0.1314700000000073,0.8624395228072291,0.3007400000000189,0.7022400000000175,0.7639277224973813,-0.1898800000000164,-0.2053200000000004,0.2796617900250344,1.440279999999973,0.054630000000003,1.4413156889800105,-2.065310000000011,-0.1889600000000086,2.073936179755792,-1.9023200000000315,0.1646599999999978,1.909432978137782,0.0702200000000061,-0.5258699999999976,0.5305375625721503,2.216740000000016,-0.0680599999999742,2.2177845682572657,-2.546480000000031,-0.4721100000000149,2.5898741750324805,-3.35993000000002,-0.00424000000001,3.3599326752927854,0.1279099999999857,0.703884999999957,138.292564,0.2450541494855016,107.433537,0.1886890100390429,96.4730928,0.2966765782281541,0.11225997,-0.1496472019999999,0.0597588791244959,0,0
16,533.3333333333334,499.27515,96.44705,0.9553102,501.56625,93.99752,0.93088543,497.0018,94.198715,0.9035902,505.47012,94.53529,0.76451075,493.87775,95.13365,0.633658,511.75623,106.7846,0.9929564,489.95456,108.244644,0.99375135,520.93414,120.98988,0.96941066,486.1998,123.94241,0.9592165,521.4934,134.71524,0.9536784,483.99783,136.80121,0.9368657,507.95203,138.02802,0.9952205,494.53912,138.49681,0.9953731,506.11923,162.58443,0.989394,494.14136,162.87248,0.9878697,505.0931,185.3425,0.9743759,496.4354,185.758,0.9720052,0.97581998,0.10415367,0.96096496,-0.13387676,149.4671527787167,176.26532164523223,178.3132038881544,173.34093825997894,0.7271735478981397,138.262415,107.514622,96.44705,37.49556999999993,91.76048000000002,0.4086243837366101,176.1686589057,0.9357689405882352,-0.4276100000000156,-0.3027999999999906,0.5239638843470107,-0.1753700000000435,-0.2670699999999897,0.3195012078224584,-0.3792799999999943,-0.3041300000000007,0.4861567394369804,-0.1617100000000277,-0.2377099999999927,0.2874998577391048,-0.3806999999999902,-0.315234999999987,0.494272794340316,-0.0807399999999916,-0.2589749999999782,0.2712692356773752,-0.2658999999999878,-0.215366000000003,0.3421773282320072,-0.1086999999999989,-0.1603120000000046,0.1936895127362378,-0.2797500000000354,-0.2142499999999927,0.3523678830427324,0.1238499999999476,-0.181689999999989,0.219886513001555,-0.1622699999999781,-0.0703040000000072,0.176845145016746,-0.0813499999999862,0.0685319999999904,0.1063694388628447,-0.1563400000000001,-0.0319360000000017,0.1595684921781244,0.3937099999999986,0.0055640000000067,0.3937493138990836,0.1380399999999326,-0.0691259999999971,0.1543808455605196,-0.0900600000001077,0.1820480000000088,0.2031065678505317,0.0200199999999881,0.0053199999999975,0.020714796643933,0.5870100000000207,-0.1240149999999999,0.5999670493660667,-0.1621000000000094,0.1442099999999868,0.2169629786392122,0.0710000000000263,0.691679999999991,0.6953144773410024,-0.3934999999999604,0.1262700000000052,0.4132630674279643,-0.1685899999999378,-0.0213699999999903,0.169939003763052,-0.429740000000038,0.1550000000000011,0.4568385574795903,-0.0840900000000601,0.0306500000000085,0.0895016793139136,-0.5280799999999886,0.1326600000000155,0.5444879815018804,0.3242799999999874,0.0011900000000082,0.3242821834452086,-0.389189999999985,0.0159199999999941,0.3895154714513766,-0.1993099999999685,0.2212399999999945,0.2977777924896096,-1.1794699999999807,0.0130800000000022,1.1795425245831346,0.8858400000000302,0.2020400000000108,0.9085882825570984,0.2226799999999684,-0.1469999999999913,0.2668246285483845,0.1524599999999623,0.3788700000000062,0.4083950642453863,-1.2126399999999649,-0.1525199999999813,1.222193978057456,1.333840000000066,0.3195900000000335,1.37159283816306,0.1438300000000083,0.0159200000000225,138.28795200000002,0.2454376195086282,107.5017764,0.1204653644800888,96.5462468,0.2076483727871878,-0.02407325,-0.155297046,0.055758109385595,0,0
17,566.6666666666666,498.52255,96.127975,0.9571452,500.91827,93.71681,0.94348305,496.26645,93.99891,0.9010457,505.25455,94.47966,0.828861,493.45444,95.274506,0.61686957,511.16232,106.61445,0.9949037,490.60022,108.2955,0.99450207,519.45386,120.78201,0.97091293,486.5824,123.93318,0.94755715,520.4592,134.52101,0.94490343,483.63507,136.87595,0.90871024,508.51752,138.40364,0.9945286,495.54752,138.98637,0.9943245,507.41754,162.97241,0.98141724,493.97537,163.44135,0.9771088,506.40613,186.31593,0.9540088,494.85977,186.8468,0.94647616,1.00799914,0.0967843,0.98405563,-0.19577942,153.84688091011972,178.41919308691897,179.91734199892232,174.15770439792618,2.1105448466633843,138.69500499999998,107.454975,96.127975,36.824130000000025,93.12999,0.3954057077059099,175.32619055459392,0.9327504788235292,-0.7525999999999726,-0.319074999999998,0.817444564251887,-0.324989999999957,-0.0162750000000073,0.3253972583243016,-0.6479800000000182,-0.2807099999999991,0.7061700818499911,-0.2687000000000239,0.0234200000000015,0.2697187171851685,-0.7353499999999826,-0.199805000000012,0.7620115881828696,-0.3546499999999923,0.115429999999975,0.3729620723344249,-0.2155700000000138,-0.0556300000000078,0.2226322568721945,0.050329999999974,0.1597359999999952,0.1674774569785314,-0.4233100000000149,0.1408559999999994,0.4461297668123172,-0.1435599999999794,0.3551059999999921,0.3830270810738955,-0.5939099999999939,-0.1701499999999924,0.6178026469674521,-0.4316400000000158,-0.0998459999999852,0.443037598083967,0.6456599999999639,0.0508560000000102,0.6476597627890391,0.8019999999999641,0.0827920000000119,0.8062620636393258,-1.4802799999999934,-0.2078699999999997,1.4948039387491523,-1.618319999999926,-0.1387440000000026,1.6242566053231124,0.3826000000000249,-0.0092300000000022,0.382711317966975,0.3625800000000367,-0.0145499999999998,0.3628718215844634,-1.0341999999999416,-0.1942300000000045,1.052280824162391,-0.8720999999999322,-0.3384399999999914,0.93546782071853,-0.362760000000037,0.0747399999999913,0.3703793800956333,0.0307399999999233,-0.0515300000000138,0.0600024041184744,0.5654900000000112,0.3756199999999978,0.6788735703354573,0.9952300000000492,0.2206199999999967,1.0193899829310156,1.0083999999999946,0.4895599999999831,1.120954750915474,1.5364799999999832,0.3568999999999676,1.5773865729110048,1.298309999999958,0.3879799999999989,1.3550414519489395,1.6874999999999432,0.3720600000000047,1.7280291935033425,-0.165990000000022,0.568870000000004,0.5925924037650262,1.0134799999999586,0.5557900000000018,1.155873796960515,1.313030000000026,0.9734300000000076,1.6345071874421608,1.0903500000000577,1.120429999999999,1.563402221886653,-1.5756299999999896,1.088799999999992,1.9152272285292808,-0.3629900000000248,1.2413199999999731,1.2933047137082396,0.4325899999999762,0.2887599999999679,138.326666,0.2973137168128301,107.5247324,0.0887335177558164,96.506783,0.2696366018272849,-0.06190266,-0.1738187139999999,0.0490976384227274,0,0
18,600.0,498.0854,96.09398,0.95598197,500.53055,93.67011,0.9429474,495.8617,93.95266,0.8977469,504.9718,94.43855,0.8308745,493.15674,95.254745,0.6073009,510.9502,106.62404,0.9947699,490.30505,108.41362,0.99423015,519.0863,120.80524,0.9700875,486.37906,124.282684,0.94436574,520.0404,134.3443,0.9432096,483.40762,137.33868,0.9038375,508.26147,138.56073,0.99443334,495.23712,139.18068,0.99415946,507.2962,163.30577,0.98154986,493.72687,163.80112,0.977008,506.27148,186.89684,0.9551038,494.60513,187.42609,0.94728386,1.13500065,0.12405095,1.12382789,-0.09924076,154.18703579925335,178.92574853261476,179.74669438024512,174.36080475890157,2.049037205615305,138.870705,107.51883,96.09398,36.63277999999997,93.75598,0.390724726137738,175.04582341327313,0.93146414,-0.437150000000031,-0.0339950000000044,0.4384698194004091,0.3154499999999416,0.2850799999999935,0.425181501126236,-0.3877200000000016,-0.0467000000000012,0.3905223276587414,0.2602600000000166,0.2340099999999978,0.349994210952135,-0.4047500000000354,-0.0462500000000005,0.4073838791607109,0.3305999999999471,0.1535550000000114,0.364520915757887,-0.2827500000000214,-0.0411099999999891,0.2857229332762969,-0.0671800000000075,0.0145200000000187,0.0687312359848239,-0.2976999999999634,-0.0197610000000025,0.2983551359051463,0.1256100000000515,-0.160617000000002,0.2039011838833055,-0.2121200000000271,0.0095899999999886,0.2123366725274071,0.3817899999999667,0.1797399999999811,0.4219834969521531,-0.2951699999999846,0.1181199999999904,0.3179271352055194,-0.9408299999999484,0.0672639999999802,0.9432314321500852,-0.3675599999999122,0.023229999999998,0.3682933430024704,1.1127200000000812,0.2310999999999978,1.1364651373448196,-0.2033400000000256,0.3495040000000102,0.4043515816910051,-0.5859400000000505,0.3587340000000125,0.687034035806137,-0.4188000000000329,-0.1767099999999857,0.4545545776911971,0.6153999999999087,0.0175200000000188,0.6156493404527356,-0.2274499999999761,0.4627300000000218,0.5156089171067636,0.1353100000000608,0.3879900000000305,0.4109075762261389,-0.2560500000000161,0.1570900000000108,0.300397853853871,-0.8215400000000272,-0.218529999999987,0.8501078358067518,-0.3104000000000155,0.1943100000000015,0.3662028619495078,-1.3188000000000102,-0.2952499999999816,1.3514458932935554,-0.1213399999999751,0.333359999999999,0.3547566563152737,-1.4196499999999332,-0.0546199999999998,1.4207003438092811,-0.2484999999999786,0.3597699999999975,0.4372490170371885,-0.0825099999999565,-0.2091000000000065,0.2247903692331937,-0.1346500000000219,0.5809099999999887,0.5963112028127535,-1.447680000000048,-0.3925200000000188,1.49994977675926,-0.2546400000000517,0.5792899999999861,0.6327862464529473,1.320989999999938,-0.5095100000000059,1.4158442782311345,0.1757000000000061,-0.2568899999999701,138.387477,0.3786416542987111,107.5416158,0.0740718351077052,96.440887,0.32884942168866,0.09653866,-0.1521527859999999,0.0541247289351945,0,0
19,633.3333333333333,497.98428,95.905815,0.9547067,500.22778,93.49919,0.9294563,495.74945,93.68733,0.9033074,504.11615,94.0838,0.7639017,492.78098,94.66394,0.63767636,510.64236,106.34476,0.9932226,488.85303,107.95775,0.99413645,519.8997,120.36401,0.9698435,484.94562,124.30002,0.9616432,520.475,133.20518,0.95389813,483.41724,138.04695,0.9392208,507.1625,138.09937,0.9957681,493.63028,138.61588,0.99596053,506.314,163.19586,0.99090564,493.14206,163.48236,0.98976314,504.8242,186.89569,0.97797227,494.07617,187.24704,0.9762023,1.29903452,0.22353735,1.27539112,0.10439931,149.12720035932128,172.8971966651948,178.3394520362189,176.6242705668503,1.1909391957403372,138.35762499999998,107.151255,95.905815,37.05776000000003,93.74785,0.3952918344762914,175.76631047332972,0.936916771764706,-0.1011199999999803,-0.1881649999999979,0.2136148909252237,0.3360300000000507,-0.1541699999999934,0.3697087364399603,-0.3027700000000095,-0.1709199999999953,0.3476827854524928,0.084949999999992,-0.124219999999994,0.1504895707349754,-0.1122499999999604,-0.2653299999999916,0.2880973297342179,0.292500000000075,-0.219079999999991,0.3654480762024066,-0.8556499999999687,-0.3547500000000099,0.9262745192435952,-0.5728999999999473,-0.3136400000000208,0.6531343350337301,-0.3757600000000138,-0.5908050000000031,0.7001757819469437,-0.0780600000000504,-0.5710440000000006,0.5763545901057859,-0.3078399999999988,-0.27928,0.4156474275151949,-0.0957199999999716,-0.2888699999999886,0.3043159465095248,-1.4520200000000043,-0.4558699999999902,1.5218999761153833,-1.15685000000002,-0.5739899999999807,1.2914203198804113,0.8134000000000015,-0.4412300000000044,0.9253666694343418,1.1809599999999136,-0.4644600000000025,1.2690112738663113,-1.433439999999962,0.0173360000000002,1.433544826817735,-1.2300999999999362,-0.33216800000001,1.2741591698935617,0.4346000000000458,-1.1391199999999913,1.219209389071467,0.8534000000000788,-0.9624100000000056,1.2862832378990814,0.0096199999999839,0.7082699999999988,0.7083353282873854,0.2370699999999601,0.245539999999977,0.341309356010013,-1.0989699999999516,-0.4613600000000133,1.1918842689203957,-0.8429199999999355,-0.6184500000000241,1.0454637865081322,-1.606839999999977,-0.5647999999999911,1.7032127951609322,-1.2964399999999614,-0.7591099999999926,1.5023330741549588,-0.9821999999999776,-0.109909999999985,0.98833043467251,-0.8608600000000024,-0.443269999999984,0.9682810710222473,-0.5848100000000045,-0.3187599999999975,0.6660410450565367,-0.3363100000000258,-0.678529999999995,0.7573026983974179,-1.447279999999978,-0.0011499999999955,1.447280456891454,-1.312629999999956,-0.5820599999999843,1.4358939238327693,-0.5289599999999837,-0.1790499999999895,0.5584421045193306,-0.2743199999999319,-0.7583399999999756,0.8064310373490876,-0.5130800000000022,-0.6887800000000084,138.46086699999998,0.3122446411390822,107.4410848,0.1667226019792104,96.264934,0.3336387486750699,0.20364007,-0.086860228,0.1132848481756804,0,0
20,666.6666666666666,497.3562,95.30939,0.9546912,499.5899,92.90825,0.9305964,495.1124,93.110565,0.9020471,503.5054,93.646736,0.770493,492.2021,94.282715,0.6312873,510.20648,106.183044,0.9933357,488.48978,107.846756,0.9940487,519.62463,120.34271,0.97044075,484.75638,124.38498,0.96058255,520.22565,132.79822,0.9544612,483.153,137.8775,0.9378348,506.68814,138.03088,0.9958261,493.21423,138.53961,0.99595296,505.95786,163.38997,0.99114627,492.92487,163.6622,0.9898835,504.24475,187.49182,0.97855616,493.61874,187.81075,0.97657347,1.27248667,-0.05625281,1.22527945,0.33874506,149.1331308050906,174.0560097431923,177.58389182217115,177.69424875456383,1.104918861029914,138.285245,107.0149,95.30939,37.07264999999995,94.90250000000002,0.3906393362594306,175.61913904696854,0.936926891764706,-0.6280800000000113,-0.5964250000000106,0.8661450611906916,-0.526960000000031,-0.4082600000000127,0.6666056324394829,-0.6378799999999956,-0.5909400000000034,0.8695406706991906,-0.335109999999986,-0.420020000000008,0.5373225404726638,-0.6370500000000447,-0.5767650000000089,0.8593547391648383,-0.5248000000000843,-0.3114350000000172,0.6102514229603232,-0.6107499999999959,-0.4370639999999923,0.7510262995368326,0.2448999999999728,-0.0823139999999824,0.2583633189831401,-0.5788800000000265,-0.3812250000000006,0.6931338651552318,-0.2031200000000126,0.2095800000000025,0.2918587171903662,-0.4358799999999974,-0.1617159999999984,0.4649122917884589,-0.1280399999999986,0.1175640000000015,0.1738261651650867,-0.3632499999999936,-0.1109940000000051,0.3798292123257458,1.088770000000011,0.3448759999999851,1.1420856221299756,-0.2750700000000279,-0.0212999999999965,0.2758934484543175,-1.0884700000000294,0.4199300000000079,1.1666653958183857,-0.1892400000000407,0.0849599999999952,0.2074366872084458,1.2441999999999211,0.067623999999995,1.246036374017951,-0.2493500000000494,-0.4069600000000264,0.4772754593524018,-0.6839500000000953,0.7321599999999648,1.0019210887590295,-0.2642399999999725,-0.1694500000000118,0.3139045716455711,-0.2738599999999564,-0.8777200000000107,0.9194518464824544,-0.4743600000000469,-0.068489999999997,0.4792789268265862,0.6246099999999046,0.3928700000000162,0.7378919223029167,-0.4160500000000411,-0.0762699999999938,0.4229831147930532,1.1907899999999358,0.4885299999999972,1.2871062057964933,-0.356140000000039,0.1941099999999949,0.4056037372855751,0.6260599999999386,0.30401999999998,0.6959736230633391,-0.2171900000000164,0.1798400000000128,0.2819821301075863,0.367619999999988,0.4986000000000103,0.619472698672025,-0.5794500000000085,0.5961299999999881,0.8313442604601271,0.8678299999999695,0.5972799999999836,1.0535047732686964,-0.457429999999988,0.5637100000000146,0.7259553491778992,0.0715299999999956,0.7427600000000041,0.7461963270480534,-0.0723799999999812,0.4407000000000209,138.49419899999998,0.2730008571050231,107.3309164,0.2326985112163635,95.976842,0.4207716319542787,0.23434575,0.002849486,0.2189224350994949,0,0
21,700.0,496.8906,95.2006,0.9599045,499.21875,92.85151,0.9361595,494.6896,93.02779,0.91571534,503.2416,93.75054,0.78801346,491.90115,94.43915,0.6752113,509.97595,106.46323,0.99501425,488.097,108.18021,0.9961868,518.61536,120.89253,0.9767214,484.594,124.553696,0.9766316,519.8561,133.34732,0.96213126,482.83685,138.45934,0.958821,506.0928,138.28128,0.996716,492.48212,138.82367,0.99715567,505.07953,163.285,0.9915264,491.62888,163.52557,0.9914072,503.28558,187.14311,0.9773572,491.9516,187.38652,0.97708,0.93132872,0.29747663,0.83150981,0.29575711,154.77833069082473,175.1258510519985,178.02050703312025,177.24682417728118,0.460674073462287,138.55247500000002,107.32172,95.2006,37.01924999999994,94.53501,0.3915930152057627,175.51283309561978,0.945397228235294,-0.4655999999999949,-0.108789999999999,0.4781407994513698,0.1624800000000164,0.4876350000000116,0.5139918711662828,-0.3711500000000001,-0.0567399999999906,0.3754620488145226,0.2667299999999954,0.5342000000000127,0.5970883794715914,-0.4227999999999952,-0.082774999999998,0.4308265783641901,0.2142500000000495,0.4939900000000108,0.5384507243936365,-0.2638000000000033,0.1038039999999966,0.2834884661075316,0.3469499999999925,0.540867999999989,0.6425826763335462,-0.3009500000000003,0.1564350000000018,0.3391796157274206,0.2779300000000262,0.5376600000000025,0.6052465286972055,-0.2305299999999874,0.2801860000000005,0.3628336746995715,0.2053500000000099,0.4419019999999989,0.487284311366581,-0.3927800000000161,0.3334540000000032,0.5152355757476523,-0.0295300000000224,0.4444480000000084,0.4454279353655412,-1.009270000000015,0.5498199999999969,1.1493163034169604,-0.7341999999999871,0.5711199999999934,0.930176163100288,-0.1623799999999846,0.1687160000000034,0.2341630907209677,0.026860000000056,0.0837560000000081,0.0879575302973223,-0.3695500000000038,0.5491000000000099,0.6618746199243583,-0.1201999999999543,0.9560600000000364,0.9635864069195136,-0.3161499999999932,0.5818399999999997,0.6621847235477389,-0.0519100000000207,0.7512900000000116,0.7530812122208465,-0.5953399999999647,0.2504000000000133,0.645855924800543,-0.1209799999999177,0.3188900000000103,0.3410674310161946,-0.7321099999999774,0.2840599999999824,0.7852866582974378,-0.3160599999999363,0.3603299999999763,0.4793032782069643,-0.8783300000000054,-0.1049700000000086,0.8845802901941752,-0.5221899999999664,-0.2990800000000035,0.6017734145839005,-1.2959900000000175,-0.1366300000000251,1.3031722207751562,-1.078800000000001,-0.316470000000038,1.1242609576517484,-0.9591700000000288,-0.3487099999999827,1.020590884243066,-0.3797200000000202,-0.9448399999999708,1.0182877314393808,-1.6671400000000176,-0.4242300000000227,1.720269418579566,-1.2097100000000296,-0.9879400000000372,1.5618654640205556,0.267230000000012,0.3396099999999933,138.552211,0.2402931442635949,107.292336,0.2094570233186497,95.727552,0.4412832491240304,-0.04298795,0.08877626,0.235527008940274,0,0
22,733.3333333333333,496.4883,95.048874,0.9600432,498.8596,92.60753,0.9385494,494.27533,92.88656,0.91256064,503.35254,93.28022,0.7923944,491.79706,94.15044,0.6573871,509.91483,105.85437,0.99437755,488.64157,107.727005,0.9955037,518.64136,120.47543,0.9721186,484.6417,124.89169,0.9675047,518.54755,132.66309,0.9557648,482.79123,139.0403,0.9446217,506.06805,138.2482,0.9956533,492.6109,138.70883,0.9960616,505.2936,164.1327,0.98867023,490.39755,164.32277,0.98785186,504.14423,188.5755,0.9693838,490.27194,188.8462,0.9681341,1.00021891,0.08179993,0.87744551,0.47311312,148.72827374535348,174.33382397010362,179.02151423021942,175.35469695821465,0.1117243041340619,138.47851500000002,106.7906875,95.048874,35.85012999999998,96.23867,0.3725127293164717,174.96935459657576,0.9409753341176472,-0.4023000000000252,-0.1517259999999964,0.4299605436269928,0.0632999999999697,-0.0429359999999974,0.0764878427986823,-0.3591499999999996,-0.2439800000000076,0.4341830983582888,0.0120000000000004,-0.1872400000000169,0.1876241391719262,-0.4142699999999877,-0.141229999999993,0.437682014480819,0.0085300000000074,-0.058454999999995,0.0590740884398527,0.1109399999999709,-0.4703200000000009,0.4832272612342917,0.3747399999999743,-0.5741239999999976,0.6856007839668636,-0.1040899999999851,-0.2887099999999947,0.3069009485159565,0.1968600000000151,-0.4451449999999965,0.4867318878242958,-0.0611200000000167,-0.6088599999999929,0.6119200552359706,0.1694099999999707,-0.8890459999999933,0.9050428377795044,0.5445700000000215,-0.4532049999999969,0.708485184689857,0.9373500000000377,-0.7866590000000002,1.223706420993643,0.0259999999999536,-0.4170999999999907,0.4179095715582377,1.0352699999999686,-0.9669199999999876,1.4165868343662915,0.0477000000000202,0.3379939999999948,0.3413432788791928,0.2100800000000049,0.1692779999999913,0.269793713203253,-1.3085499999999683,-0.6842299999999852,1.4766427446745192,-0.9389999999999644,-1.2333299999999952,1.550104476769202,-0.0456200000000421,0.5809600000000046,0.582748407119238,0.2705299999999511,-0.0008799999999951,0.2705314312607197,-0.0247499999999831,-0.0330800000000124,0.0413140278840007,0.5705899999999815,-0.2834800000000257,0.6371293891353572,0.1287800000000061,-0.1148399999999867,0.1725471355890862,0.8608899999999835,-0.3988999999999691,0.9488165271009706,0.2140700000000492,0.8477000000000032,0.874311875076638,1.0924000000000549,0.952670000000012,1.449454341778361,-1.2313299999999572,0.7972000000000037,1.4668678907454142,0.0646600000000603,0.9338300000000288,0.9360659082030824,0.8586500000000115,1.432389999999998,1.670036207571565,1.81782000000004,1.7810999999999808,2.5449531945401427,-1.6796600000000126,1.45968000000002,2.225291760196874,-0.0125199999999949,1.8839100000000428,1.8839516019527045,-0.0739599999999995,-0.3411900000000116,138.508913,0.2272831772702934,107.1594785,0.279478610617165,95.5117318,0.4599720314716493,0.17735601,0.222554768,0.2231318717049821,0,0
23,766.6666666666667,495.92233,95.25732,0.9602237,498.35822,92.8356,0.94158244,493.79462,93.05475,0.90969366,503.0755,93.40698,0.8068039,491.47946,94.14759,0.6367877,509.74664,105.85213,0.99445844,488.37875,107.44087,0.99527955,518.0092,120.73302,0.9735231,484.18744,124.61597,0.96551514,517.55493,132.5534,0.9574464,482.01544,138.85664,0.9420881,505.50598,138.0851,0.9955473,491.96027,138.35384,0.9958228,505.1493,164.17476,0.98835456,489.52396,164.13985,0.9870117,504.57605,188.83891,0.9682943,489.63025,188.77753,0.9659859,1.30351807,-0.21862444,1.20882121,0.43602066,148.75807887508168,174.95788931014954,179.45180831260157,174.35543059272848,0.5982260186858774,138.21947,106.6465,95.25732,35.99375999999995,96.00331,0.374922069094054,175.7477827266256,0.9402599229411766,-0.565969999999993,0.2084460000000092,0.6031349565528398,-0.1636699999999677,0.3601720000000057,0.3956156448928601,-0.5013799999999833,0.2280700000000024,0.5508156037186895,-0.1422299999999836,0.4720500000000101,0.4930117396168217,-0.4807099999999877,0.1681899999999956,0.5092837914169139,-0.06644,0.3094199999999887,0.3164727634410156,-0.2770399999999995,0.1267600000000044,0.3046625333052964,-0.3879799999999704,0.5970800000000054,0.7120625020319379,-0.3175999999999703,-0.0028500000000093,0.3176127870536405,-0.2135099999999852,0.2858599999999853,0.3567947024550467,-0.1681899999999814,-0.0022400000000004,0.1682049158021065,-0.1070699999999647,0.6066199999999924,0.615996598448387,-0.2628199999999765,-0.2861350000000016,0.3885197429024535,-0.807389999999998,0.1670699999999954,0.8244943887013394,-0.632159999999999,0.2575899999999933,0.6826264525346166,-0.6581599999999526,0.674689999999984,0.942539750726682,-0.4542600000000334,-0.2757199999999926,0.5313884323167247,-0.5019600000000537,-0.6137139999999874,0.7928484819913818,-0.992619999999988,-0.1096900000000005,0.9986622855099598,0.3159299999999803,0.5745399999999847,0.6556736814147491,-0.7757899999999722,-0.1836600000000032,0.7972334160708257,-0.73016999999993,-0.7646200000000078,1.057256815206178,-0.5620700000000056,-0.1630999999999858,0.5852557517017681,-0.5373200000000224,-0.1300199999999733,0.5528272630759243,-0.6506300000000351,-0.354990000000015,0.7411729197697771,-0.7794100000000412,-0.2401500000000282,0.8155684953454724,-0.1443000000000438,0.0420599999999922,0.1503048023185287,-0.3583700000000931,-0.805640000000011,0.8817510229651477,-0.8735900000000356,-0.1829199999999957,0.8925352735326826,0.3577399999999215,-0.9801199999999994,1.0433662453807593,0.4318200000000161,0.2634099999999932,0.5058194742198152,-0.4268299999999954,-1.1689800000000048,1.2444669900403174,-0.6416899999999828,-0.0686699999999973,0.6453538757921715,1.0379700000000298,-1.5283500000000174,1.8474943689765648,-0.2590450000000146,-0.185085000000015,138.378666,0.1366500682585504,106.9850125,0.2712262387288387,95.3443998,0.3286371423776541,-0.0370924599999999,0.3296070519999999,0.1447978732067118,0,0
24,800.0,495.54053,95.43524,0.9603509,498.00528,93.01178,0.94163585,493.4451,93.21893,0.910333,502.78604,93.55162,0.8080054,491.17593,94.26061,0.640098,509.32422,106.01993,0.99457824,488.00607,107.54248,0.99546957,517.11633,120.84065,0.97382486,483.5974,124.65851,0.9668642,516.8755,132.61037,0.9578619,481.69452,139.08574,0.94381195,504.95462,138.5796,0.9957302,491.41315,138.80928,0.9960389,504.906,164.42267,0.9888215,488.9024,164.33263,0.9876587,504.18958,188.89078,0.96968687,488.61346,188.7372,0.96770346,1.05038277,-0.10415367,0.96587787,0.39941948,151.09428457768826,173.06963540120648,178.43066368840184,175.060174543015,0.8640890080418857,138.69444,106.781205,95.43524,35.42180999999994,95.879,0.3694428355589556,175.9148511719801,0.9410866764705882,-0.3817999999999983,0.1779199999999861,0.4212205673990692,0.1841699999999946,-0.0305260000000231,0.1866826868673135,-0.3529399999999896,0.1761800000000022,0.3944693093258251,0.1484399999999937,-0.0518900000000002,0.1572482295607748,-0.349519999999984,0.1641800000000017,0.3861596856223982,0.1311900000000037,-0.0040099999999938,0.1312512712319424,-0.2894599999999627,0.1446399999999954,0.3235858791727122,-0.0124199999999632,0.017879999999991,0.0217704111123048,-0.3035300000000234,0.1130200000000059,0.3238888409624751,0.0140699999999469,0.1158700000000152,0.1167211283358845,-0.4224199999999882,0.1677999999999997,0.4545277729688143,-0.2542300000000068,0.1700400000000002,0.3058537142164592,-0.3726800000000025,0.1016099999999937,0.3862835415857121,-0.109860000000026,0.3877449999999953,0.4030079461065279,-0.8928700000000163,0.1076300000000003,0.8993336721150994,-0.2607100000000173,-0.149959999999993,0.3007618754097781,-0.5900399999999877,0.0425400000000024,0.5915715114844406,-0.1357799999999542,0.3182599999999951,0.3460139245752755,-0.6794300000000248,0.0569699999999784,0.681814275151255,0.3131899999999632,0.1666599999999789,0.3547725069674508,-0.320920000000001,0.2290999999999883,0.3943050296407532,0.4548699999999712,0.4127599999999916,0.6142292198356952,-0.5513600000000451,0.4944999999999879,0.7406268288416494,0.0107099999999604,0.6575999999999738,0.6576872084053061,-0.5471200000000067,0.45544000000001,0.7118749103599709,0.1035100000000284,0.8104300000000251,0.8170135280398033,-0.2432999999999765,0.2479100000000187,0.3473532180648365,-0.0989999999999327,0.2058500000000265,0.2284189626541491,-0.6215599999999881,0.192779999999999,0.6507695152663383,0.2520300000000475,0.3756999999999948,0.4524042560586936,-0.3864700000000312,0.051870000000008,0.389935325150242,-0.8182900000000473,-0.2115399999999851,0.8451909226323192,-1.0167900000000143,-0.0403300000000115,1.017589511050517,-0.3751000000000317,0.0283399999999858,0.3761690651821638,0.4749699999999848,0.7340149999999994,138.446029,0.1944701719867908,106.9110025,0.264937831410485,95.2502848,0.1421145967349825,-0.03660118,0.388611086,0.0717871232288542,0,0
25,833.3333333333334,495.2179,95.47833,0.96310896,497.88812,93.08004,0.9445384,493.12476,93.162415,0.9158293,502.71002,93.65985,0.8226266,490.7838,94.093475,0.6598727,509.269,106.27252,0.9957072,486.97025,107.50244,0.9965172,516.40314,121.38187,0.97810674,482.8833,124.282776,0.9748438,517.3275,133.86125,0.96264136,480.50043,139.13965,0.9547366,504.55026,138.55765,0.9966773,490.39478,138.78802,0.9970425,504.57422,163.54039,0.9909662,488.38788,163.42052,0.99047685,503.9987,187.75473,0.9744907,488.3449,187.39417,0.9733223,0.92063156,0.14591339,0.8243861,0.38296124,158.96107214562028,175.42375046994292,178.58351145015857,175.44490955686595,1.1663886698199688,138.672835,106.88748,95.47833,36.82706999999999,94.67469,0.3889853730813866,176.84296680334165,0.9465591005882352,-0.3226300000000037,0.0430900000000065,0.3254948002656924,0.0591699999999946,-0.1348299999999795,0.1472420381548485,-0.1171600000000125,0.0682599999999951,0.1355945913375688,0.235779999999977,-0.1079200000000071,0.25930471418775,-0.3203400000000442,-0.0565150000000045,0.3252870437398773,0.0291799999999398,-0.2206950000000063,0.2226157124396192,-0.0760200000000281,0.108230000000006,0.1322602483742019,0.2134399999999345,-0.0364099999999893,0.216523259027688,-0.3921300000000087,-0.1671350000000018,0.4262628826499059,-0.0885999999999853,-0.2801550000000077,0.2938312169001138,-0.0552200000000198,0.2525899999999978,0.2585555191830201,0.3671999999999684,0.0847899999999981,0.3768622879779516,-1.035820000000001,-0.0400399999999905,1.0365935915294873,-0.6631399999999985,-0.1416499999999843,0.6780998319569129,-0.7131899999999405,0.5412200000000098,0.895298310341266,0.1796800000000757,0.4335900000000094,0.4693454916157557,-0.7140999999999735,-0.3757340000000084,0.8069168784676453,-0.1240599999999858,-0.4182740000000109,0.4362843369592881,0.4519999999999982,1.2508800000000235,1.330039388288955,1.131430000000023,1.193910000000045,1.6448571162870531,-1.194090000000017,0.0539100000000019,1.195306327348785,-0.873170000000016,-0.1751899999999864,0.8905713811930087,-0.4043599999999969,-0.0219500000000039,0.4049553211157963,0.1470000000000482,-0.5164499999999919,0.5369633157861026,-1.0183699999999476,-0.0212600000000122,1.0185918930071522,-0.4712499999999409,-0.4767000000000223,0.6703129511653236,-0.3317799999999806,-0.8822800000000086,0.9426006401440656,-0.0884800000000041,-1.1301900000000271,1.1336481581602216,-0.5145200000000045,-0.9121099999999842,1.0472227473178646,0.1070399999999835,-1.1048899999999833,1.110062824213098,-0.1908799999999928,-1.1360500000000116,1.151974295242747,0.1955900000000383,-1.1879200000000196,1.2039141890101892,-0.2685599999999795,-1.3430299999999988,1.3696182148686495,0.748230000000035,-1.302699999999987,1.5022900595091546,-0.0216049999999938,-0.4965749999999787,138.52354699999998,0.1915847439974838,106.8855185,0.2584954855843512,95.2840728,0.1757763339279437,-0.01645824,0.397454322,0.0666480501251374,0,0
26,866.6666666666667,494.99097,95.04274,0.9608324,497.53397,92.597626,0.9411878,492.81802,92.77547,0.9151302,502.19836,93.23518,0.80237716,490.2361,93.83433,0.65980315,508.538,105.8736,0.99458045,486.3839,107.35285,0.99568224,516.2734,120.740875,0.97290784,481.53677,124.627686,0.96854556,516.2424,133.02824,0.95628285,480.6943,139.90877,0.94537795,504.29086,138.7068,0.9957016,490.17572,138.99976,0.99611545,504.8369,164.21674,0.988456,488.05115,164.16336,0.9876231,504.03708,188.30865,0.9688885,488.13538,188.1883,0.9675107,0.95197205,0.17760165,0.85533742,0.37829398,152.3676181133134,167.48207155401207,176.8723231653079,174.97307075014885,0.4048334154026229,138.85327999999998,106.613225,95.04274,35.57910000000004,95.711024,0.3717346042423017,176.1799774312293,0.942176644117647,-0.2269299999999816,-0.4355900000000048,0.4911576864918189,0.0957000000000221,-0.4786800000000113,0.4881526732488669,-0.3541500000000042,-0.4824139999999914,0.5984525794881285,-0.2369899999999916,-0.5506739999999866,0.5995048910359124,-0.3067399999999907,-0.3869449999999972,0.4937771365960479,0.0136000000000535,-0.3304299999999927,0.3307097593056434,-0.5116600000000062,-0.4246700000000061,0.6649365116310064,-0.435639999999978,-0.5329000000000121,0.688305614970555,-0.5476999999999634,-0.2591450000000037,0.6059137075730849,-0.1555699999999547,-0.0920100000000019,0.1807425378818895,-0.7309999999999945,-0.3989200000000039,0.8327653729592718,-0.6757799999999747,-0.6515100000000018,0.9386926485809762,-0.5863500000000386,-0.1495900000000034,0.6051309697908761,0.4494699999999625,-0.1095500000000129,0.4626278022341168,-0.1297399999999697,-0.6409950000000038,0.6539931632861287,0.5834499999999707,-1.1822150000000136,1.3183498051446731,-1.3465300000000298,0.3449099999999987,1.3900021399264388,-0.6324300000000562,0.7206440000000072,0.9587989776987048,-1.0851000000000113,-0.8330100000000016,1.367972101360268,-1.5371000000000097,-2.083890000000025,2.5894543715037988,0.1938700000000039,0.7691200000000151,0.7931778812473435,1.387960000000021,0.7152100000000132,1.5613962679922342,-0.259399999999971,0.1491499999999916,0.2992224632275833,0.1449600000000259,0.1710999999999956,0.2242512242999043,-0.2190600000000131,0.2117400000000202,0.3046655727187013,0.7993099999999345,0.2330000000000325,0.8325776096556466,0.2626799999999889,0.6763499999999851,0.7255688147239889,0.5944599999999696,1.5586299999999935,1.668145727596946,-0.3367299999999886,0.742840000000001,0.8155969338466115,0.1777900000000158,1.6549499999999853,1.664472525036072,0.0383800000000178,0.5539200000000051,0.5552480443909794,0.2292600000000106,1.6899700000000166,1.7054497203084178,-0.2095199999999977,0.7941299999999956,0.8213045033968778,0.0590399999999817,2.1371599999999944,2.13797534765955,0.1804449999999917,0.2020499999999856,138.583708,0.2432124323664127,106.7438195,0.1126483830387052,95.2525008,0.206081982698992,-0.00466726,0.413961696,0.0400941988853623,0,0
27,900.0,494.37585,94.83498,0.9644591,497.0878,92.39322,0.94353825,492.1485,92.453125,0.92222637,501.7952,92.94128,0.80838275,489.4229,93.28054,0.6822564,508.12894,105.66354,0.99554473,485.0476,106.8638,0.9966679,515.3016,121.11351,0.9764248,480.60587,124.05066,0.9764816,516.297,134.05222,0.9602628,478.86917,139.51768,0.9567418,503.72156,138.77032,0.996534,489.01697,139.10625,0.9970516,504.3756,164.33134,0.9902624,487.59732,164.31174,0.99023753,504.25952,188.9057,0.97210354,488.1488,188.66376,0.9718388,0.53218737,-0.027021,0.48048248,0.22722203,159.4960889732496,171.9162368231069,178.26362526196974,175.4790235982345,0.3842866847959109,138.938285,106.26367,94.83498,37.42783000000003,96.51248,0.3878030034270907,177.02322547025088,0.9471184923529412,-0.6151199999999903,-0.2077599999999932,0.6492586788022054,-0.3881900000000087,0.2278300000000115,0.4501088590552423,-0.446169999999995,-0.2044060000000058,0.4907641813906125,-0.0920199999999908,0.2780079999999856,0.2928414732649566,-0.6695199999999772,-0.3223449999999985,0.7430769337188233,-0.3627799999999865,0.0645999999999986,0.3684867547144538,-0.4031599999999571,-0.2938999999999936,0.498914016239233,0.1085000000000491,0.1307700000000125,0.1699206959143409,-0.8131999999999948,-0.5537899999999922,0.9838585284988808,-0.2655000000000314,-0.2946449999999885,0.396618111065304,-0.4090600000000108,-0.2100599999999985,0.4598426765753786,0.3219399999999837,0.1888600000000053,0.3732471877991735,-1.3362999999999945,-0.489050000000006,1.422978423061991,-0.7499499999999557,-0.3394600000000025,0.823199911382366,-0.9718000000000302,0.3726350000000025,1.0407939677116986,-0.8420600000000604,1.0136300000000062,1.3177673620560324,-0.9309000000000084,-0.5770260000000036,1.0952323108254338,0.4156300000000215,-0.9219360000000024,1.0112933723682866,0.0546000000000503,1.0239799999999946,1.0254346397503815,1.1397000000000617,1.856989999999996,2.178836375247147,-1.8251300000000013,-0.3910899999999913,1.8665612513389425,-2.019000000000005,-1.1602100000000064,2.3286150914438477,-0.5692999999999984,0.0635200000000111,0.5728326809811043,-0.3099000000000274,-0.0856299999999805,0.3215128409566461,-1.1587499999999975,0.1064899999999795,1.1636329673054089,-0.9396899999999846,-0.1052500000000407,0.9455658933146752,-0.4612999999999942,0.1146000000000242,0.4753218383369317,-0.7239799999999832,-0.5617499999999609,0.9163569735097408,-0.4538299999999822,0.1483799999999746,0.4774707250711569,-0.1170999999999935,-0.5944600000000264,0.6058837360418498,0.2224400000000059,0.5970499999999959,0.6371406878390343,0.1840599999999881,0.0431299999999907,0.1890457100809083,0.0134199999999964,0.4754599999999982,0.475649354041397,0.2229399999999941,-0.3186699999999973,0.3889123455227356,0.0850050000000237,-0.095439999999968,138.675662,0.2779346776359589,106.638416,0.2364085852237225,95.209722,0.2709191532910641,-0.1510719499999999,0.364783478,0.0801724787650384,0,0
28,933.3333333333334,493.84723,94.57012,0.95992965,496.39407,92.01478,0.94047654,491.4365,92.23154,0.9148522,501.24164,92.65469,0.78701377,488.40167,93.25313,0.65693706,507.3139,105.328476,0.9939428,485.08398,106.62213,0.99483985,515.47705,120.734604,0.96202874,480.51343,124.39981,0.95211023,517.1868,133.90186,0.93153906,478.23138,139.46585,0.9113477,503.55615,139.10965,0.99358,489.43103,139.36023,0.99398625,503.97543,165.04898,0.97712964,487.44897,164.95058,0.9752279,503.53717,189.90015,0.9438987,488.88245,189.7148,0.9413273,0.41144042,-0.17219745,0.3687138,0.06067442,159.4808835184799,174.19491260215065,178.06362787760128,172.25821122618967,0.5077693951861094,139.23494,105.975303,94.57012,38.95541999999995,97.88537,0.3979697844737182,176.6694701560543,0.9311863170588236,-0.5286199999999894,-0.2648599999999987,0.5912612992577716,0.0865000000000009,-0.0571000000000054,0.1036468040993102,-0.6937300000000164,-0.3784399999999976,0.7902392969854264,-0.2475600000000213,-0.1740339999999918,0.3026116104117747,-0.7119999999999891,-0.2215850000000045,0.7456835201511338,-0.0424800000000118,0.1007599999999939,0.1093486533982005,-0.5535600000000045,-0.2865900000000039,0.6233478175946453,-0.1504000000000473,0.0073099999999897,0.1505775418182077,-1.0212300000000027,-0.0274100000000032,1.0215977784823174,-0.2080300000000079,0.526379999999989,0.5659968067931052,-0.8150400000000104,-0.3350640000000027,0.8812253319645429,-0.4059799999999995,-0.1250040000000041,0.4247890775620304,0.0363800000000082,-0.2416699999999991,0.244392907630316,1.3726800000000026,0.2473800000000068,1.3947929046277838,0.1754499999999552,-0.3789060000000006,0.417555336854871,1.1472499999999854,-0.7515410000000031,1.371494235197863,-0.0924399999999536,0.3491500000000087,0.3611798389999053,0.8384600000000546,0.9261760000000124,1.2493266804867789,0.8897999999999229,-0.1503600000000062,0.9024146328600088,0.8351999999998725,-1.1743400000000008,1.4410529052050065,-0.6377899999999954,-0.0518300000000238,0.6398925167557413,1.187340000000006,0.3392599999999675,1.2348577339920548,-0.1654100000000085,0.3393299999999897,0.3774987642363823,0.4038899999999898,0.2758099999999786,0.4890790204046581,0.4140600000000063,0.2539800000000127,0.4857484163638742,1.572810000000004,0.1474900000000332,1.579710288692209,-0.4001700000000028,0.7176399999999887,0.8216709794680509,0.0611299999999914,0.6030399999999645,0.6061304467686441,-0.1483500000000503,0.6388400000000161,0.6558385991233174,0.3054799999999318,0.4904600000000414,0.5778140202521906,-0.7223500000000058,0.9944500000000004,1.2291136338841944,-0.9447900000000118,0.3974000000000046,1.0249658063077158,0.7336500000000115,1.0510400000000004,1.2817672971721574,0.720230000000015,0.5755800000000022,0.9219672387346658,0.296654999999987,0.2116499999999632,138.878756,0.2277255016300152,106.5041766,0.3785196473834252,95.072282,0.3892188109790512,-0.1665476099999999,0.28971423,0.1457233067213691,0,0
29,966.6666666666666,493.2836,94.5036,0.9619306,495.8586,91.919426,0.94310087,490.81754,92.14809,0.91942275,500.7606,92.4396,0.7899245,487.6904,93.07897,0.6651138,506.79724,104.895454,0.9943404,484.32077,106.28129,0.99528694,514.9485,120.46887,0.9647514,479.62878,124.328125,0.956769,516.82025,133.87924,0.9359068,476.77032,139.79895,0.9185209,502.88388,138.73087,0.99411964,488.52133,139.0091,0.9945651,503.56107,165.24994,0.9783917,486.17422,165.18903,0.97682935,503.48587,190.64522,0.9455315,487.38733,190.54057,0.9433948,0.34035193,-0.10538189,0.31393487,0.07860654,160.3177683895935,175.894511142967,178.36754935622346,172.1373546993466,0.2476109339601152,138.869985,105.588372,94.5036,40.04992999999996,98.725794,0.4056683463526423,176.4717696495294,0.9339941205882354,-0.563630000000046,-0.066519999999997,0.5675417934390836,-0.0350100000000566,0.1983400000000017,0.2014061957835574,-0.5354699999999752,-0.0953540000000003,0.5438938372660362,0.1582600000000411,0.2830859999999973,0.3243206915940015,-0.6189600000000155,-0.0834499999999991,0.6245601525073617,0.0930399999999735,0.1381350000000054,0.1665464494517868,-0.4810400000000072,-0.2150900000000035,0.526937557685926,0.0725199999999972,0.0715000000000003,0.1018400726629731,-0.7112700000000132,-0.1741600000000005,0.7322818572790254,0.3099599999999896,-0.1467499999999972,0.3429442580070305,-0.5166600000000017,-0.433021999999994,0.6741258102787614,0.2983800000000087,-0.0979579999999913,0.314048394620962,-0.763210000000015,-0.34084,0.8358596830210338,-0.7995900000000233,-0.0991700000000008,0.8057163626239928,-0.5285499999999956,-0.265734000000009,0.5915907886842054,-0.7039999999999509,0.1131719999999916,0.7130384993700754,-0.8846500000000219,-0.0716850000000022,0.8875496390202855,-0.7922100000000682,-0.4208350000000109,0.8970500439357424,-0.3665499999999611,-0.0226199999999892,0.3672472830396039,-1.256349999999884,0.127740000000017,1.2628273160253198,-1.461059999999975,0.3331000000000017,1.498549943645499,-0.8232699999999795,0.3849300000000255,0.90881494144847,-0.6722700000000259,-0.3787799999999777,0.7716354328956245,-0.5068600000000174,-0.7181099999999674,0.8789704384676261,-0.9097000000000436,-0.3511300000000119,0.97511351487921,-1.3237600000000498,-0.6051100000000247,1.4555063207352146,-0.4143600000000447,0.2009600000000091,0.4605205003037766,-0.0141900000000418,-0.5166799999999796,0.5168748189842296,-1.2747499999999832,0.2384500000000002,1.296860040636597,-1.1263999999999328,-0.4003900000000158,1.195445152275863,-0.0513000000000261,0.7450699999999983,0.7468339808150136,0.6710499999999797,-0.2493800000000021,0.7158899963681388,-1.4951199999999858,0.8257700000000057,1.7080046566973894,-2.2287699999999973,-0.2252699999999947,2.2401255067071544,-0.364955000000009,-0.661609999999996,138.913865,0.2045586404619646,106.26561,0.5124674896073412,94.885954,0.3949794996958033,0.01793212,0.2255516419999999,0.1556343108801252,0,0
30,1000.0,492.76974,94.46212,0.9658797,495.53992,92.01049,0.944245,490.50226,92.04164,0.9257873,500.0974,92.51084,0.8034546,487.54813,92.76564,0.6879521,506.13898,105.24951,0.995685,482.81885,106.46266,0.9967733,513.85114,120.77069,0.977104,478.6857,123.95393,0.9774105,517.0779,134.42146,0.96119934,475.11526,140.08508,0.9581011,501.02817,138.54953,0.9967836,486.28918,138.92184,0.9972729,501.96747,164.81165,0.9910642,485.41263,164.83585,0.99108785,503.80545,190.10132,0.9741744,487.5683,189.9329,0.9739295,0.91061195,-0.02038857,0.82315787,0.38885673,166.8775705397665,179.18551692795498,177.89160202551568,173.15341134133791,1.4291183751634309,138.735685,105.856085,94.46212,41.96264000000002,98.09082999999998,0.4277937047959154,177.0220674452679,0.9481120229411764,-0.5138599999999656,-0.041480000000007,0.51553146363725,0.0497700000000804,0.0250399999999899,0.0557140422156524,-0.3186800000000289,0.0910640000000029,0.3314356566454777,0.2167899999999463,0.1864180000000033,0.2859188255851264,-0.3152800000000297,-0.1064499999999952,0.3327658048838819,0.3036799999999857,-0.0229999999999961,0.3045497371530489,-0.6632000000000176,0.071240000000003,0.6670152753873211,-0.1821600000000103,0.2863300000000066,0.3393628360619464,-0.1422699999999963,-0.3133299999999934,0.3441169013576561,0.5690000000000168,-0.1391699999999929,0.5857723865974028,-0.6582599999999843,0.3540559999999999,0.7474368727430961,-0.1415999999999826,0.787077999999994,0.7997139101478637,-1.5019199999999842,0.1813700000000011,1.5128313730551577,-0.7387099999999691,0.5222100000000012,0.9046522802712408,-1.0973599999999806,0.3018200000000064,1.1381099604168137,-0.5688099999999849,0.5675540000000154,0.8035311811099806,-0.943080000000009,-0.3741950000000003,1.0146042501512682,-0.0584299999999871,-0.302509999999998,0.308101225249101,0.2576500000000123,0.5422199999999862,0.6003216228822608,0.6241999999999734,0.5648399999999754,0.8418253177470603,-1.6550600000000486,0.2861300000000142,1.679611258744168,-0.1940000000000736,-0.0469699999999875,0.1996050623106223,-1.855709999999988,-0.1813400000000058,1.8645492215814408,-1.183439999999962,0.1974399999999718,1.1997969774924,-2.23214999999999,-0.0872599999999863,2.2338549483124357,-1.3224499999999466,0.2638700000000256,1.3485182161913396,-1.5935999999999808,-0.4382900000000234,1.6527731496185312,-1.179239999999936,-0.6392500000000325,1.341360331939144,-0.7615900000000124,-0.3531800000000089,0.8394971354924478,0.5131599999999708,-0.5916300000000092,0.7831725496338472,0.3195800000000304,-0.5439000000000078,0.6308395884850823,0.3708800000000565,-1.2889700000000062,1.341266429647763,0.180970000000002,-0.607670000000013,0.634044927272521,1.676089999999988,-1.4334400000000187,2.2054541304910456,-0.1342999999999961,0.2306550000000129,138.926435,0.1872428747313193,106.059331,0.3932953760018304,94.682712,0.2481051198986957,0.31025019,0.22673074,0.1571400440341544,0,0
31,1033.3333333333337,492.37744,94.61026,0.96594375,495.10233,92.11879,0.9440005,489.9026,92.23581,0.9294117,499.54678,92.78457,0.7971255,486.62183,93.22203,0.7080756,505.83066,105.50975,0.9954118,481.92163,107.09094,0.99665534,514.21454,120.87741,0.9714292,477.7021,124.60962,0.97357845,516.77106,134.68854,0.94945806,474.3655,140.08157,0.9484978,501.7077,139.0351,0.9955851,486.5247,139.62822,0.9963378,502.61737,165.28731,0.98432964,485.84525,165.61124,0.98487204,502.68222,190.37463,0.9553418,486.98615,190.6417,0.95616317,0.74885454,0.5065209,0.51413591,0.19970974,161.87225044122667,178.62747024777343,178.16353268858126,175.89230675246296,0.4166282081854159,139.33166,106.300345,94.61026,42.40556000000004,98.52290999999998,0.4304131858223317,176.21633410544882,0.9442480735294116,-0.3923000000000343,0.1481399999999979,0.4193384666352781,0.1215599999999312,0.189620000000005,0.2252389353552915,-0.4375900000000001,0.1082999999999998,0.4507925222316804,-0.1189099999999712,0.0172359999999969,0.1201526853465749,-0.5996599999999717,0.1941699999999997,0.630312703743123,-0.2843799999999419,0.300619999999995,0.4138168300105301,-0.5506199999999808,0.2737300000000005,0.6149069013273303,0.1125800000000367,0.2024899999999974,0.2316818001052461,-0.926300000000026,0.4563899999999989,1.03262942147706,-0.7840300000000298,0.7697199999999924,1.0987137567628955,-0.3083199999999806,0.260239999999996,0.4034675699482995,0.3499400000000037,-0.0938160000000039,0.3622974543879702,-0.8972200000000043,0.6282800000000037,1.09532620109263,0.6046999999999798,0.4469100000000026,0.7519246226185028,0.3634000000000696,0.1067199999999957,0.3787462453939969,1.4607600000000502,-0.1951000000000107,1.4737312467340005,-0.983600000000024,0.655690000000007,1.1821160417235088,-0.0405200000000149,1.0298850000000073,1.0306818052265287,-0.3068399999999656,0.2670799999999929,0.406795417869935,-0.564489999999978,-0.2751399999999933,0.6279737094018916,-0.7497599999999807,-0.0035100000000056,0.749768215984094,0.905300000000068,-0.2896400000000199,0.9505048235543756,0.6795299999999997,0.4855699999999956,0.8351881499398776,2.5352399999999875,0.6669100000000014,2.6214901879846773,0.2355200000000081,0.7063799999999958,0.7446088737048451,2.4676699999999983,0.7936399999999821,2.5921534828207924,0.6499000000000024,0.4756600000000048,0.8053709987328869,2.243499999999983,0.9139500000000282,2.422518700134217,0.4326200000000426,0.7753900000000158,0.8879131244103002,1.194210000000055,1.1285700000000247,1.6431091774438444,-1.123230000000035,0.2733100000000092,1.1560034554446987,-1.4428100000000654,0.8172100000000171,1.6581715472773668,-0.5821500000000128,0.7087999999999965,0.917221926525969,-0.7631200000000149,1.3164700000000096,1.5216587644081203,0.5959750000000099,0.730275000000006,139.022111,0.2516573753492405,105.99675499999998,0.2959879293221483,94.596216,0.1452979211136423,-0.18914699,0.191013892,0.1324313277916623,0,0
32,1066.6666666666667,491.876,95.41716,0.9662357,494.63654,92.88994,0.94555706,489.3463,93.00784,0.9290289,499.08093,93.483246,0.8023523,485.9721,93.91677,0.70219654,505.43637,106.07414,0.99548894,481.12354,107.69806,0.9965456,514.1043,121.488464,0.9723998,476.81274,125.20943,0.97232294,517.217,135.73341,0.9506423,473.25592,140.5785,0.94666415,501.3167,139.11569,0.9955356,485.9744,139.76457,0.9961986,502.15964,165.24135,0.9841501,485.89746,165.65073,0.9842737,501.65643,190.30922,0.95472914,487.10486,190.68304,0.95467025,1.11780298,0.87179567,0.66741866,0.20978121,162.9757697136259,179.20078297391444,177.00200529722022,177.06825655547786,0.6435845531317951,139.44013,106.8861,95.41716,43.96107999999998,97.7931,0.449531506317608,176.17873496842094,0.9440583305882354,-0.5014400000000023,0.8068999999999988,0.9500156228189096,-0.109139999999968,0.6587600000000009,0.6677396777187905,-0.4657899999999699,0.7711499999999916,0.9009065692955952,-0.0281999999999698,0.6628499999999917,0.6634495930362663,-0.5563000000000216,0.7720300000000009,0.9515776431274672,0.0433599999999501,0.5778600000000012,0.5794844857284766,-0.465849999999989,0.6986759999999919,0.8397406596539068,0.0847699999999918,0.4249459999999914,0.4333186538980191,-0.6497299999999768,0.6947399999999959,0.95121645302211,0.2765700000000493,0.2383499999999969,0.3651050361197799,-0.3942900000000122,0.5643900000000031,0.688477070206418,-0.0859700000000316,0.304150000000007,0.316066549005126,-0.798090000000002,0.6071199999999948,1.002767342158687,0.0991300000000023,-0.0211600000000089,0.1013632206473376,-0.1102400000000898,0.6110539999999958,0.6209185522401587,-0.4736400000001595,0.5043340000000001,0.6918725555737495,-0.8893599999999537,0.5998099999999909,1.072722352568411,0.0942400000000702,-0.0558800000000161,0.1095616356213024,0.4459399999999505,1.044870000000003,1.136052727869601,0.7527799999999161,0.7777900000000102,1.0824209035767414,-1.109579999999994,0.4969299999999919,1.2157743216978958,-0.3598200000000133,0.5004399999999976,0.6163689041475139,-0.3909999999999627,0.0805900000000008,0.3992189225224313,-1.0705299999999625,-0.4049799999999948,1.144571221593447,-0.5502999999999929,0.1363499999999931,0.5669403958971263,-0.7858200000000011,-0.5700300000000027,0.9707972359354988,-0.4577299999999695,-0.0459599999999795,0.4600316016318556,-1.107629999999972,-0.5216199999999844,1.2243086380892367,0.0522100000000023,0.0394900000000006,0.065462540433444,-0.3804100000000403,-0.7359000000000151,0.8284084609056409,-1.0257899999999722,-0.0654099999999857,1.0278733347061502,0.0974400000000628,-0.338719999999995,0.352456794515312,0.1187099999999645,0.0413400000000194,0.1257022660893318,0.7008599999999774,-0.6674599999999771,0.967836551903232,0.1084700000000111,-0.4875049999999987,139.12248,0.3044130185910135,106.12124099999998,0.4981572312126204,94.712652,0.3979949863000114,0.0100714699999999,0.187525728,0.1314653688711237,0,0
33,1100.0,491.23816,96.97807,0.9643158,494.06573,94.40454,0.9451827,488.7571,94.45552,0.9206357,498.67868,94.50931,0.80994755,485.46298,94.76497,0.66810167,505.08246,106.41617,0.99557906,480.47888,107.96953,0.996221,514.0799,121.60736,0.97447115,475.80972,125.822556,0.9688625,517.2774,135.85898,0.9541571,471.89398,142.51874,0.9425269,500.69797,139.14493,0.9960515,485.47244,139.74406,0.99641633,500.14523,165.25885,0.9874219,485.69724,165.62157,0.98651916,499.3517,190.71017,0.96472156,488.13202,190.98184,0.9625583,1.11855025,0.41415821,1.02581536,0.16531938,162.00808438732017,178.5424976647606,179.42675181714995,175.01369458544954,0.541185363675359,139.444495,107.19285,96.97807,45.38341999999994,96.5773,0.4699180814754798,176.38739571029618,0.9431582282352942,-0.6378399999999829,1.560910000000007,1.6862028032535112,-0.1363999999999805,0.7540100000000081,0.7662480277951825,-0.5708100000000513,1.5146000000000015,1.618591120728167,-0.1050200000000813,0.7434500000000099,0.7508309416240329,-0.5892000000000053,1.4476800000000054,1.562988810708516,-0.0328999999999837,0.6756500000000045,0.676450539581428,-0.4022500000000377,1.0260640000000052,1.1020945488459877,0.0635999999999512,0.3273880000000133,0.3335084145025467,-0.5091199999999958,0.8482000000000056,0.9892655934580992,0.140609999999981,0.1534600000000097,0.208137319335091,-0.3539099999999848,0.342029999999994,0.4921755875701122,0.0403800000000273,-0.222360000000009,0.2259967123654815,-0.6446599999999876,0.2714700000000078,0.6994872954528826,0.1534300000000144,-0.3356499999999869,0.3690551278603179,-0.0244000000000141,0.1188960000000065,0.1213738802873264,0.0858400000000756,-0.4921579999999892,0.4995878326821044,-1.0030199999999925,0.6131260000000083,1.175573312165598,-0.1136600000000385,0.0133160000000174,0.1144373691414182,0.0603999999999587,0.1255700000000104,0.1393412534032819,-0.3855399999999918,-0.9192999999999928,0.9968718982898356,-1.361940000000004,1.940240000000017,2.3705298608539143,-0.2523600000000101,1.4433100000000252,1.465206239988104,-0.6187300000000278,0.0292399999999872,0.6194205279937319,-0.227730000000065,-0.0513500000000135,0.2334475859803031,-0.5019599999999969,-0.0205100000000015,0.502378842806897,0.048339999999996,-0.1568599999999946,0.1641396210547531,-2.014409999999998,0.017499999999984,2.014486013379093,-1.5566800000000285,0.0634599999999636,1.557972976017262,-0.2002200000000016,-0.0291600000000187,0.202332286103829,-0.2524300000000039,-0.0686500000000194,0.2615984086343123,-2.3047300000000064,0.4009499999999946,2.3393463350688424,-1.2789400000000342,0.4663599999999803,1.361315236526819,1.0271600000000376,0.2987999999999999,1.0697378677040823,0.908450000000073,0.2574599999999805,0.944228284950267,0.0043649999999786,-0.1041050000000325,139.16439099999997,0.33650144597416,106.3647504,0.6751307868911292,95.194242,1.0707192372045833,-0.04446183,0.2084547199999999,0.1132964329416292,0,0
34,1133.3333333333333,490.6303,97.53998,0.9652582,493.5692,95.004135,0.946563,488.25128,94.922485,0.92063797,498.3872,95.03666,0.8133159,485.16583,94.93642,0.6622204,504.74017,106.86473,0.9957632,480.19125,107.797806,0.9964491,513.9692,122.52246,0.975652,475.4544,125.66501,0.9708958,517.43945,136.9036,0.9565944,471.47174,142.86877,0.9463461,499.78287,139.40633,0.99644107,484.80124,139.68596,0.9968106,498.3634,166.18546,0.988953,485.46954,166.21156,0.9882448,497.6977,192.49992,0.96880496,488.9833,192.31354,0.9670095,1.28526121,0.27782499,1.2147167,0.31491745,163.05035843995174,178.1859826158717,178.41493611886835,173.7763610223221,0.3091809222441763,139.546145,107.331268,97.53998,45.967709999999954,97.577435,0.4710895457429313,177.82330162107633,0.9444682352941176,-0.6078600000000165,0.5619099999999975,0.8277902075405442,0.0299799999999663,-0.9990000000000094,0.9994497488118234,-0.4965299999999502,0.5995950000000079,0.778496117475842,0.0742800000001011,-0.9150049999999936,0.9180150698245664,-0.5058199999999715,0.4669649999999876,0.6884113476875288,0.0833800000000337,-0.9807150000000178,0.9842530851488556,-0.2914799999999786,0.5273499999999984,0.6025434531218358,0.1107700000000591,-0.4987140000000067,0.5108675432007986,-0.2971499999999878,0.171449999999993,0.3430644618726783,0.2119700000000079,-0.6767500000000126,0.709169826910325,-0.3422900000000481,0.4485600000000005,0.5642415419836024,0.0116199999999366,0.1065300000000064,0.107161864952043,-0.2876299999999787,-0.1717240000000117,0.3349927597366722,0.3570300000000088,-0.4431940000000196,0.5691145249736855,-0.1106999999999516,0.9150999999999954,0.9217713924829632,-0.0862999999999374,0.7962039999999888,0.8008673420835509,-0.3553200000000061,-0.1575460000000106,0.3886811604850532,0.6476999999999862,-0.7706720000000189,1.0067028467149637,0.162050000000022,1.044620000000009,1.0571145382124048,0.1016500000000633,0.9190499999999986,0.9246543273029172,-0.4222399999999879,0.3500300000000038,0.5484593134408354,0.9397000000000162,-1.5902100000000132,1.847106909223197,-0.9150999999999954,0.2614000000000089,0.9517026689045252,-0.2963699999999676,0.2321600000000216,0.3764750224118339,-0.6711999999999989,-0.058099999999996,0.6737099153196412,-0.169240000000002,-0.0375899999999944,0.1733643149555302,-1.7818300000000136,0.9266100000000108,2.008363572912053,0.2325799999999844,0.9091100000000268,0.9383892840927168,-0.2277000000000271,0.5899900000000002,0.6324045304233775,-0.0274800000000254,0.619150000000019,0.6197595282849832,-1.6539999999999964,1.789749999999998,2.436990164629308,0.65073000000001,1.3888000000000034,1.5336932460241266,0.8512799999999743,1.3316999999999837,1.5805386829811894,-0.1758800000000633,1.0328999999999835,1.047767237701193,0.1016500000000064,0.0972850000000278,139.299623,0.324251309608343,106.7133296,0.6219047104245534,95.801518,1.393497257916207,0.14959807,0.2557169019999999,0.093071908573322,0,0
35,1166.6666666666667,490.74338,98.110054,0.96472836,493.64438,95.54766,0.9442154,488.2521,95.47565,0.9211089,498.32355,95.52759,0.8015923,484.89087,95.42378,0.6693993,504.5083,107.12138,0.99564505,479.80707,108.07817,0.99647886,513.8291,122.7787,0.9746643,474.74625,125.89789,0.971349,517.273,136.66501,0.9556507,470.85944,142.31725,0.9474506,499.7138,139.28293,0.99662423,484.77216,139.62447,0.9970324,497.52676,166.65414,0.99008006,485.91193,166.79358,0.9896165,495.9951,194.0061,0.97239935,489.45038,194.01042,0.9711473,0.83678465,0.2800358,0.78852186,-0.00466726,163.1633795329204,177.46336102877638,178.63671367995352,174.99475099043752,0.1540903535984078,139.4537,107.599775,98.110054,46.41356000000002,98.58664000000002,0.4707895464254635,177.7817850810298,0.9446578005882352,0.1130800000000249,0.5700740000000053,0.5811810835497072,0.7209400000000414,0.0081640000000078,0.7209862235133622,0.0751799999999889,0.5435249999999883,0.5486997886139429,0.5717099999999391,-0.0560700000000196,0.5744529301865667,0.000819999999976,0.553165000000007,0.5531656077749301,0.5066399999999476,0.0862000000000193,0.513920742527435,-0.0636499999999955,0.4909300000000058,0.4950389756372776,0.2278299999999831,-0.0364199999999925,0.2307226154931322,-0.2749600000000214,0.4873599999999953,0.5595737406276382,0.0221899999999664,0.3159100000000023,0.3166883708000658,-0.231869999999958,0.2566500000000076,0.3458799204926248,0.1104200000000901,-0.1919099999999929,0.2214091788973916,-0.3841800000000148,0.2803640000000058,0.4756030328919431,-0.0965500000000361,0.4520880000000176,0.4622828811929151,-0.1400999999999612,0.2562400000000053,0.2920392911921132,-0.0294000000000096,-0.65885999999999,0.6595156249854793,-0.708150000000046,0.2328800000000086,0.7454592657550574,-0.3528300000000399,0.3904260000000192,0.5262332851274644,-0.1664499999999407,-0.2385900000000163,0.2909137167614962,-0.3284999999999627,-1.2832100000000253,1.3245905609281836,-0.6123000000000047,-0.5515200000000107,0.8240665024134991,-0.1900600000000167,-0.9015500000000144,0.92136594581091,-0.0690700000000106,-0.1234000000000037,0.1414150801718204,0.8460299999999847,-0.3848000000000127,0.9294287497705156,-0.0290800000000217,-0.061489999999992,0.0680196037918502,0.6421199999999772,-0.003389999999996,0.6421289484986412,-0.8366399999999885,0.4686800000000062,0.9589720705004848,0.9451900000000252,-0.4579300000000046,1.0502780684180983,0.4423899999999889,0.58202,0.7310651082495937,0.6700900000000161,-0.0079700000000002,0.6701373956137813,-1.702600000000018,1.5061800000000003,2.273197077334049,-0.0486000000000217,-0.2835699999999974,0.2877045444548985,0.4670800000000099,1.6968800000000217,1.7599901876999433,-0.3841999999999643,0.3651800000000378,0.5300623287878513,-0.0924449999999978,-0.1940950000000043,139.443226,0.0760923668494718,107.0620676,0.4974655905500099,96.5311048,1.4697963633188182,-0.31958471,0.177012104,0.1159213014736635,0,0
36,1200.0,490.19382,100.255005,0.9625817,493.03836,97.61544,0.9420256,487.64838,97.52001,0.91267025,497.87625,96.9131,0.7999914,484.32007,96.72186,0.6401683,504.38864,107.70991,0.9956002,479.54465,108.35044,0.996216,513.9797,123.55495,0.9754891,474.5736,126.00955,0.96920806,517.25476,137.92343,0.9573567,471.30453,142.52196,0.94553983,499.5563,139.72395,0.9969798,484.65793,139.90266,0.9972561,497.0345,167.25722,0.9918997,486.04013,167.24821,0.9912005,494.62787,194.96043,0.9777996,489.16504,194.73752,0.97614914,0.76214236,0.69222885,0.2395043,0.21051814,161.65359693189995,175.47646830404983,179.7317343564126,176.40820342394758,0.2536326376887425,139.813305,108.030175,100.255005,45.95023000000003,98.23857,0.4677412296642633,178.5231222008855,0.9428312929411764,-0.5495599999999854,2.144950999999992,2.2142337243391785,-0.6626400000000103,1.5748769999999863,1.7086044992124338,-0.6060200000000009,2.0677800000000133,2.1547562202718096,-0.6811999999999898,1.524255000000025,1.6695468681726375,-0.6037200000000098,2.044359999999997,2.1316391927340805,-0.6045399999999859,1.4911949999999905,1.609077729516183,-0.4472999999999842,1.3855099999999965,1.4559241910552816,-0.3836499999999887,0.8945799999999906,0.9733759288681708,-0.5708000000000197,1.298080000000013,1.4180353755813204,-0.2958399999999983,0.8107200000000176,0.8630111378192217,-0.1196600000000103,0.5885299999999916,0.6005714582795227,0.1122099999999477,0.3318799999999839,0.3503361507181033,-0.2624200000000201,0.272270000000006,0.3781470736367185,0.1217599999999947,-0.0080939999999998,0.1220287279127285,0.1505999999999403,0.7762500000000045,0.790723986293567,0.2906999999999016,0.5200099999999992,0.5957490160293527,-0.172649999999976,0.1116600000000005,0.2056112304811967,0.53550000000007,-0.1212200000000081,0.5490487577620743,-0.0182399999999915,1.258420000000001,1.258552181675437,0.1482099999999491,1.4970100000000173,1.5043288018914072,0.4450899999999933,0.2047100000000057,0.4899094734744332,1.057389999999998,0.7562300000000164,1.2999836248968757,-0.1574999999999704,0.4410200000000088,0.4683000004270751,-0.0884299999999598,0.5644200000000126,0.5713053485659022,-0.1142299999999636,0.278189999999995,0.3007293949716072,-0.0851499999999418,0.3396799999999871,0.350189984008654,-0.4922600000000443,0.6030799999999772,0.7784763284776334,0.3443799999999442,0.134399999999971,0.3696768107414282,0.1281999999999925,0.4546300000000087,0.4723596901726544,-0.3141899999999964,-0.1273899999999912,0.3390332847966339,-1.3672300000000064,0.9543299999999988,1.6673522788541164,0.3353700000000117,-0.5518500000000017,0.6457642444422034,-0.2853400000000192,0.7270999999999788,0.7810847108988757,-0.7524200000000292,-0.9697800000000428,1.2274400615916554,0.3596050000000161,0.452050000000014,139.539555,0.1591189066791915,107.4080336,0.4325610673445831,97.6600538,1.7639702470116274,0.2151854,0.179173784,0.1165494530314543,0,0
37,1233.3333333333337,489.6427,101.6962,0.9630996,492.38257,99.01236,0.94163793,487.03064,99.02846,0.91385233,497.21103,98.14664,0.7958379,483.7136,98.237495,0.6451239,503.64325,108.68042,0.995577,479.44897,109.59359,0.99626726,513.64325,124.247314,0.97512347,474.54044,126.94682,0.9698889,517.2065,138.59215,0.95714146,471.76727,142.90195,0.946838,499.0923,140.58832,0.9969261,484.66718,140.89001,0.9972453,496.16815,168.09453,0.9915987,486.05035,168.23103,0.991012,493.71268,195.51047,0.9768,489.3864,195.52516,0.97537065,1.31778696,0.08990623,1.31469439,0.00761501,161.2336631717055,174.06603319452873,179.04970617080193,175.92763268544286,0.6050316466784679,140.739165,109.137005,101.6962,45.43923000000001,97.37852,0.4666247703638876,177.8384988659963,0.9429023823529412,-0.5511200000000258,1.4411950000000076,1.5429764361211256,-0.0015600000000404,-0.7037559999999843,0.7037577290062099,-0.6557900000000245,1.3969199999999944,1.5431934455861378,-0.0497700000000236,-0.6708600000000189,0.6727036438878771,-0.6177399999999693,1.5084499999999963,1.6300380701382258,-0.0140199999999595,-0.5359100000000012,0.5360933580077263,-0.6652200000000335,1.233540000000005,1.4014772848676702,-0.2179200000000491,-0.1519699999999915,0.2656765087470453,-0.6064700000000016,1.515634999999989,1.632469085197318,-0.0356699999999818,0.2175549999999759,0.2204598079582495,-0.7453899999999862,0.9705100000000044,1.2237221548210968,-0.6257299999999759,0.3819800000000128,0.7331076000833573,-0.0956800000000157,1.24315,1.2468266057876705,0.1667400000000043,0.970879999999994,0.9850940066815906,-0.3364500000000134,0.6923639999999978,0.7697834182391863,-0.4870499999999538,-0.0838860000000067,0.4942211686036487,-0.0331600000000094,0.937269999999998,0.9378564061198266,0.1394899999999665,0.8256099999999975,0.8373107739662655,-0.0482600000000275,0.6687200000000075,0.670459145660653,-0.0300200000000359,-0.5896999999999935,0.5904636232656457,0.4627399999999966,0.3799899999999923,0.5987659874274682,0.0176500000000032,0.1752799999999865,0.1761664011666112,-0.4639999999999986,0.8643700000000081,0.9810359304836967,-0.3065000000000282,0.4233499999999992,0.5226542571337353,0.0092499999999517,0.9873499999999922,0.9873933284157757,0.1234799999999154,0.7091599999999971,0.7198299910395335,-0.8663499999999544,0.8373100000000022,1.2048445371083876,-0.3740899999999101,0.234230000000025,0.4413694835395221,0.0102200000000038,0.9828200000000038,0.982873135658925,-0.1179799999999886,0.528189999999995,0.5412060203840975,-0.9151899999999956,0.5500399999999956,1.0677624912404382,0.4520400000000109,-0.4042900000000031,0.6064573898469804,0.2213600000000042,0.7876400000000103,0.8181546425951626,0.5067000000000235,0.0605400000000315,0.5103038130369276,0.92586,0.566254999999984,139.79936200000003,0.5461125664827359,107.8582146,0.7829509983602442,98.9158618,1.9887809717729867,-0.20290313,0.1387405439999999,0.1366166753486506,0,0
38,1266.6666666666663,488.33072,102.91945,0.96157664,491.101,100.31555,0.94425493,485.9347,100.354675,0.90367985,496.24728,99.88631,0.8203695,483.19415,100.06344,0.6049707,503.07632,110.89871,0.99559206,479.51837,111.827126,0.9956403,513.26514,125.954956,0.9756791,474.43936,128.59961,0.9625159,516.94073,139.85114,0.9566974,471.5971,144.21936,0.93606424,498.70493,142.70026,0.99661165,484.7577,142.90347,0.9967018,495.42358,169.40637,0.9906131,485.95416,169.41344,0.9890555,493.29797,196.01326,0.97467685,489.98224,195.77837,0.9713542,1.36681012,0.3421841,1.28890162,0.29968744,160.72875880259463,173.46577371625563,177.56286627464203,173.8975680672465,0.7909686173199233,142.801865,111.362918,102.91945,45.34363000000002,96.12695,0.471705692610598,177.74314808026108,0.939767865882353,-1.3119800000000057,1.223249999999993,1.793775928843956,-0.7608599999999797,-0.2179450000000145,0.7914593878557353,-1.281569999999988,1.3031900000000007,1.8277652587244269,-0.6257799999999634,-0.0937299999999936,0.6327605560557271,-1.0959399999999846,1.3262150000000048,1.720444916242592,-0.4782000000000153,-0.1822349999999915,0.5117468468149183,-0.9637500000000044,1.7396699999999896,1.9887849987869408,-0.2985299999999711,0.5061299999999846,0.5876118938550914,-0.5194500000000062,1.8259450000000044,1.898394965628866,0.0870199999999954,0.3103100000000154,0.3222805866011925,-0.5669300000000135,2.218289999999996,2.289589515393534,0.1784599999999727,1.2477799999999917,1.2604772508855404,0.0694000000000301,2.233536000000001,2.234613931598925,0.1650800000000458,0.9903860000000008,1.004049717591722,-0.3781099999999924,1.7076419999999928,1.7490021075641875,-0.0416599999999789,1.015277999999995,1.0161323599236411,-0.1010799999999676,1.6527900000000102,1.6558779998840576,-0.0679199999999582,0.7155200000000121,0.718736388949392,-0.2657699999999749,1.258989999999983,1.2867359919579244,-0.2175099999999474,0.5902699999999754,0.6290701654028333,-0.1701699999999846,1.3174099999999953,1.32835497401861,-0.6329099999999812,0.937420000000003,1.1310752956810532,-0.3873700000000326,2.111939999999976,2.1471716467250404,0.076629999999966,1.2475699999999676,1.2499212222375913,0.0905200000000263,2.013460000000009,2.015493746455206,0.0812700000000745,1.026110000000017,1.029323343269765,-0.7445700000000102,1.311840000000018,1.5084126327036849,0.1217799999999442,0.4745300000000156,0.4899072251967726,-0.0961899999999786,1.1824100000000044,1.1863161147856025,-0.1064099999999825,0.1995900000000006,0.2261841201322421,-0.4147099999999568,0.5027900000000045,0.6517531497430363,0.5004800000000387,-0.0472499999999911,0.502705473314184,0.5958400000000097,0.2532099999999957,0.6474106963126338,0.3744800000000055,-0.5344300000000146,0.6525723678643004,2.062699999999978,1.136839999999978,140.47083600000002,1.39889802657504,108.6922282,1.6442621072571566,100.1041378,2.293179079841854,0.29207243,0.165614156,0.1551152616867224,0,0
39,1300.0,487.89236,106.153946,0.95787615,490.46948,103.45793,0.94354165,485.59705,103.578575,0.89549553,495.92642,102.24679,0.8160356,482.91214,102.55216,0.57958496,502.96222,112.37067,0.9953851,479.11243,113.13382,0.995142,512.43384,127.805145,0.9773966,473.62616,130.29285,0.95757633,515.14136,141.84624,0.96009606,471.5447,145.73114,0.9299964,498.28815,144.09091,0.99668187,484.06006,144.15714,0.9965294,496.33087,169.96475,0.9915441,485.63077,169.81018,0.98940825,494.12543,196.81519,0.97811675,489.83817,196.43657,0.9742337,1.38266489,0.30582857,1.28497129,0.40875401,159.37824107265752,169.94789390286323,179.6303887208035,174.52437376142723,0.250224796477469,144.12402500000002,112.752245,106.153946,43.59665999999999,94.5684,0.461006631591455,178.16726436184058,0.9373317911764706,-0.4383599999999887,3.234496000000007,3.264065542175285,0.8736200000000167,2.011246000000014,2.192788721449489,-0.6315200000000232,3.142380000000003,3.2052097551954453,0.6500499999999647,1.839190000000002,1.950688303804573,-0.3376499999999964,3.2239000000000004,3.241533392161802,0.7582899999999881,1.897684999999996,2.043578254759275,-0.3208599999999819,2.3604800000000097,2.382187433851508,0.6428900000000226,0.6208100000000201,0.8937072273401698,-0.282009999999957,2.4887200000000007,2.504647056672852,0.2374400000000491,0.6627749999999963,0.7040230494983942,-0.1141000000000076,1.47196000000001,1.4763756471846965,0.4528300000000058,-0.7463299999999862,0.8729624721601638,-0.4059399999999868,1.3066939999999931,1.3682969316767364,-0.4753400000000169,-0.9268420000000076,1.0416257526405683,-0.831299999999942,1.8501890000000003,2.028363632517825,-0.4531899999999496,0.1425470000000075,0.4750798073050005,-0.8131999999999948,1.6932399999999743,1.8783918487897848,-0.7121200000000272,0.0404499999999643,0.7132678998104679,-1.7993700000000672,1.995100000000008,2.686662689453269,-1.5336000000000922,0.7361100000000249,1.7011134271706632,-0.0524000000000342,1.511780000000016,1.5126878489629152,0.1177699999999504,0.1943700000000205,0.2272651970716069,-0.416780000000017,1.390650000000022,1.4517620297073746,-0.0294099999999843,-0.7212899999999536,0.7218893351476611,-0.6976399999999785,1.2536699999999996,1.434709043151248,-0.7881600000000049,-0.7597900000000095,1.094749756656754,0.907289999999989,0.5583799999999997,1.0653465954796024,1.6518599999999992,-0.7534600000000182,1.8155834960695207,-0.3233900000000176,0.3967399999999941,0.5118434523367538,-0.2272000000000389,-0.7856700000000103,0.8178613506579424,0.8274599999999737,0.8019299999999987,1.152294136277693,1.2421699999999305,0.2991399999999942,1.2776819042703171,-0.1440699999999992,0.6581999999999937,0.6737829063578205,-0.739910000000009,0.4049899999999979,0.8434949366771632,1.322160000000025,-0.7405399999999531,141.386412,2.007921943227841,109.7764236,2.211815822623994,101.826931,3.0091474354272174,0.1090665699999999,0.184381468,0.1811818372781373,0,0
