frame_id,timestamp_ms,nose_x,nose_y,nose_conf,left_eye_x,left_eye_y,left_eye_conf,right_eye_x,right_eye_y,right_eye_conf,left_ear_x,left_ear_y,left_ear_conf,right_ear_x,right_ear_y,right_ear_conf,left_shoulder_x,left_shoulder_y,left_shoulder_conf,right_shoulder_x,right_shoulder_y,right_shoulder_conf,left_elbow_x,left_elbow_y,left_elbow_conf,right_elbow_x,right_elbow_y,right_elbow_conf,left_wrist_x,left_wrist_y,left_wrist_conf,right_wrist_x,right_wrist_y,right_wrist_conf,left_hip_x,left_hip_y,left_hip_conf,right_hip_x,right_hip_y,right_hip_conf,left_knee_x,left_knee_y,left_knee_conf,right_knee_x,right_knee_y,right_knee_conf,left_ankle_x,left_ankle_y,left_ankle_conf,right_ankle_x,right_ankle_y,right_ankle_conf,acc_x,acc_y,acc_z,acc_mag,left_elbow_angle,right_elbow_angle,left_knee_angle,right_knee_angle,spine_angle,hip_height,shoulder_height,head_height,bbox_width,bbox_height,bbox_aspect_ratio,shoulder_tilt,avg_confidence,nose_vx,nose_vy,nose_speed,nose_ax,nose_ay,nose_accel,left_eye_vx,left_eye_vy,left_eye_speed,left_eye_ax,left_eye_ay,left_eye_accel,right_eye_vx,right_eye_vy,right_eye_speed,right_eye_ax,right_eye_ay,right_eye_accel,left_ear_vx,left_ear_vy,left_ear_speed,left_ear_ax,left_ear_ay,left_ear_accel,right_ear_vx,right_ear_vy,right_ear_speed,right_ear_ax,right_ear_ay,right_ear_accel,left_shoulder_vx,left_shoulder_vy,left_shoulder_speed,left_shoulder_ax,left_shoulder_ay,left_shoulder_accel,right_shoulder_vx,right_shoulder_vy,right_shoulder_speed,right_shoulder_ax,right_shoulder_ay,right_shoulder_accel,left_elbow_vx,left_elbow_vy,left_elbow_speed,left_elbow_ax,left_elbow_ay,left_elbow_accel,right_elbow_vx,right_elbow_vy,right_elbow_speed,right_elbow_ax,right_elbow_ay,right_elbow_accel,left_wrist_vx,left_wrist_vy,left_wrist_speed,left_wrist_ax,left_wrist_ay,left_wrist_accel,right_wrist_vx,right_wrist_vy,right_wrist_speed,right_wrist_ax,right_wrist_ay,right_wrist_accel,left_hip_vx,left_hip_vy,left_hip_speed,left_hip_ax,left_hip_ay,left_hip_accel,right_hip_vx,right_hip_vy,right_hip_speed,right_hip_ax,right_hip_ay,right_hip_accel,left_knee_vx,left_knee_vy,left_knee_speed,left_knee_ax,left_knee_ay,left_knee_accel,right_knee_vx,right_knee_vy,right_knee_speed,right_knee_ax,right_knee_ay,right_knee_accel,left_ankle_vx,left_ankle_vy,left_ankle_speed,left_ankle_ax,left_ankle_ay,left_ankle_accel,right_ankle_vx,right_ankle_vy,right_ankle_speed,right_ankle_ax,right_ankle_ay,right_ankle_accel,hip_velocity,hip_acceleration,hip_height_mean_5,hip_height_std_5,shoulder_height_mean_5,shoulder_height_std_5,head_height_mean_5,head_height_std_5,acc_mag_diff,acc_mag_mean_5,acc_mag_std_5,label_binary,label_3class
0,0.0,516.0603,96.7299,0.9408866,518.34326,94.6006,0.90662503,514.25385,94.47223,0.8788142,521.97656,94.95694,0.763129,511.31122,94.48495,0.65130645,527.05963,106.23716,0.9938245,505.74112,105.31979,0.9948548,532.0284,121.77223,0.95929646,499.09244,119.18205,0.9542532,526.48944,133.35042,0.9271958,502.2298,130.41339,0.91602653,521.7683,137.49872,0.995304,508.44797,136.9733,0.99574465,520.49097,161.6947,0.98653907,508.43353,161.04794,0.9856947,517.07056,185.92363,0.9683544,511.34943,185.05296,0.9666002,1.01661216,0.31147842,0.96243883,0.10096028,136.69726629939944,138.7693180839493,174.98652036537803,173.03982098132795,2.3523676292387417,137.23601,105.778475,96.7299,32.93596000000002,91.4514,0.3601471343232896,-177.53598998106062,0.9284970347058824,0.0,0.0,0.0,0.0,0.0,0.0,0.0,0.0,0.0,0.0,0.0,0.0,0.0,0.0,0.0,0.0,0.0,0.0,0.0,0.0,0.0,0.0,0.0,0.0,0.0,0.0,0.0,0.0,0.0,0.0,0.0,0.0,0.0,0.0,0.0,0.0,0.0,0.0,0.0,0.0,0.0,0.0,0.0,0.0,0.0,0.0,0.0,0.0,0.0,0.0,0.0,0.0,0.0,0.0,0.0,0.0,0.0,0.0,0.0,0.0,0.0,0.0,0.0,0.0,0.0,0.0,0.0,0.0,0.0,0.0,0.0,0.0,0.0,0.0,0.0,0.0,0.0,0.0,0.0,0.0,0.0,0.0,0.0,0.0,0.0,0.0,0.0,0.0,0.0,0.0,0.0,0.0,0.0,0.0,0.0,0.0,0.0,0.0,0.0,0.0,0.0,0.0,0.0,0.0,137.23601,0.0,105.778475,0.0,96.7299,0.0,0.0,0.10096028,0.0,0,0
1,33.333333333333336,515.57184,96.427704,0.94133973,517.8756,94.29409,0.9106864,513.7835,94.20116,0.8751631,521.6217,94.81154,0.7785397,510.98544,94.452866,0.6353444,526.928,106.38875,0.99406105,505.60464,105.55591,0.9946892,531.9379,122.02905,0.96144307,498.912,119.31999,0.9512862,526.1325,133.60512,0.93003696,502.19223,130.09372,0.9121689,521.6681,137.78812,0.99534637,508.37354,137.27625,0.99562126,520.14984,162.01822,0.9866304,508.33804,161.3875,0.9851887,516.5295,186.29367,0.9684607,511.37454,185.42323,0.9656809,0.9989697,0.18939263,0.95457818,0.22550251,135.60493265493727,137.1354582996908,175.10313222710587,172.71544987716442,2.2600335404647693,137.532185,105.97233,96.427704,33.02590000000004,92.09251,0.3586165654664366,-177.76329928770295,0.928334531764706,-0.4884600000000318,-0.302195999999995,0.5743827939763064,-0.4884600000000318,-0.302195999999995,0.5743827939763064,-0.4676600000000235,-0.3065100000000029,0.5591549478454284,-0.4676600000000235,-0.3065100000000029,0.5591549478454284,-0.4703500000000531,-0.2710699999999946,0.5428702122976053,-0.4703500000000531,-0.2710699999999946,0.5428702122976053,-0.3548599999999169,-0.1454000000000093,0.3834928677302144,-0.3548599999999169,-0.1454000000000093,0.3834928677302144,-0.3257800000000088,-0.0320839999999975,0.3273560621952885,-0.3257800000000088,-0.0320839999999975,0.3273560621952885,-0.1316299999999728,0.1515899999999987,0.2007635051496971,-0.1316299999999728,0.1515899999999987,0.2007635051496971,-0.1364800000000059,0.2361199999999996,0.2727259518271069,-0.1364800000000059,0.2361199999999996,0.2727259518271069,-0.09050000000002,0.2568200000000047,0.2722990312138588,-0.09050000000002,0.2568200000000047,0.2722990312138588,-0.1804400000000328,0.1379400000000004,0.2271255978528442,-0.1804400000000328,0.1379400000000004,0.2271255978528442,-0.356939999999895,0.2546999999999855,0.4384954430777105,-0.356939999999895,0.2546999999999855,0.4384954430777105,-0.0375700000000165,-0.3196700000000021,0.3218701815950067,-0.0375700000000165,-0.3196700000000021,0.3218701815950067,-0.1001999999999725,0.2894000000000005,0.3062554489311085,-0.1001999999999725,0.2894000000000005,0.3062554489311085,-0.0744300000000066,0.3029500000000098,0.3119591758548015,-0.0744300000000066,0.3029500000000098,0.3119591758548015,-0.3411299999999073,0.323520000000002,0.4701434539584042,-0.3411299999999073,0.323520000000002,0.4701434539584042,-0.0954900000000407,0.3395599999999774,0.3527312485448269,-0.0954900000000407,0.3395599999999774,0.3527312485448269,-0.5410600000000159,0.3700399999999888,0.6554963960236615,-0.5410600000000159,0.3700399999999888,0.6554963960236615,0.0251100000000406,0.3702699999999765,0.3711204454082053,0.0251100000000406,0.3702699999999765,0.3711204454082053,0.2961750000000052,0.2961750000000052,137.3840975,0.2094273509179293,105.8754025,0.1370761850669126,96.578802,0.2136848408474413,0.1245422299999999,0.163231395,0.0880646553770946,0,0
2,66.66666666666667,514.81134,96.254974,0.9414059,517.1731,94.08728,0.9167974,513.0355,94.03955,0.8671333,521.1263,94.66772,0.8026358,510.42987,94.46744,0.6034157,526.73395,106.40738,0.9943784,505.3932,105.77632,0.994224,531.80676,122.12636,0.96501875,498.86472,119.57374,0.9444382,525.7916,133.8568,0.93486613,502.06903,130.09097,0.9033727,521.53326,137.8818,0.9953793,508.2741,137.42369,0.9953127,519.8226,162.16881,0.9868379,508.37036,161.58957,0.98418564,515.99756,186.51654,0.96880853,511.63095,185.66476,0.9639829,1.04763244,0.10636448,0.9963379,0.30582857,134.9661946138991,137.73351166539464,175.10076324945848,172.51537848725442,2.1047803159626013,137.65274499999998,106.09185,96.254974,32.94204000000008,92.47699,0.3562187701371045,-178.30621973093926,0.927187838235294,-0.7604999999999791,-0.1727300000000013,0.7798691575514245,-0.2720399999999472,0.1294659999999936,0.3012759644511484,-0.7024999999999864,-0.2068099999999901,0.7323091055694834,-0.2348399999999628,0.0997000000000127,0.2551272537381788,-0.7480000000000473,-0.161609999999996,0.7652592972973732,-0.2776499999999942,0.1094599999999985,0.2984476739731714,-0.4954000000000178,-0.1438199999999909,0.5158540029892325,-0.1405400000001009,0.0015800000000183,0.1405488811767223,-0.5555699999999888,0.014573999999996,0.5557611234838107,-0.2297899999999799,0.0466579999999936,0.2344790247847133,-0.1940499999999474,0.0186300000000017,0.1949422463192102,-0.0624199999999746,-0.132959999999997,0.1468830078667919,-0.2114400000000387,0.2204100000000011,0.3054299292800508,-0.0749600000000327,-0.0157099999999985,0.0765885480996008,-0.1311399999999594,0.0973100000000073,0.1633001399264274,-0.0406399999999393,-0.1595099999999973,0.1646057401793577,-0.0472800000000006,0.2537499999999966,0.2581171456916381,0.1331600000000321,0.1158099999999962,0.1764753288706602,-0.3409000000000333,0.2516799999999932,0.4237400528626239,0.0160399999998617,-0.0030199999999922,0.0163218258781153,-0.123199999999997,-0.0027499999999918,0.1232306881421962,-0.0856299999999805,0.3169200000000103,0.3282846071627532,-0.1348399999999401,0.0936800000000062,0.1641882090772203,-0.0346399999999675,-0.1957199999999943,0.1987617870718502,-0.0994400000000155,0.1474399999999889,0.1778394421943563,-0.0250100000000088,-0.1555100000000209,0.1575082861312602,-0.3272400000000743,0.150589999999994,0.3602268253476507,0.0138899999998329,-0.172930000000008,0.1734869361075874,0.0323200000000269,0.2020700000000204,0.2046383817860422,0.1278100000000677,-0.137489999999957,0.1877202604941871,-0.5319399999999632,0.2228700000000003,0.5767418837746752,0.0091200000000526,-0.1471699999999884,0.147452308561099,0.2564099999999598,0.2415300000000115,0.3522539268765999,0.2312999999999192,-0.128739999999965,0.264714332063743,0.1205599999999833,-0.1756150000000218,137.47364666666667,0.2144459545161211,105.94755166666666,0.1581500774844282,96.47085933333334,0.2403860716957838,0.08032606,0.2107637866666666,0.1032263364457125,0,0
3,100.0,514.14746,96.62907,0.9398236,516.4326,94.420105,0.9170766,512.3281,94.449265,0.8604079,520.3677,94.80397,0.8089445,509.73633,94.81595,0.58635074,526.32605,106.25633,0.99454004,504.9154,105.98982,0.9939984,531.8644,121.6734,0.9674787,498.67535,119.818535,0.94215184,526.0327,133.47159,0.9388992,501.7812,130.25197,0.90139073,521.44916,137.61258,0.99564904,508.216,137.31078,0.99542636,519.5335,161.92197,0.98790646,508.35477,161.50674,0.98488367,515.3723,186.39334,0.9712521,511.61932,185.75641,0.96584165,1.00629535,0.01940599,0.964404,0.28666823,133.93731902122212,139.13592347523772,174.85531000741088,172.6613996473751,1.440719607204955,137.46168,106.123075,96.62907,33.189050000000066,91.973235,0.360855521056148,-179.28684511562398,0.9265895017647058,-0.6638799999999492,0.3740959999999944,0.7620265557156971,0.0966200000000299,0.5468259999999958,0.555296406143603,-0.7404999999999973,0.3328249999999997,0.8118575802596141,-0.0380000000000109,0.5396349999999899,0.5409712868766603,-0.7074000000000069,0.4097149999999914,0.8174846428068253,0.0406000000000403,0.5713249999999874,0.5727657598224504,-0.7586000000000013,0.1362500000000039,0.7707386213886022,-0.2631999999999834,0.2800699999999949,0.3843350685274354,-0.6935399999999845,0.3485100000000045,0.7761810044699508,-0.1379699999999957,0.3339360000000084,0.3613156141049047,-0.4079000000000405,-0.1510499999999979,0.4349695535322357,-0.2138500000000931,-0.1696799999999996,0.2729892395315971,-0.477800000000002,0.2134999999999962,0.5233307653864813,-0.2663599999999633,-0.0069100000000048,0.2664496156874326,0.0576399999999921,-0.4529600000000044,0.4566126708710602,0.1887799999999515,-0.5502700000000118,0.5817516319702032,-0.1893699999999967,0.2447949999999963,0.3094924699003142,-0.142089999999996,-0.0089550000000002,0.1423719077802882,0.2410999999999603,-0.3852100000000007,0.4544402646112923,0.5819999999999936,-0.636889999999994,0.8627588725130475,-0.2878299999999854,0.1610000000000013,0.329798588383868,-0.1646299999999882,0.1637499999999931,0.2322005585695131,-0.0841000000000349,-0.26921999999999,0.2820500281864912,0.0507399999999051,-0.3628999999999962,0.3664300173293499,-0.0580999999999676,-0.1129099999999994,0.126981408481699,0.0413400000000478,-0.2603499999999883,0.2636116805075182,-0.2890999999999621,-0.2468400000000201,0.3801431251515514,0.0381400000001121,-0.3974300000000141,0.3992558884976148,-0.0155900000000315,-0.0828300000000012,0.0842843817086012,-0.0479100000000585,-0.2849000000000217,0.2889002909310026,-0.6252600000000257,-0.123199999999997,0.6372819686763712,-0.0933200000000624,-0.3460699999999974,0.3584313983177393,-0.0116299999999682,0.0916499999999871,0.0923849522378883,-0.2680399999999281,-0.1498800000000244,0.3070984467560342,-0.1910649999999805,-0.3116249999999638,137.470655,0.1751965901970258,105.9914325,0.1561294595573323,96.510412,0.2116159163957138,-0.0191603399999999,0.2297398975,0.0924346011338363,0,0
4,133.33333333333334,513.4957,96.858795,0.9428127,515.7238,94.567665,0.92328924,511.54593,94.704414,0.8634023,519.6463,94.704346,0.82165855,508.8415,95.01696,0.5813428,525.9534,105.90757,0.9948644,504.32648,106.11543,0.9939866,531.9288,121.21886,0.97009283,498.61536,120.08325,0.9406277,525.68304,133.34152,0.9430202,501.78015,130.29971,0.9002022,521.50024,137.387,0.9956328,508.11765,137.29904,0.9952573,519.4308,161.87576,0.9874444,508.11624,161.68524,0.9837398,514.9553,186.26915,0.969348,511.3119,185.94412,0.96268564,0.94801733,0.02186244,0.91994217,0.22795897,131.42309314717946,140.54987386525536,174.43380800348842,172.49223397983005,0.6054393000268034,137.34302,106.0115,96.858795,33.313440000000014,91.701485,0.3632813540229873,179.44933749058185,0.9276122035294118,-0.6517599999999675,0.2297250000000019,0.6910605423730677,0.0121199999999817,-0.1443709999999924,0.1448788460783608,-0.7087999999999965,0.1475599999999985,0.7239968187775376,0.0317000000000007,-0.1852650000000011,0.1879574691918372,-0.782169999999951,0.2551490000000029,0.82273380938243,-0.074769999999944,-0.1545659999999884,0.1717009063924476,-0.7214000000000169,-0.0996240000000057,0.7282464564802396,0.0371999999999843,-0.2358740000000097,0.2387894132410467,-0.8948300000000131,0.2010099999999965,0.9171290797919462,-0.2012900000000286,-0.1475000000000079,0.249547418540072,-0.3726500000000214,-0.3487599999999986,0.5103935345397853,0.0352500000000191,-0.1977100000000007,0.2008278033540217,-0.5889199999999732,0.1256100000000088,0.6021666202140158,-0.1111199999999712,-0.0878899999999873,0.1416767676790778,0.0643999999999778,-0.4545399999999944,0.4590794828785011,0.0067599999999856,-0.0015799999999899,0.0069421898562178,-0.0599899999999706,0.2647150000000096,0.27142739604727,0.129380000000026,0.0199200000000132,0.1309045102355425,-0.3496599999999716,-0.1300699999999892,0.3730687878930337,-0.590759999999932,0.2551400000000114,0.6435012021744213,-0.0010500000000206,0.0477400000000045,0.0477515455247312,0.2867799999999647,-0.1132599999999968,0.3083352007150319,0.0510799999999562,-0.2255800000000078,0.2312909483745507,0.1351799999999912,0.0436399999999821,0.1420495758529256,-0.0983499999999821,-0.0117400000000031,0.0990482210844625,-0.0402500000000145,0.1011699999999962,0.1088826496738594,-0.1027000000000271,-0.0462099999999736,0.1126172904131649,0.186399999999935,0.2006300000000465,0.273856453091751,-0.2385299999999688,0.1784999999999854,0.2979241697143417,-0.2229399999999373,0.2613299999999867,0.343504894433784,-0.41700000000003,-0.1241899999999986,0.4351001678924345,0.2082599999999956,-0.0009900000000016,0.2082623530549825,-0.307420000000036,0.1877100000000098,0.3601973077356712,-0.2957900000000677,0.0960600000000226,0.3109971827847391,-0.1186600000000055,0.0724049999999749,137.445128,0.1621065160858686,105.995446,0.1355095827515478,96.5800886,0.2405412958138343,-0.05870926,0.229383712,0.0800546747893626,0,0
5,166.66666666666666,512.4583,97.4633,0.94167507,514.7296,95.128456,0.9268995,510.5416,95.26618,0.85281724,518.9132,94.96037,0.8367934,508.03745,95.30284,0.5435731,525.5824,105.8409,0.99488395,503.85364,106.10938,0.99315965,531.8175,121.13147,0.9717865,498.3328,120.15346,0.9310248,525.55615,133.49197,0.94517154,501.1657,130.60771,0.88846356,521.13574,137.52966,0.9955058,507.7213,137.42618,0.9947594,519.04645,162.19946,0.9872093,507.70212,161.9909,0.9821561,514.4945,186.62708,0.9685961,510.78983,186.21198,0.959651,0.93266954,0.08401074,0.91355539,0.16802148,130.95062655937463,143.37787929797676,174.28515879035257,172.69036652605263,0.5267120754630824,137.47791999999998,105.97514,97.4633,33.484699999999975,91.66671,0.3652874596973374,179.2920908452371,0.9243603535294118,-1.0374000000000478,0.6045050000000032,1.2006769153378036,-0.3856400000000803,0.3747800000000012,0.5377529711680475,-0.994199999999978,0.5607909999999947,1.1414552928962878,-0.2853999999999814,0.4132309999999961,0.5022081434634311,-1.0043299999999815,0.5617660000000058,1.1507648707081608,-0.2221600000000307,0.3066170000000028,0.3786410573208027,-0.7331000000000358,0.2560239999999965,0.7765203787255366,-0.0117000000000189,0.3556480000000022,0.3558403994826922,-0.8040500000000179,0.2858800000000059,0.8533602855183924,0.0907799999999952,0.0848700000000093,0.1242735905170552,-0.3709999999999809,-0.066670000000002,0.3769428191383756,0.0016500000000405,0.2820899999999966,0.2820948255463014,-0.4728400000000192,-0.0060500000000018,0.4728787033690756,0.116079999999954,-0.1316600000000107,0.1755247048138584,-0.1113000000000283,-0.0873900000000134,0.1415086643990701,-0.1757000000000061,0.367149999999981,0.4070253216938575,-0.2825599999999895,0.0702099999999887,0.29115218992821,-0.2225700000000188,-0.1945050000000208,0.2955834906164694,-0.126890000000003,0.1504500000000064,0.1968153312117801,0.2227699999999686,0.2805199999999956,0.3582149400848373,-0.6144499999999766,0.3079999999999927,0.6873229244685258,-0.613399999999956,0.2602599999999881,0.6663293687058524,-0.3644999999999072,0.1426600000000064,0.3914232052394623,-0.4155799999998635,0.3682400000000143,0.5552543867452981,-0.3963500000000408,0.1271399999999971,0.4162426000543813,-0.2980000000000586,0.1388800000000003,0.3287729526588753,-0.3843499999999267,0.3236999999999739,0.5025003606963151,-0.2816499999998996,0.3699099999999475,0.4649302427245453,-0.4141200000000253,0.3056600000000173,0.5147071108893209,-0.1755900000000565,0.1271600000000319,0.2167983249474681,-0.4607999999999492,0.3579300000000103,0.583481383507615,-0.0437999999999192,0.482120000000009,0.4841054992457755,-0.5220699999999852,0.2678600000000131,0.5867759917549383,-0.2146499999999491,0.0801500000000032,0.2291258278762538,0.1348999999999875,0.2535599999999931,137.49351,0.1126443273649382,106.034779,0.069014278269052,96.7267686,0.4694369684758594,-0.05993749,0.2427959519999999,0.054791214037466,0,0
6,200.0,511.82074,97.573074,0.93867046,513.90015,95.12214,0.9145812,509.92105,95.40636,0.854082,518.3359,94.49562,0.7894678,507.66156,95.28874,0.55092174,525.82886,105.57478,0.9933236,503.70068,105.991516,0.9931288,531.8897,121.122925,0.971133,498.22443,119.61931,0.95046586,525.0735,134.04497,0.95367485,501.1265,129.49493,0.92470354,520.67523,137.52402,0.9957294,507.085,137.3737,0.9955297,520.03955,162.04016,0.99092394,507.6219,161.66124,0.98872817,516.16223,185.75401,0.9765157,510.50165,185.2252,0.9725701,1.01368376,0.10317108,0.99805742,0.14419387,130.89258262715543,141.7314964358483,172.19934365604013,174.29880935623572,1.600338784909378,137.44886000000002,105.783148,97.573074,33.665269999999964,91.25839,0.3689005430744441,178.92108652009955,0.9267146976470588,-0.6375600000000077,0.1097740000000015,0.646941330165271,0.3998400000000401,-0.4947310000000016,0.6361059565520777,-0.8294499999999516,-0.0063159999999982,0.8294740468248055,0.1647500000000263,-0.5671069999999929,0.5905530559983587,-0.620550000000037,0.1401800000000008,0.6361860851197911,0.3837799999999447,-0.4215860000000049,0.5701068705040852,-0.5772999999999229,-0.4647499999999951,0.7411260705844225,0.1558000000001129,-0.7207739999999916,0.7374203679557699,-0.3758899999999698,-0.0140999999999991,0.3761543594057861,0.428160000000048,-0.299980000000005,0.5227896192542887,0.2464599999999563,-0.2661200000000008,0.3627152960656318,0.6174599999999373,-0.1994499999999988,0.648873758214895,-0.1529600000000073,-0.1178639999999973,0.1931027811710685,0.3198800000000119,-0.1118139999999954,0.3388592406826271,0.0721999999999525,-0.008544999999998,0.0727038996546479,0.1834999999999809,0.0788450000000153,0.1997217665278259,-0.1083700000000362,-0.5341499999999968,0.5450323654609921,0.1741899999999532,-0.6043599999999856,0.6289619747647438,-0.4826500000000351,0.5529999999999973,0.7340027401175222,-0.355760000000032,0.4025499999999908,0.5372259116051789,-0.0391999999999939,-1.1127799999999866,1.1134702368720817,0.5752499999999827,-1.4207799999999793,1.5328171355057072,-0.4605099999999993,-0.0056399999999996,0.4605445360657309,-0.096010000000092,-0.1483000000000061,0.1766658147464287,-0.6363000000000056,-0.0524799999999743,0.6384605237600869,-0.2399499999999648,-0.1796199999999714,0.299732125238475,0.993099999999913,-0.1593000000000017,1.005795257495196,1.3774499999998395,-0.4829999999999756,1.4596771911965791,-0.080219999999997,-0.3296600000000182,0.3392800672011422,0.3339000000000283,-0.6353200000000356,0.717719104106937,1.667730000000006,-0.8730700000000127,1.8824384658734643,2.128529999999955,-1.231000000000023,2.4588617205731325,-0.2881800000000112,-0.9867800000000102,1.0279992610892414,0.2338899999999739,-1.2546400000000233,1.2762547009512035,-0.0290599999999585,-0.1639599999999461,137.476845,0.1116515043561821,105.9969426,0.1335217202884897,96.9558426,0.5581001203196596,-0.02382761,0.226534224,0.0709038027781217,0,0
7,233.3333333333333,511.05887,97.76165,0.9339327,513.08435,95.256966,0.9125692,509.1677,95.62012,0.8372258,517.6411,94.45376,0.7969875,507.04535,95.474976,0.5145756,525.60114,105.41004,0.99314237,503.34348,106.16692,0.9919878,531.93414,120.87248,0.9717852,498.26065,119.97501,0.9412879,524.7864,133.69489,0.95408434,501.56888,129.53033,0.9141017,520.6408,137.65848,0.9956104,506.96222,137.64516,0.99507636,520.2041,162.12726,0.99096125,507.6777,161.88904,0.9879865,516.1075,185.74667,0.97682136,510.49796,185.3522,0.9715632,1.08609905,0.10415367,1.0638904,0.19209473,128.59021400082378,140.694267279733,171.1828481201246,174.8363674212318,1.2061213059479097,137.65182,105.78848,97.76165,33.67348999999996,91.29291,0.368851092939735,178.0523862109197,0.922335245882353,-0.7618699999999876,0.1885759999999976,0.7848610097819743,-0.1243099999999799,0.078801999999996,0.147182646069414,-0.8158000000000811,0.1348260000000039,0.8268661864389748,0.0136499999998704,0.1411420000000021,0.1418005171499633,-0.7533499999999549,0.2137599999999935,0.7830897522633847,-0.1327999999999178,0.0735799999999926,0.1518217915846638,-0.6947999999999865,-0.0418599999999997,0.6960598390942989,-0.1175000000000636,0.4228899999999953,0.4389102437856867,-0.6162100000000237,0.1862359999999938,0.6437379993413678,-0.2403200000000538,0.2003359999999929,0.3128709243378538,-0.2277199999999766,-0.164740000000009,0.2810616765053398,-0.474179999999933,0.1013799999999918,0.4848964598756468,-0.3571999999999775,0.1754040000000003,0.3979427134852252,-0.2042399999999702,0.2932679999999976,0.3573794865741267,0.0444400000000086,-0.2504449999999991,0.2543572519607026,-0.0277599999999438,-0.2419000000000011,0.243487633361527,0.0362200000000143,0.3556999999999988,0.3575393382552473,0.1445900000000506,0.8898499999999956,0.9015205436372522,-0.2871000000000094,-0.3500800000000197,0.4527498386526706,0.1955500000000256,-0.903080000000017,0.9240093554180286,0.4423799999999573,0.0353999999999814,0.4437941238907529,0.4815799999999512,1.148179999999968,1.245084980553488,-0.034430000000043,0.13445999999999,0.1387981141802736,0.4260799999999562,0.1400999999999896,0.448522213942587,-0.1227799999999774,0.2714599999999905,0.2979353285530088,0.5135200000000282,0.3239399999999648,0.6071572399304863,0.1645500000000765,0.0871000000000208,0.1861803225371275,-0.8285499999998365,0.2464000000000226,0.8644119749863142,0.0558000000000333,0.227800000000002,0.2345346029906986,0.1360200000000304,0.5574600000000203,0.5738145100988915,-0.0547300000000632,-0.0073399999999992,0.0552200009055315,-1.7224600000000692,0.8657300000000134,1.927785487158844,-0.0036900000000059,0.1270000000000095,0.127053595384005,0.2844900000000052,1.1137800000000198,1.1495392331277985,0.2029599999999618,0.2320199999999204,137.47665999999998,0.111287356873988,105.93626860000002,0.1477792008362466,97.2571778,0.4873390079905722,0.0479008599999999,0.203787456,0.0557243330170364,0,0
8,266.6666666666667,510.41174,97.48753,0.92941636,512.3671,94.95271,0.9044048,508.47717,95.41918,0.83163977,516.859,94.19369,0.7808922,506.36163,95.48099,0.5183327,525.0286,105.19856,0.9925996,502.72757,106.427574,0.99171174,531.66736,120.549835,0.9693309,497.97415,120.56384,0.94165254,524.77997,133.20454,0.9505129,501.9295,129.78236,0.91368204,520.71094,137.8154,0.9954065,506.92224,138.0553,0.9949852,520.4424,162.35687,0.9904665,507.5359,162.36325,0.98776245,516.5088,185.9563,0.97565484,510.2088,185.8604,0.9709207,0.95781186,0.10955787,0.93836558,0.15770437,128.05613692790718,138.1919073897734,171.16374511790744,174.9563970738061,0.1106148760618571,137.93535,105.813067,97.48753,33.69321000000002,91.76261,0.3671779784034265,176.84560955832308,0.9199630435294118,-0.6471300000000042,-0.2741199999999963,0.7027937188820085,0.1147399999999834,-0.462695999999994,0.4767104530173328,-0.7172499999999218,-0.3042560000000094,0.7791144178077398,0.0985500000001593,-0.4390820000000133,0.4500056724354073,-0.6905300000000238,-0.2009400000000027,0.7191721382951609,0.062819999999931,-0.4146999999999963,0.4194310937448346,-0.782100000000014,-0.2600699999999989,0.8242067792126084,-0.0873000000000274,-0.2182099999999991,0.2350253052332969,-0.6837199999999939,0.0060140000000075,0.68374644905549,-0.0675099999999702,-0.1802219999999863,0.1924514728028628,-0.5725400000000036,-0.2114799999999945,0.6103489510108147,-0.344820000000027,-0.0467399999999855,0.3479733610494017,-0.6159099999999853,0.2606540000000024,0.6687941655068345,-0.2587100000000077,0.085250000000002,0.2723938813556655,-0.2667799999999261,-0.3226449999999943,0.4186542301529472,-0.3112199999999347,-0.0721999999999951,0.3194850988699765,-0.2864999999999895,0.5888300000000015,0.6548305268540829,-0.3227200000000039,0.2331300000000027,0.3981178158535533,-0.0064299999999093,-0.4903499999999781,0.4903921567480228,0.2806700000001001,-0.1402699999999583,0.3137695361249153,0.3606200000000399,0.252030000000019,0.43996125431683,-0.0817599999999174,0.2166300000000376,0.2315453616464877,0.0701400000000376,0.1569200000000137,0.1718822445746202,0.1045700000000806,0.0224600000000236,0.1069548339254375,-0.0399800000000141,0.4101399999999842,0.4120839962920037,0.0827999999999633,0.1386799999999937,0.1615177463933675,0.238299999999981,0.2296099999999796,0.3309193891266899,0.0737499999999045,0.1425099999999588,0.1604623401299326,-0.1417999999999892,0.4742099999999993,0.4949569315607129,-0.1976000000000226,0.2464099999999973,0.3158538397740443,0.401299999999992,0.2096300000000042,0.4527542676772857,0.4560300000000552,0.2169700000000034,0.5050141996023992,-0.2891599999999812,0.508199999999988,0.5847056914379891,-0.2854699999999752,0.3811999999999784,0.476242124239309,0.2835300000000131,0.0805700000000513,137.571394,0.2317536219350055,105.874267,0.110017930297747,97.4288698,0.3395398533828423,-0.0343903599999999,0.177994684,0.0329730869043175,0,0
9,300.0,509.06442,98.06349,0.8668723,510.7287,95.509155,0.8257666,507.40054,96.04642,0.7063232,515.1594,94.29886,0.6963981,505.6985,95.77907,0.39602724,524.2792,104.61884,0.9887284,501.77002,106.077515,0.9869599,531.4548,120.07001,0.9667382,497.29916,120.40662,0.9350143,524.4862,133.2694,0.9489293,501.60117,129.94513,0.90954834,520.2914,138.18745,0.9954585,506.4384,138.54593,0.9949738,519.838,162.63335,0.99135053,507.24313,162.76906,0.9888193,515.9981,186.17429,0.9779479,510.25366,186.21967,0.9735517,0.93712792,0.06042878,0.91134458,0.20978121,127.25785784217204,138.3953412490018,171.79828708507765,174.58727978181608,0.5906398391449625,138.36669,105.3481775,98.06349,34.155640000000005,91.92081,0.3715767912448031,176.29221399063997,0.891141624117647,-1.3473200000000247,0.5759599999999949,1.4652648579693914,-0.7001900000000205,0.8500799999999913,1.1013183202417065,-1.638400000000047,0.5564450000000107,1.730313728208028,-0.9211500000001251,0.8607010000000201,1.2606837564993314,-1.0766300000000228,0.6272400000000005,1.246018528955348,-0.386099999999999,0.8281800000000032,0.9137588973027866,-1.6996000000000322,0.1051700000000011,1.702850812285125,-0.9175000000000182,0.36524,0.9875254465582308,-0.6631299999999669,0.2980799999999988,0.7270440724605045,0.0205900000000269,0.2920659999999913,0.2927908749534316,-0.7494000000000369,-0.5797199999999947,0.9474574599421596,-0.1768600000000333,-0.3682400000000001,0.4085096782207392,-0.957550000000026,-0.3500590000000017,1.019530924484908,-0.3416400000000408,-0.6107130000000041,0.6997772916928877,-0.2125600000000531,-0.4798250000000053,0.5247988035666885,0.0542199999998729,-0.1571800000000109,0.166268941176606,-0.6749900000000366,-0.1572199999999952,0.6930581710794902,-0.3884900000000471,-0.7460499999999968,0.8411391576903501,-0.293769999999995,0.0648599999999817,0.3008448645066002,-0.2873400000000856,0.5552099999999598,0.6251579158100812,-0.328329999999994,0.1627699999999947,0.3664623606865981,-0.6889500000000339,-0.0892600000000243,0.6947081762150573,-0.4195400000000973,0.3720500000000015,0.5607450526755299,-0.4896800000001349,0.2151299999999878,0.5348527080422486,-0.4838399999999865,0.4906300000000101,0.6890710721688996,-0.4438599999999724,0.0804900000000259,0.4510990353569598,-0.6044000000000551,0.2764800000000207,0.6646356523690842,-0.8427000000000362,0.046870000000041,0.8440024211458548,-0.2927700000000186,0.4058100000000024,0.5003958722851467,-0.1509700000000293,-0.0683999999999969,0.165742272519742,-0.5106999999999289,0.2179900000000145,0.5552784257468804,-0.9119999999999208,0.0083600000000103,0.9120383158617054,0.0448600000000283,0.3592700000000093,0.3620598741921137,0.3340200000000095,-0.1489299999999787,0.3657177946176532,0.4313400000000058,0.1478099999999926,137.776128,0.3826225147191167,105.7416025,0.2336416582439804,97.6698088,0.2493234646944626,0.0520768399999999,0.174359132,0.0264422247926213,0,0
10,333.3333333333333,507.7938,97.963295,0.80757034,509.37064,95.484436,0.7724513,506.488,95.98472,0.5843838,513.9944,94.373604,0.67555046,505.41895,95.80595,0.2877099,523.5421,104.60147,0.98593926,501.7297,106.09307,0.9796408,531.1268,119.80507,0.9680991,497.4142,120.4814,0.9122409,524.75494,133.04715,0.95094025,500.9923,130.4346,0.88814324,519.64233,138.38211,0.9953106,506.25177,138.71431,0.9941233,519.1724,162.68484,0.99181527,507.09796,162.8232,0.98799604,516.08734,186.25102,0.97953343,510.1701,186.21935,0.9730598,0.93156074,0.06779814,0.90446651,0.21248331,127.79047020044564,143.53127814274964,173.64955552007223,174.529490029427,0.537128535103033,138.54821,105.34727,97.963295,33.71260000000001,91.877416,0.3669302109352944,176.08802595243708,0.8667357523529412,-1.270620000000008,-0.1001949999999993,1.274564326515151,0.0767000000000166,-0.6761549999999943,0.6804913475019317,-1.3580600000000231,-0.0247190000000046,1.35828494527513,0.2803400000000238,-0.5811640000000153,0.6452457752639928,-0.9125399999999786,-0.0617000000000018,0.9146234971833826,0.1640900000000442,-0.6889400000000023,0.70821172801643,-1.1649999999999636,0.0747439999999954,1.1673952482068422,0.5346000000000686,-0.0304260000000056,0.535465126293089,-0.2795500000000288,0.0268799999999913,0.2808393435756743,0.3835799999999381,-0.2712000000000074,0.4697691522439043,-0.7370999999999412,-0.0173699999999996,0.7373046364291448,0.0123000000000956,0.562349999999995,0.5624844997864357,-0.0403200000000083,0.0155549999999919,0.0432164369771551,0.9172300000000178,0.3656139999999936,0.987413018901426,-0.3279999999999745,-0.2649399999999957,0.4216363404641268,-0.1154399999999213,0.2148850000000095,0.2439302294201888,0.1150400000000217,0.0747799999999898,0.137208782517751,0.7900300000000584,0.2319999999999851,0.8233901875174888,0.2687399999999798,-0.2222500000000025,0.3487352148837141,0.5625099999999748,-0.2871099999999842,0.6315454474540708,-0.6088700000000244,0.489469999999983,0.7812192763878866,-0.2805400000000304,0.3266999999999882,0.4306223189756998,-0.6490699999999379,0.1946599999999989,0.6776314488716702,-0.2295299999998405,-0.1773900000000026,0.2900883193097022,-0.1866299999999796,0.1683800000000133,0.2513614554779568,0.2972100000000068,-0.3222499999999968,0.4383820783289412,-0.6655999999999267,0.0514900000000011,0.6675886308947319,-0.0611999999998715,-0.2249900000000195,0.2331650490532255,-0.1451700000000073,0.054140000000018,0.1549369823509032,0.1476000000000112,-0.3516699999999844,0.3813889732281104,0.0892400000000179,0.0767299999999977,0.1176914206728887,0.5999399999999468,-0.1412600000000168,0.616345999581356,-0.083560000000034,-0.0003200000000163,0.0835606127311528,-0.1284200000000623,-0.3595900000000256,0.3818332941219695,0.1815200000000061,-0.2498199999999997,137.99018600000002,0.4646715027091358,105.6160285,0.245187635871986,97.7698078,0.2460376116049241,0.0027021,0.183251498,0.0308815529800837,0,0
11,366.6666666666666,507.28506,97.26481,0.869528,508.99326,94.76892,0.8483519,505.75577,95.25475,0.68208843,513.5352,93.82667,0.7506369,504.33316,95.25231,0.3367318,522.7651,104.5206,0.9899407,501.12576,106.11169,0.98391694,530.92175,119.80079,0.97288597,497.66064,120.66588,0.9110203,524.441,133.19788,0.9559979,500.15936,130.43103,0.8853356,518.8502,138.10854,0.9955142,505.53253,138.49893,0.9940579,518.5769,162.59584,0.99178934,506.49396,162.80304,0.9871911,516.3681,186.24911,0.97920495,509.95645,186.30853,0.971306,0.90654806,0.05993749,0.89169295,0.15205453,126.0913975018835,152.25515239389185,175.30449598325612,173.8856184205521,0.427386763379957,138.30373500000002,105.316145,97.26481,33.261109999999974,92.48186,0.3596500939789693,175.79474291721573,0.8885587017647059,-0.5087399999999889,-0.6984850000000051,0.8641167067155894,0.7618800000000192,-0.5982900000000058,0.9687167070408336,-0.3773799999999596,-0.715516000000008,0.8089368397198764,0.9806800000000636,-0.6907970000000034,1.1995556500676112,-0.7322300000000155,-0.7299699999999945,1.0339327704449717,0.1803099999999631,-0.6682699999999926,0.6921679629974048,-0.4592000000000098,-0.5469340000000074,0.7141438513044952,0.7057999999999538,-0.6216780000000028,0.9405515273943996,-1.0857899999999745,-0.5536400000000015,1.2187933269016311,-0.8062399999999457,-0.5805199999999928,0.9934920271446088,-0.7770000000000437,-0.0808700000000044,0.7811971306271347,-0.0399000000001024,-0.0635000000000047,0.0749950665044626,-0.603939999999966,0.0186199999999985,0.6042269672895764,-0.5636199999999576,0.0030650000000065,0.563628333766989,-0.2050500000000283,-0.0042799999999942,0.2050946632655554,0.1229499999999461,0.2606600000000014,0.2882019050943062,0.2464400000000068,0.1844800000000077,0.3078401273388612,0.131399999999985,0.1097000000000179,0.171172573737734,-0.3139400000000023,0.15073000000001,0.3482497042353438,-0.5826799999999821,0.3729800000000125,0.69183094958233,-0.8329400000000078,-0.0035699999999962,0.832947650515933,-0.2240699999999833,-0.4930399999999793,0.5415679149469363,-0.7921300000000429,-0.2735700000000065,0.838039666006372,-0.143060000000105,-0.4682300000000055,0.4895972799148655,-0.7192400000000134,-0.2153800000000103,0.75079605886021,-0.5326100000000338,-0.3837600000000236,0.6564641267426988,-0.5955000000000155,-0.0889999999999986,0.6021139842255934,0.0700999999999112,-0.1404899999999997,0.1570078026723114,-0.603999999999985,-0.0201600000000041,0.6043363513805718,-0.4588299999999776,-0.0743000000000222,0.464806904961601,0.2807599999999866,-0.0019100000000094,0.2807664967548523,0.1915199999999686,-0.0786400000000071,0.2070366151191356,-0.2136499999999728,0.0891799999999989,0.2315154312351299,-0.1300899999999387,0.0895000000000152,0.1579039521354256,-0.2444749999999942,-0.4259950000000003,138.161161,0.361522926562017,105.5226279,0.2543868771321382,97.708155,0.3314556065675396,-0.06042878,0.18482363,0.0285047178995267,0,0
12,400.0,506.5637,97.33116,0.8895873,508.3321,94.81053,0.877527,504.9208,95.295105,0.70982486,512.9247,93.78102,0.7894918,503.4151,95.221504,0.33831096,522.1096,104.41375,0.9913327,500.73294,106.081696,0.9841903,530.3751,119.71545,0.97552866,497.89432,120.72638,0.9003522,524.41473,133.32074,0.9588722,499.62683,130.25195,0.8743528,518.5242,137.62926,0.9955863,505.3702,138.06728,0.9937084,518.5397,162.299,0.99204844,506.50092,162.55347,0.9865935,516.78345,186.19043,0.9799469,509.85052,186.24643,0.97068036,0.97652408,0.10096028,0.97128207,0.00417597,127.96562281494656,158.72195921634895,175.75977049808023,174.59703610236664,0.9243558532860058,137.84827,105.247723,97.33116,32.48077999999998,92.46541,0.3512749216028465,175.5384502761421,0.8945843929411764,-0.7213600000000042,0.0663499999999999,0.7244049779646783,-0.2126200000000153,0.764835000000005,0.7938386748105778,-0.6611599999999953,0.0416100000000057,0.6624680654190014,-0.2837800000000356,0.7571260000000137,0.8085609861204293,-0.8349699999999984,0.0403550000000052,0.8359446314948125,-0.1027399999999829,0.7703249999999997,0.7771461337644265,-0.6105000000000018,-0.0456499999999948,0.612204355178891,-0.151299999999992,0.5012840000000125,0.5236194597759045,-0.9180600000000254,-0.0308059999999983,0.9185767105887492,0.1677299999999491,0.5228340000000031,0.5490799071683339,-0.6554999999999609,-0.1068500000000085,0.6641514680401983,0.1215000000000827,-0.0259800000000041,0.1242465709789221,-0.3928200000000288,-0.029994000000002,0.393963440481503,0.2111199999999371,-0.0486140000000006,0.2166448139143273,-0.5466499999999996,-0.0853400000000021,0.5532713060515609,-0.3415999999999712,-0.0810600000000079,0.3510858635718357,0.2336799999999925,0.0605000000000046,0.2413847393684967,-0.0127600000000143,-0.123980000000003,0.1246348988044726,-0.0262700000000677,0.1228600000000028,0.1256371461790033,0.2876699999999346,-0.0278700000000071,0.2890168953538231,-0.5325300000000084,-0.179079999999999,0.5618343593088702,0.3004099999999994,-0.1755100000000027,0.3479223019583548,-0.3260000000000218,-0.479280000000017,0.5796424056261158,0.466130000000021,-0.2057100000000105,0.5095034651501635,-0.1623299999999972,-0.4316499999999905,0.4611645599999971,0.5569100000000162,-0.2162699999999802,0.597429042648589,-0.0371999999999843,-0.2968400000000031,0.2991618719021538,0.5583000000000311,-0.2078400000000044,0.5957317815930561,0.0069599999999923,-0.2495700000000056,0.2496670312636466,0.6109599999999773,-0.2294100000000014,0.6526109635149971,0.4153499999999894,-0.0586800000000096,0.419474629626146,0.1345900000000028,-0.0567700000000002,0.1460729304149156,-0.1059300000000007,-0.0620999999999867,0.1227907769337685,0.107719999999972,-0.1512799999999856,0.1857127803894757,-0.4554650000000038,-0.2109900000000095,138.20045100000002,0.2973000625714011,105.4144765,0.2265295076739349,97.622057,0.3679845321070641,-0.14787856,0.147239878,0.0848057955955907,0,0
13,433.33333333333337,505.10016,97.38437,0.90406775,507.00046,94.785,0.9026156,503.48267,95.24995,0.71785665,512.1028,93.49571,0.8323163,502.22696,94.90985,0.311465,521.578,104.10873,0.99256027,500.16257,105.698326,0.9834362,529.70557,119.736206,0.9792157,497.62842,120.70488,0.8823891,524.12994,133.57684,0.9636953,499.33704,130.58334,0.8582093,518.22424,137.71327,0.99567443,505.09555,138.0651,0.99311465,518.26953,162.58408,0.9922775,506.31595,162.7148,0.9853242,517.1166,186.61543,0.98032445,510.28766,186.37807,0.9685621,1.04582761,0.0675525,1.03097391,0.16212599,130.58007350409005,160.60188597342665,177.1489411057462,173.30650632584613,1.3713558803455907,137.889185,104.903528,97.38437,32.07714999999996,93.11972,0.3444721446276665,175.75491005529028,0.8966532058823529,-1.4635399999999663,0.053210000000007,1.4645069599356304,-0.7421799999999621,-0.0131399999999928,0.7422963101079942,-1.33164000000005,-0.0255300000000033,1.3318847061589578,-0.6704800000000546,-0.067140000000009,0.6738332212054214,-1.438130000000001,-0.0451550000000082,1.438838723041955,-0.6031600000000026,-0.0855100000000135,0.609191222605846,-0.8219000000000278,-0.2853099999999955,0.8700123022693663,-0.211400000000026,-0.2396600000000006,0.3195729581801491,-1.1881399999999758,-0.3116539999999901,1.228334187147755,-0.2700799999999503,-0.2808479999999917,0.3896393274606255,-0.5316000000000258,-0.3050199999999989,0.6128913120611409,0.123899999999935,-0.1981699999999904,0.2337146955156652,-0.5703699999999685,-0.3833699999999993,0.687236854221282,-0.1775499999999397,-0.3533759999999972,0.3954726284788578,-0.6695300000000088,0.0207559999999915,0.6698516495732555,-0.1228800000000092,0.1060959999999937,0.1623448663062708,-0.2658999999999878,-0.0215000000000031,0.2667678016552853,-0.4995799999999804,-0.0820000000000078,0.5062649270885567,-0.2847899999999299,0.2561000000000035,0.3830046397890786,-0.2585199999998622,0.1332400000000007,0.2908358437330738,-0.2897899999999822,0.3313899999999989,0.4402244611558846,0.2427400000000261,0.510469999999998,0.5652453701712298,-0.2999599999999418,0.0840100000000063,0.3115022980653051,0.02604000000008,0.5632900000000234,0.5638915726449816,-0.2746500000000083,-0.0021800000000098,0.27465865160232,-0.112320000000011,0.4294699999999807,0.443914702730137,-0.2701700000000073,0.2850799999999935,0.3927625686085682,-0.232970000000023,0.5819199999999967,0.626822069889061,-0.1849700000000211,0.1613299999999924,0.2454409700926179,-0.1919300000000134,0.410899999999998,0.4535150878416324,0.3331499999999323,0.4250000000000113,0.5400128910498013,-0.0822000000000571,0.483680000000021,0.4906151061677878,0.4371399999999994,0.1316400000000044,0.4565309071683982,0.5430700000000002,0.1937399999999911,0.5765936285634768,0.040914999999984,0.4963799999999878,138.19121800000002,0.3081116071855472,105.2325687,0.1884172337166829,97.601425,0.3801051376264919,0.15795002,0.148124202,0.0849650993928949,0,0
14,466.6666666666667,503.0888,96.714874,0.9117841,505.1481,94.22748,0.9082841,501.53833,94.63821,0.7339265,510.42578,93.36781,0.8508177,500.7792,94.68173,0.33860406,520.14606,104.125465,0.99321085,498.97937,105.759735,0.9853566,528.71094,119.289055,0.9751415,496.93628,120.333786,0.88135916,524.6345,133.47423,0.9523021,499.4686,130.8993,0.84299755,517.43616,137.45663,0.994361,504.45206,137.849,0.9916061,517.2534,162.20084,0.9868303,505.52414,162.34467,0.97716093,515.2511,186.09564,0.96527815,508.9305,185.70735,0.9478953,0.97170558,0.03660117,0.95212172,0.19062086,134.50761511522967,158.5416091270475,175.63318225736066,174.21054272217964,2.41827991725115,137.65281499999998,104.9426,96.714874,31.77466000000004,92.72783,0.3426658389108664,175.58497949692506,0.8962891764705883,-2.0113600000000247,-0.6694960000000094,2.119857057354602,-0.5478200000000584,-0.7227060000000165,0.9068686315206232,-1.852359999999976,-0.5575199999999967,1.9344420694349849,-0.5207199999999261,-0.5319899999999933,0.7444210357720394,-1.944340000000011,-0.6117399999999975,2.038304163563436,-0.50621000000001,-0.5665849999999892,0.7597809725999974,-1.6770200000000273,-0.1278999999999968,1.6818901540826294,-0.8551199999999994,0.1574099999999987,0.8694872756400743,-1.4477600000000166,-0.2281200000000041,1.4656219676301423,-0.2596200000000408,0.083533999999986,0.2727278378824187,-1.4319399999999405,0.0167350000000112,1.432037787149777,-0.9003399999999147,0.3217550000000102,0.9561058495924252,-1.1831999999999994,0.0614090000000118,1.184792515709396,-0.6128300000000309,0.4447790000000111,0.7572245160723785,-0.9946299999999156,-0.447150999999991,1.0905195338465166,-0.3250999999999067,-0.4679069999999825,0.5697604502323086,-0.6921399999999949,-0.3710939999999993,0.7853461252441452,-0.426240000000007,-0.3495939999999962,0.5512680858130673,0.5045599999999695,-0.1026099999999985,0.5148879545104632,0.7893499999998994,-0.3587100000000021,0.8670330366253888,0.131559999999979,0.3159600000000182,0.3422553946981785,0.4213499999999612,-0.0154299999999807,0.4216324316273201,-0.7880800000000363,-0.2566400000000044,0.8288149226456166,-0.4881200000000945,-0.3406500000000108,0.5952340354012862,-0.6434899999999857,-0.2161000000000115,0.678806739875192,-0.3688399999999774,-0.2139200000000016,0.426385637656786,-1.0161299999999756,-0.3832400000000007,1.0859986530838566,-0.7459599999999682,-0.6683199999999943,1.0015527664581356,-0.7918099999999981,-0.3701299999999889,0.8740476491587795,-0.606839999999977,-0.5314599999999814,0.8066625795212966,-1.8654999999999973,-0.5197900000000004,1.9365618745859865,-2.1986499999999296,-0.9447900000000118,2.39305034769428,-1.3571600000000217,-0.6707200000000171,1.51385223321171,-1.794300000000021,-0.8023600000000215,1.965526407759537,-0.2363700000000221,-0.2772850000000062,138.048443,0.3663655668966246,105.15145320000002,0.2120271483128898,97.3317018,0.4434623013529458,0.02849487,0.144292132,0.08186456492679,0,0
15,500.0,502.71075,96.72054,0.9123019,504.82452,94.251205,0.90718645,501.13177,94.60141,0.73947155,510.06613,93.381516,0.84654474,500.2951,94.52792,0.34684974,519.54254,104.12784,0.9928549,498.41678,105.65704,0.9849834,527.76117,119.25803,0.9724486,496.12128,120.60588,0.8764433,524.1094,133.21411,0.94723105,498.16605,132.12576,0.83498037,516.90607,137.64651,0.9939948,503.99243,138.00577,0.99117434,516.90015,162.59396,0.9861645,505.36044,162.67377,0.97639686,515.1427,186.59775,0.9640856,508.84485,186.06494,0.946688,0.97973142,0.04986602,0.9562977,0.20707911,136.82609758916615,161.20489066633087,175.82612620233724,174.70156472488347,2.555035336236565,137.82614,104.89244,96.72054,31.63988999999998,93.216234,0.3394246721078145,175.85983378593244,0.8952823588235294,-0.3780499999999733,0.005666000000005,0.3780924570207397,1.633310000000051,0.6751620000000145,1.7673554487833474,-0.3235799999999926,0.0237249999999988,0.3244485968917036,1.5287799999999834,0.5812449999999956,1.6355470150457136,-0.4065599999999563,-0.0367999999999995,0.408222088574301,1.5377800000000548,0.574939999999998,1.6417439910047382,-0.3596499999999878,0.0137059999999991,0.3599110680932044,1.3173700000000397,0.1416059999999959,1.3249588582805516,-0.4841000000000122,-0.1538100000000071,0.507947168611081,0.9636600000000044,0.0743099999999969,0.9665208594231208,-0.6035200000000032,0.0023750000000006,0.6035246730871936,0.8284199999999373,-0.0143600000000105,0.8285444502257537,-0.5625900000000001,-0.1026950000000113,0.571886152240988,0.6206099999999992,-0.1641040000000231,0.6419399465027914,-0.9497700000000576,-0.0310249999999996,0.9502765931691204,0.0448599999998577,0.4161259999999913,0.4185370562757616,-0.8149999999999977,0.2720939999999956,0.859220661318147,-0.1228600000000028,0.643187999999995,0.654817060669615,-0.5250999999999522,-0.2601200000000006,0.5859969491387733,-1.0296599999999216,-0.157510000000002,1.041637708466739,-1.3025499999999963,1.226460000000003,1.7890893309446565,-1.4341099999999756,0.9104999999999848,1.6987294493532223,-0.5300899999999729,0.1898800000000164,0.5630717738441321,0.2579900000000634,0.4465200000000209,0.5156926899812052,-0.4596300000000042,0.1567700000000229,0.4856300750571478,0.1838599999999814,0.3728700000000344,0.4157361380732001,-0.3532500000000027,0.3931200000000103,0.5285157489611924,0.6628799999999728,0.776360000000011,1.020854908397849,-0.1637000000000057,0.3290999999999826,0.3675656403963657,0.6281099999999924,0.6992299999999716,0.9399174245644936,-0.1083999999999605,0.5021099999999876,0.513677926428593,1.7571000000000367,1.021899999999988,2.0326534431624355,-0.0856499999999869,0.357590000000016,0.3677044065550605,1.2715100000000348,1.0283100000000331,1.6352856436109735,0.1733250000000339,0.4096950000000561,137.90402899999998,0.2409717135734006,105.06048719999998,0.2044453468037232,97.0831508,0.3362870902863294,0.01645825,0.143211292,0.0807674976962071,0,0
16,533.3333333333334,502.5808,96.75484,0.9268814,504.72327,94.31352,0.9149926,500.89847,94.61405,0.78827626,509.7875,93.493805,0.8404351,499.7812,94.480896,0.41320848,518.73193,104.34495,0.99363637,497.6792,105.67495,0.989277,526.5969,119.48099,0.9728995,495.2671,120.6228,0.9109233,523.035,132.48703,0.94951874,497.2935,131.79715,0.87310696,516.28094,137.76715,0.99461716,503.43643,138.10092,0.9930056,516.20325,162.63094,0.9868216,505.00082,162.66205,0.9800419,514.8743,186.37915,0.9649011,508.86694,185.81557,0.9521379,0.98217998,0.04839215,0.94647188,0.25792771,137.22698724069568,160.55479325392815,176.97609369829365,174.16480097608607,2.874444761358483,137.934035,105.00995,96.75484,31.329799999999977,92.88534500000002,0.3372954007190755,176.38515993807422,0.9085106452941176,-0.129950000000008,0.0343000000000017,0.1344004929306518,0.2480999999999653,0.0286339999999967,0.2497469037965888,-0.1012499999999931,0.0623149999999981,0.1188895358095,0.2223299999999994,0.0385899999999992,0.2256541978337644,-0.2333000000000424,0.0126400000000046,0.2336421614350028,0.1732599999999138,0.0494400000000041,0.1801758618682606,-0.2786299999999642,0.1122889999999898,0.3004055532459042,0.0810200000000236,0.0985829999999907,0.1276042643840793,-0.5138999999999783,-0.0470239999999932,0.5160469615994042,-0.029799999999966,0.1067860000000138,0.1108660894773552,-0.8106099999999969,0.217109999999991,0.8391813416657875,-0.2070899999999937,0.2147349999999903,0.2983243005941575,-0.7375800000000368,0.0179100000000005,0.7377974142676662,-0.1749900000000366,0.1206050000000118,0.212525448182131,-1.1642699999999877,0.2229600000000005,1.1854264188468095,-0.2144999999999299,0.2539850000000001,0.3324434240964468,-0.8541799999999853,0.0169199999999989,0.8543475632317182,-0.0391799999999875,-0.2551739999999967,0.2581643714302911,-1.0744000000000824,-0.7270800000000008,1.2972974548653744,-0.5493000000001302,-0.4669600000000002,0.7209591747111228,-0.8725499999999897,-0.328610000000026,0.9323776244633926,0.4300000000000068,-1.555070000000029,1.6134257667770453,-0.6251300000000128,0.1206399999999803,0.6366643750831448,-0.0950400000000399,-0.0692400000000361,0.1175873258476975,-0.55600000000004,0.0951499999999896,0.5640829039246292,-0.0963700000000358,-0.0616200000000333,0.1143861936599474,-0.6969000000000278,0.0369799999999997,0.6978804556656095,-0.3436500000000251,-0.3561400000000105,0.494905063724372,-0.3596200000000067,-0.0117199999999968,0.3598109264600017,-0.1959200000000009,-0.3408199999999795,0.3931194714078487,-0.2684000000000424,-0.2185999999999808,0.3461567852866882,-0.1600000000000818,-0.7207099999999684,0.7382566654626158,0.0220899999999915,-0.2493699999999989,0.2503464898895111,0.1077399999999784,-0.606960000000015,0.6164481723551573,0.1078949999999849,-0.0654300000000489,137.830089,0.1073188270645408,104.99924819999998,0.1463161146258113,96.9811568,0.3446483949784839,0.0508485999999999,0.164385928,0.0960902991828401,0,0
17,566.6666666666666,502.0476,96.45157,0.92503583,504.19247,94.03634,0.9100534,500.3793,94.327644,0.7890949,509.23254,93.38694,0.83114654,499.30087,94.33748,0.42642203,518.0513,104.45912,0.99314463,497.2772,105.73305,0.98917204,525.6769,119.73213,0.9692555,494.78867,120.75572,0.91087204,521.88617,132.44083,0.94333243,496.98013,131.84073,0.87095505,515.9096,137.8403,0.9941089,503.2698,138.17632,0.99262625,515.6011,162.66685,0.98554313,505.04898,162.69571,0.97902334,514.3259,186.19914,0.9619289,509.14813,185.60649,0.9496583,0.99341652,0.02505583,0.95015656,0.28887904,136.85898275129423,159.41133725778874,177.61014205455135,174.00631928940672,3.3481642572749037,138.00831,105.096085,96.45157,30.88823000000002,92.8122,0.3328035502573634,176.49084561710134,0.9071396005882352,-0.5332000000000221,-0.3032699999999977,0.6134125307654077,-0.4032500000000141,-0.3375699999999995,0.5258935894266168,-0.5307999999999993,-0.2771800000000013,0.5988133201591294,-0.4295500000000061,-0.3394949999999994,0.5475126094666724,-0.5191699999999742,-0.2864059999999995,0.5929299163779586,-0.2858699999999317,-0.2990460000000041,0.4137029937237141,-0.554960000000051,-0.1068649999999991,0.5651554917233454,-0.2763300000000868,-0.2191539999999889,0.3526850501737253,-0.4803300000000376,-0.143416000000002,0.5012834108127225,0.0335699999999405,-0.0963920000000086,0.1020703804440724,-0.6806300000000647,0.1141700000000014,0.6901391061228804,0.1299799999999322,-0.1029399999999896,0.1658054402001944,-0.4019999999999868,0.0581000000000102,0.4061768211013408,0.3355800000000499,0.0401900000000097,0.3379780651167088,-0.9199999999999592,0.2511399999999923,0.9536620468488408,0.2442700000000286,0.0281799999999918,0.2458901081784575,-0.478430000000003,0.1329199999999986,0.4965510963637101,0.3757499999999822,0.1159999999999996,0.3932480928116328,-1.1488299999999754,-0.0461999999999989,1.1497585872260068,-0.0744299999998929,0.6808800000000019,0.6849360548985479,-0.3133700000000203,0.0435800000000199,0.3163857981958332,0.5591799999999694,0.372190000000046,0.6717199330822333,-0.371340000000032,0.0731500000000267,0.3784763111477753,0.2537899999999808,-0.0474899999999536,0.2581950119579886,-0.1666299999999978,0.0754000000000019,0.1828953714559216,0.3893700000000422,-0.0197499999999877,0.3898705674964864,-0.6021500000000515,0.0359100000000012,0.6032198194688749,0.0947499999999763,-0.0010699999999985,0.0947560414960202,0.0481599999999957,0.0336599999999975,0.0587569672464417,0.4077800000000025,0.0453799999999944,0.4102972980656849,-0.5483999999999014,-0.18001000000001,0.577188149653036,-0.279999999999859,0.0385899999999708,0.2826467549785753,0.2811899999999809,-0.2090800000000001,0.3504030001298353,0.2590999999999894,0.0402899999999988,0.2622138327777435,0.074275,-0.0336199999999848,137.862097,0.1345166702773406,104.9689206,0.0846646983505766,96.8052388,0.3458158070956889,0.03095133,0.221326542,0.051365161023277,0,0
18,600.0,501.80304,96.10194,0.9220549,503.9129,93.723465,0.89875084,500.046,94.02384,0.79837424,508.63907,93.220505,0.80319506,498.73636,94.177284,0.4650222,517.0248,104.25824,0.9921502,496.6931,105.75725,0.98939335,524.6794,119.15227,0.9615578,494.5631,120.98755,0.91571045,521.12683,130.97716,0.9314414,496.2905,132.0235,0.8733601,515.3419,137.23764,0.99355,502.9586,137.73714,0.9926012,514.9114,162.07025,0.9847462,504.62393,162.24693,0.97990674,514.47906,185.6275,0.9612496,509.07498,185.24838,0.9521537,1.09774904,0.00466726,1.06904895,0.24933012,136.07774431493314,163.1426320247734,179.9416719045069,172.93497823619805,4.035311789998299,137.48739,105.007745,96.10194,30.116299999999967,92.406995,0.3259093066936184,175.78334171468484,0.906777528235294,-0.2445599999999785,-0.3496300000000047,0.4266740330744218,0.2886400000000435,-0.046360000000007,0.2923393562283836,-0.2795700000000352,-0.3128749999999911,0.4195833058225912,0.2512299999999641,-0.0356949999999898,0.2537531200300427,-0.3333000000000083,-0.3038039999999995,0.450983104357586,0.1858699999999657,-0.017398,0.1866824772280121,-0.593469999999968,-0.1664349999999927,0.6163661656231298,-0.038509999999917,-0.0595699999999936,0.0709338071725524,-0.5645099999999843,-0.1601959999999991,0.5868000498602416,-0.0841799999999466,-0.0167799999999971,0.0858361275920047,-1.0264999999999418,-0.2008799999999979,1.0459708525575078,-0.3458699999998771,-0.3150499999999994,0.4678488638437787,-0.5840999999999781,0.0241999999999933,0.5846011033174451,-0.1820999999999912,-0.0339000000000169,0.1852285615125215,-0.9975000000000592,-0.5798599999999965,1.1537954193010622,-0.0775000000001,-0.8309999999999889,0.8346060447899937,-0.2255700000000047,0.2318300000000022,0.3234609308711071,0.2528599999999983,0.0989100000000036,0.2715167908251714,-0.7593399999999519,-1.4636700000000076,1.6489169489395,0.3894900000000234,-1.417470000000009,1.470008047937168,-0.6896299999999655,0.1827700000000049,0.7134384414929955,-0.3762599999999452,0.139189999999985,0.4011800639363259,-0.5676999999999452,-0.6026600000000144,0.8279386242952765,-0.1963599999999132,-0.6758100000000411,0.7037587695368502,-0.3111999999999852,-0.4391799999999932,0.5382606361234165,-0.1445699999999874,-0.5145799999999952,0.5345026298344951,-0.6897000000000162,-0.5966000000000236,0.9119307265357662,-0.0875499999999647,-0.6325100000000248,0.6385404471135914,-0.4250499999999988,-0.4487799999999993,0.6181189132359552,-0.4732099999999946,-0.4824399999999968,0.6757781127707466,0.1531599999999571,-0.5716400000000021,0.591802564374293,0.7015599999998585,-0.3916299999999921,0.8034677905801796,-0.0731499999999982,-0.3581100000000106,0.3655047121447374,-0.3543399999999792,-0.1490300000000104,0.3844044439129033,-0.5209199999999896,-0.5951949999999897,137.781738,0.2119921402022155,104.989764,0.0770249145893309,96.5487528,0.2777882305088548,-0.0395489199999999,0.2387673679999999,0.0397243692010166,0,0
19,633.3333333333333,500.56277,96.40112,0.9049684,502.61343,94.05175,0.88087314,499.084,94.312675,0.7511073,507.64798,93.39563,0.7924559,498.3598,94.27035,0.40780172,516.50885,104.26543,0.99080276,496.59363,105.55175,0.9866751,524.15625,119.24739,0.95932704,494.5189,120.7814,0.90279514,520.3121,130.5944,0.9282072,495.88602,131.86421,0.8596796,514.63324,137.47284,0.9928161,502.64813,137.80644,0.9914637,514.09607,162.0231,0.9833702,504.89682,162.03737,0.9773974,513.67554,185.17511,0.95783633,509.7708,184.50478,0.9467679,1.24165363,-0.00245645,1.2255251,0.1994641,134.24299254620354,165.21017318665906,179.78711557837502,173.06216556407554,3.6526494584812266,137.63964,104.90859,96.40112,29.637350000000023,91.77948,0.3229191282962259,176.3044107143571,0.894961466470588,-1.2402700000000095,0.2991800000000069,1.2758441696774836,-0.995710000000031,0.6488100000000117,1.1884413406643497,-1.2994699999999852,0.3282849999999939,1.340295983029479,-1.01989999999995,0.6411599999999851,1.2046917263764532,-0.9619999999999892,0.2888349999999917,1.0044250381312556,-0.6286999999999807,0.5926389999999913,0.8639934457627357,-0.9910899999999856,0.1751249999999942,1.0064433186846489,-0.3976200000000176,0.341559999999987,0.524180215193215,-0.3765599999999836,0.0930659999999932,0.3878900797339194,0.1879500000000007,0.2532619999999923,0.3153836443825145,-0.5159499999999753,0.0071899999999942,0.516000095542602,0.5105499999999665,0.2080699999999922,0.5513206212359216,-0.0994699999999966,-0.2055000000000006,0.2283079737985504,0.4846299999999814,-0.229699999999994,0.5363099168391158,-0.5231499999999869,0.0951199999999943,0.5317271263533442,0.4743500000000722,0.6749799999999908,0.8249884380402286,-0.0442000000000462,-0.2061499999999938,0.2108351548010946,0.1813699999999585,-0.437979999999996,0.4740480537877795,-0.8147300000000541,-0.3827599999999904,0.9001612025076847,-0.0553900000001021,1.0809100000000171,1.0823282682255178,-0.404480000000035,-0.1592899999999986,0.4347152798097024,0.2851499999999305,-0.3420600000000036,0.445326359089559,-0.708660000000009,0.2351999999999918,0.7466713035867985,-0.1409600000000637,0.8378600000000063,0.8496346869096321,-0.3104700000000093,0.0692999999999983,0.3181102181634623,0.0007299999999759,0.5084799999999916,0.5084805240124655,-0.8153299999999035,-0.0471499999999878,0.8166921888936134,-0.1256299999998873,0.5494500000000357,0.5636294876956057,0.272890000000018,-0.2095599999999819,0.3440702627371367,0.6979400000000169,0.2392200000000173,0.7377983816734974,-0.8035200000000486,-0.4523900000000083,0.922117727028434,-0.9566800000000056,0.1192499999999938,0.9640835985017115,0.6958200000000261,-0.7435999999999865,1.0183842263114724,0.7689700000000244,-0.3854899999999759,0.8601845156709221,0.1522499999999809,0.6731699999999705,137.77910300000002,0.21406696124114,104.982962,0.0834637484629934,96.486002,0.266071456605255,-0.0498660199999999,0.240536016,0.0371588552629819,0,0
20,666.6666666666666,499.8075,96.55375,0.8976191,501.8003,94.23176,0.87632465,498.47235,94.45474,0.7244097,506.95996,93.48362,0.7942359,498.0202,94.253395,0.36876976,516.06335,104.26803,0.99051255,496.30566,105.25974,0.9850552,523.72034,119.64688,0.9616174,494.15033,120.39365,0.8951883,520.00934,131.57774,0.93178594,495.38058,131.43208,0.85339165,514.02954,137.65514,0.99281824,502.12302,137.83466,0.9910813,513.69867,162.63126,0.9833597,504.2573,162.52884,0.97630715,513.2408,186.24101,0.9572417,508.64975,185.40533,0.9442002,1.24874494,-0.03168826,1.21226024,0.29796792,136.25380821926515,165.53513902236006,179.64795036520346,174.07078858403085,3.282891143236054,137.7449,104.763885,96.55375,29.570009999999968,92.75739,0.3187887205667521,177.12652889045555,0.8896422611764706,-0.7552699999999959,0.1526299999999878,0.7705379223633254,0.4850000000000136,-0.146550000000019,0.5066575791400132,-0.813130000000001,0.1800099999999957,0.8328169048476382,0.4863399999999842,-0.1482749999999981,0.5084408237199134,-0.6116499999999974,0.1420650000000023,0.6279316736118647,0.3503499999999917,-0.1467699999999894,0.3798507014604436,-0.6880199999999945,0.0879900000000049,0.6936236447094298,0.303069999999991,-0.0871349999999893,0.3153473214171839,-0.3396000000000185,-0.0169549999999958,0.3400229874949816,0.036959999999965,-0.110020999999989,0.116063181246229,-0.4455000000000382,0.002600000000001,0.4455075869163555,0.070449999999937,-0.0045899999999932,0.0705993668526217,-0.2879700000000298,-0.2920100000000047,0.4101177404112384,-0.1885000000000332,-0.086510000000004,0.2074035440873979,-0.4359100000000353,0.3994900000000001,0.5912780971759658,0.0872399999999515,0.3043700000000058,0.3166258272788167,-0.3685699999999769,-0.3877500000000111,0.5349709407061207,-0.3243699999999307,-0.1816000000000173,0.3717451504726879,-0.3027600000000348,0.9833399999999984,1.0288931787119682,0.5119700000000194,1.3660999999999888,1.4588839881566968,-0.5054399999999646,-0.4321300000000008,0.664985661875476,-0.1009599999999295,-0.2728400000000022,0.2909202419908023,-0.6037000000000035,0.1822999999999979,0.6306242779976072,0.1049600000000055,-0.0528999999999939,0.1175372774910177,-0.5251099999999838,0.0282200000000045,0.5258677405013387,-0.2146399999999744,-0.0410799999999937,0.218535800270776,-0.3974000000000615,0.608159999999998,0.7264883657706065,0.417929999999842,0.6553099999999858,0.7772365669471871,-0.6395200000000045,0.4914699999999925,0.8065535266180407,-0.9124100000000226,0.7010299999999745,1.1506237738722442,-0.4347399999999197,1.0658999999999992,1.151147982493966,0.3687800000001289,1.5182900000000077,1.562435026649146,-1.1210500000000252,0.9005499999999813,1.4379650221754432,-1.8168700000000515,1.6441499999999678,2.4503562637706544,0.1052600000000154,-0.0469899999999654,137.762855,0.2126828824212673,104.957251,0.1268463746722615,96.452644,0.2383243678897378,0.0985038199999999,0.258713778,0.0388909564653214,0,0
21,700.0,499.45276,96.176,0.8884993,501.40863,93.88486,0.8571335,498.08737,94.09935,0.7195558,506.42926,93.234146,0.7614839,497.59708,93.96647,0.38550702,515.3176,104.03103,0.9887404,495.69467,104.993996,0.98473674,522.55884,119.53168,0.9541669,492.74142,120.49861,0.90340686,519.3074,131.71825,0.92112327,493.93155,132.96387,0.86024785,513.4558,137.57626,0.991368,501.78955,137.76381,0.99014074,512.8957,162.84572,0.97837573,504.87842,162.72284,0.97197616,511.39227,186.36719,0.9431752,509.13507,185.50482,0.9309507,1.16649966,-0.04200537,1.08771801,0.41931677,140.02120572901137,163.7619103877688,177.6125369199348,176.47163812625553,3.652426067532229,137.67003499999998,104.512513,96.176,29.817420000000027,93.133044,0.3201594020682994,177.1905489438101,0.8841522394117647,-0.3547399999999925,-0.3777499999999918,0.5182041394083885,0.4005300000000034,-0.5303799999999796,0.6646256279289726,-0.3916699999999764,-0.3468999999999909,0.5232064591535307,0.4214600000000246,-0.5269099999999867,0.6747315612152782,-0.3849799999999845,-0.3553899999999999,0.5239385961159838,0.2266700000000128,-0.4974550000000022,0.5466633021568285,-0.5307000000000244,-0.2494740000000064,0.5864126249289224,0.1573199999999701,-0.3374640000000113,0.3723325579317477,-0.423119999999983,-0.2869249999999965,0.5112303688406858,-0.0835199999999645,-0.2699700000000007,0.2825940397460542,-0.7457500000000437,-0.2369999999999947,0.7825037140487338,-0.3002500000000054,-0.2395999999999958,0.3841330791535679,-0.6109900000000152,-0.265743999999998,0.6662797112594812,-0.3230199999999854,0.0262660000000067,0.324086135396118,-1.1614999999999327,-0.1152000000000015,1.1671989076416427,-0.7255899999998974,-0.5146900000000016,0.889599148043574,-1.4089099999999917,0.1049600000000055,1.4128142091938265,-1.0403400000000147,0.4927100000000166,1.1511170486531972,-0.7019399999999223,0.1405100000000061,0.7158650876386504,-0.3991799999998875,-0.8428299999999922,0.9325808711848518,-1.4490299999999934,1.5317899999999725,2.108570260863957,-0.9435900000000288,1.9639199999999728,2.17884002499035,-0.5737400000000434,-0.078879999999998,0.5791369803423448,0.02995999999996,-0.2611799999999959,0.2628927423874526,-0.333469999999977,-0.0708500000000071,0.3409134250803065,0.1916400000000067,-0.0990700000000117,0.2157330630663851,-0.8029699999999593,0.2144600000000025,0.8311160643977084,-0.4055699999998978,-0.3936999999999955,0.5652315586553122,0.621120000000019,0.1939999999999884,0.6507119596257772,1.2606400000000235,-0.2974700000000041,1.295261213230776,-1.8485300000000395,0.126180000000005,1.852831496197144,-1.4137900000001196,-0.939719999999994,1.6976088602797546,0.4853200000000015,0.0994900000000029,0.495412719356298,1.6063700000000267,-0.8010599999999783,1.795026935870337,-0.0748650000000168,-0.1801250000000323,137.710055,0.1912523162605632,104.8577636,0.2290665849263044,96.336876,0.1906517430553541,0.12134885,0.2909915899999999,0.0815987796754106,0,0
22,733.3333333333333,499.07367,96.15261,0.86967206,500.96194,93.91754,0.836927,497.8009,94.11401,0.67932236,505.85834,93.41078,0.74518335,497.42978,94.07702,0.34960887,514.59033,104.1957,0.98731905,495.5009,105.04627,0.9816549,521.976,119.72175,0.9527513,492.44467,120.388916,0.8915687,519.78265,132.24985,0.9187868,493.1202,132.59007,0.8476065,512.67786,137.59116,0.99103796,501.37073,137.75021,0.98939764,512.02905,163.29121,0.9783075,504.40308,163.19046,0.9709235,510.89603,187.26344,0.94356805,508.46765,186.43909,0.9297228,1.05578153,-0.08769542,0.94524365,0.46205907,144.62939986966282,165.56522996724337,178.74014218824502,176.88047454428155,3.4262279081480203,137.670685,104.620985,96.15261,29.531330000000025,93.85266,0.3146562887545621,177.4487526153728,0.8743151964705882,-0.3790900000000192,-0.0233900000000062,0.3798109005808218,-0.0243500000000267,0.3543599999999856,0.3551956251138111,-0.4466899999999896,0.0326799999999991,0.4478838448749749,-0.0550200000000131,0.37957999999999,0.383546837817748,-0.2864700000000084,0.0146599999999921,0.2868448648660188,0.0985099999999761,0.370049999999992,0.3829376223355304,-0.570920000000001,0.176634000000007,0.597619625142953,-0.0402199999999766,0.4261080000000135,0.428001958014224,-0.1673000000000115,0.1105500000000034,0.2005257901119071,0.2558199999999715,0.397475,0.47268408903303,-0.7272699999999759,0.1646700000000009,0.7456794631743355,0.0184800000000677,0.4016699999999957,0.4020948884280911,-0.1937699999999722,0.0522740000000112,0.2006972445650174,0.417220000000043,0.3180180000000092,0.524602684632896,-0.5828400000000329,0.1900700000000057,0.613048995187204,0.5786599999998998,0.3052700000000072,0.6542454955900641,-0.2967500000000314,-0.1096940000000046,0.3163753089860516,1.1121599999999603,-0.2146540000000101,1.1326853955604426,0.47524999999996,0.5315999999999974,0.7130645991072332,1.1771899999998825,0.3910899999999913,1.240454628029464,-0.8113500000000045,-0.3737999999999886,0.8933170000061561,0.6376799999999889,-1.905589999999961,2.009454908799856,-0.7779399999999441,0.0149000000000114,0.7780826778690767,-0.2041999999999006,0.0937800000000095,0.2247049808080836,-0.4188200000000392,-0.0135999999999967,0.419040752672139,-0.0853500000000622,0.0572500000000104,0.1027724914556994,-0.8666500000000497,0.4454900000000066,0.974445258903799,-0.0636800000000903,0.231030000000004,0.2396455785112952,-0.4753400000000169,0.4676200000000108,0.6667957558353429,-1.096460000000036,0.2736200000000224,1.1300851454647527,-0.4962400000000002,0.8962500000000091,1.0244599553423337,1.352290000000039,0.770070000000004,1.5561799539256738,-0.6674199999999928,0.934269999999998,1.1481767674447982,-1.1527399999999943,0.834779999999995,1.4232593424952384,0.0006500000000073,0.0755150000000242,137.64253,0.0950073913574241,104.7627436,0.2024901324998411,96.277084,0.1925591969500431,0.0427423,0.325627596,0.1116857182744872,0,0
23,766.6666666666667,498.99838,97.02659,0.8837477,500.9073,94.76389,0.8461081,497.52612,94.950386,0.71728885,505.6495,94.11774,0.7380994,496.75388,94.70387,0.39075166,513.84973,104.67941,0.9880555,494.67786,105.4194,0.98435205,521.303,120.24385,0.95179456,491.47687,120.81294,0.904426,520.0322,132.90079,0.918223,493.16058,132.98122,0.8616391,512.1491,137.89548,0.99169546,500.81055,138.07898,0.99070287,511.22787,164.13835,0.9799699,503.86658,164.06474,0.97454923,510.0675,188.88852,0.9479775,507.98987,188.14502,0.93758464,1.00992981,0.15254582,0.91060764,0.4092453,148.67837980812598,160.3751821247042,179.32622813712837,176.99082279167175,3.849038597828303,137.98723,105.049405,97.02659,29.826129999999974,94.77078,0.3147186261976671,177.78961217985557,0.882762677647059,-0.0752899999999954,0.8739800000000031,0.8772169768649059,0.3038000000000238,0.8973700000000093,0.9474003150200192,-0.0546400000000062,0.846350000000001,0.8481119337092259,0.3920499999999833,0.8136700000000019,0.9031954779559018,-0.2747800000000211,0.8363760000000013,0.8803572353175805,0.0116899999999873,0.8217160000000092,0.8217991486707775,-0.2088400000000092,0.7069599999999951,0.7371611677238546,0.3620799999999917,0.5303259999999881,0.6421429690310261,-0.6759000000000128,0.6268499999999904,0.9218360659575028,-0.5086000000000013,0.5162999999999869,0.7247341926527187,-0.7405999999999722,0.4837100000000021,0.8845697960590565,-0.0133299999999962,0.3190400000000011,0.3193183529019286,-0.8230399999999918,0.3731299999999891,0.9036707577984242,-0.6292700000000195,0.3208559999999778,0.7063492801978426,-0.6730000000000018,0.5220999999999947,0.8517730977202772,-0.0901599999999689,0.3320299999999889,0.3440534064647334,-0.9677999999999544,0.4240240000000028,1.056614022515277,-0.6710499999999229,0.5337180000000075,0.8574164717474843,0.2495499999999992,0.6509399999999914,0.6971356296302668,-0.2256999999999607,0.119339999999994,0.2553086868870325,0.0403799999999705,0.3911500000000103,0.3932287717093012,0.851729999999975,0.7649499999999989,1.144811117783172,-0.5287600000000339,0.3043199999999899,0.6100801586677195,0.2491799999999102,0.2894199999999785,0.3819091630217096,-0.5601800000000026,0.3287699999999915,0.6495316353342594,-0.1413599999999633,0.3423699999999883,0.3704050033409128,-0.801179999999988,0.847139999999996,1.1659912401043049,0.0654700000000616,0.4016499999999894,0.406950910307373,-0.5364999999999895,0.8742799999999988,1.025766917189274,-0.0611599999999725,0.406659999999988,0.4112333901812776,-0.8285300000000007,1.625079999999997,1.8241016877630456,-0.3322900000000004,0.7288299999999879,0.8010055012295375,-0.4777799999999956,1.705929999999995,1.7715729997095742,0.1896399999999971,0.7716599999999971,0.7946209695194272,0.3165450000000191,0.3158950000000118,137.74249799999998,0.1422034483847908,104.7710756,0.2155289865465995,96.462014,0.3565124388153177,-0.05281377,0.357610632,0.1071807367082899,0,0
24,800.0,499.33652,97.59112,0.89750487,501.28226,95.29541,0.8495267,497.58838,95.42454,0.7631001,505.66348,94.49928,0.71355593,496.04926,94.86824,0.45770288,513.1819,104.76509,0.9889432,493.3117,105.34562,0.988052,520.59564,120.41994,0.9512047,490.0745,121.13417,0.9270099,519.6338,133.11348,0.919454,492.55643,134.03395,0.8881361,511.60632,137.69777,0.99290437,499.7981,137.91133,0.9928415,510.51398,164.37875,0.98288894,502.8168,164.31628,0.9803396,509.85178,189.81757,0.9553267,507.61914,189.17932,0.9500321,1.16609888,0.14468516,0.99388145,0.5924968,150.32570282187564,157.52228729480657,179.1467043691176,175.58976751823354,4.28782024576952,137.80455,105.055355,97.59112,30.521140000000003,95.31829,0.3202023418569266,178.32651609907683,0.8940307994117647,0.3381400000000099,0.5645300000000049,0.6580522627421109,0.4134300000000053,-0.3094499999999982,0.5164142401212454,0.3749599999999873,0.5315200000000004,0.6504679177330661,0.4295999999999935,-0.3148300000000006,0.5326106353613255,0.0622599999999806,0.4741539999999986,0.4782241350203859,0.3370400000000018,-0.3622220000000027,0.4947734217639455,0.0139800000000036,0.3815400000000011,0.3817960345524832,0.2228200000000129,-0.325419999999994,0.3943943823129354,-0.7046199999999772,0.1643700000000052,0.7235377262451278,-0.0287199999999643,-0.4624799999999851,0.4633708976618883,-0.6678299999999808,0.0856799999999964,0.6733037734187844,0.0727699999999913,-0.3980300000000056,0.4046274259117926,-1.3661600000000362,-0.0737799999999992,1.3681508082079616,-0.5431200000000445,-0.4469099999999883,0.7033547344690572,-0.7073599999999942,0.176090000000002,0.7289484602494147,-0.0343599999999924,-0.3460099999999926,0.3477118486620701,-1.402370000000019,0.3212299999999999,1.4386904913149503,-0.4345700000000647,-0.1027940000000029,0.446562080047172,-0.3984000000000378,0.2126900000000091,0.4516188615414928,-0.6479500000000371,-0.4382499999999822,0.7822418200275619,-0.6041500000000042,1.0527299999999968,1.2137700257462278,-0.6445299999999747,0.6615799999999865,0.92363792543396,-0.5427799999999934,-0.1977100000000007,0.5776671814288856,-0.0140199999999595,-0.5020299999999907,0.502225727437364,-1.0124500000000012,-0.1676500000000089,1.0262365833471372,-0.4522699999999986,-0.4964200000000005,0.671551166553971,-0.7138899999999921,0.2403999999999939,0.7532802214979403,0.0872899999999958,-0.606740000000002,0.6129869262064255,-1.0497799999999984,0.2515400000000056,1.079495446956586,-0.5132800000000088,-0.6227399999999932,0.8070077236309456,-0.2157199999999761,0.9290499999999896,0.9537657054538972,0.6128100000000245,-0.6960300000000075,0.9273585374600488,-0.3707299999999804,1.0343000000000018,1.098734373222204,0.1070500000000151,-0.6716299999999933,0.6801077557269836,-0.1826800000000048,-0.499225000000024,137.77548,0.1310714536522706,104.8004286,0.2466817535708741,96.700014,0.61162830953942,0.1832515,0.436217172,0.1063215488101616,0,0
25,833.3333333333334,499.1544,98.21939,0.9011438,501.12332,95.85839,0.8514009,497.2057,95.98117,0.77189815,505.33447,94.96722,0.7097507,495.23123,95.30334,0.4698621,512.6491,105.161896,0.989472,492.40186,105.65971,0.9886912,520.2365,121.23038,0.9528951,489.6593,121.602936,0.929782,519.15045,134.32906,0.92236906,492.18915,134.14835,0.8923937,510.70172,137.7001,0.9934716,498.66278,137.90808,0.99343914,509.45114,164.65988,0.9846223,501.97003,164.63644,0.98236394,508.28525,190.42245,0.9598962,506.56677,189.89978,0.95515674,0.99306783,0.13264854,0.81431463,0.55270224,149.9840012996932,158.83838244055588,179.93522211473746,176.7413517790962,3.8092015886203408,137.80409,105.410803,98.21939,30.577200000000005,95.45523,0.3203302708470739,178.5915662642717,0.8969769782352941,-0.1821199999999976,0.6282700000000006,0.6541336922220103,-0.5202600000000075,0.0637399999999956,0.5241500311933667,-0.1589400000000296,0.562979999999996,0.5849858152126468,-0.5339000000000169,0.0314599999999956,0.53482608537731,-0.3826799999999934,0.5566300000000126,0.6754857062144314,-0.4449399999999741,0.0824760000000139,0.4525194959070596,-0.3290099999999825,0.4679399999999987,0.5720274676097182,-0.3429899999999861,0.0863999999999975,0.3537048205778231,-0.8180300000000216,0.4351000000000056,0.9265447052895182,-0.1134100000000444,0.2707300000000003,0.2935243788853156,-0.5328000000000657,0.396805999999998,0.664327360294658,0.1350299999999151,0.3111260000000015,0.3391643978603563,-0.9098399999999742,0.3140900000000073,0.9625286248730256,0.456320000000062,0.3878700000000066,0.5988915421844441,-0.3591400000000249,0.8104399999999998,0.886450524958961,0.3482199999999693,0.6343499999999977,0.7236415486274789,-0.4152000000000271,0.4687660000000022,0.6262049207376325,0.987169999999992,0.1475360000000023,0.9981339991183472,-0.4833499999999731,1.2155799999999886,1.30815211611645,-0.0849499999999352,1.0028899999999794,1.0064814228787076,-0.3672799999999938,0.1143999999999891,0.3846842320657203,0.2368700000000103,-0.9383300000000075,0.967765770111766,-0.9045999999999594,0.0023300000000006,0.904603000713532,-0.361819999999966,0.2000400000000013,0.4134364691218906,-1.1353199999999788,-0.0032499999999799,1.1353246517626363,-0.1228699999999776,0.1644000000000289,0.2052422882838817,-1.0628399999999942,0.2811299999999903,1.099392078605255,-0.3489500000000021,0.0407299999999963,0.3513189937933916,-0.8467699999999923,0.3201599999999871,0.9052744658389404,0.2030100000000061,0.0686199999999814,0.2142936408295868,-1.5665300000000002,0.6048800000000085,1.6792546130054282,-1.350810000000024,-0.324169999999981,1.3891630015948642,-1.0523699999999965,0.7204600000000028,1.2753608228654336,-0.6816400000000158,-0.313839999999999,0.7504189731077039,-0.0004600000000039,0.1822200000000009,137.78731799999997,0.1302896852498964,104.9298122,0.3643241839038363,97.033142,0.8984146740064137,-0.03979456,0.4871640359999999,0.0816931569912666,0,0
26,866.6666666666667,496.47348,99.26819,0.90984184,498.60413,96.75096,0.8931678,494.8693,96.89275,0.75750786,504.19693,95.04431,0.7904728,493.8429,95.570435,0.3831167,513.1796,104.71521,0.99103796,491.747,105.15788,0.9868014,520.3024,121.44876,0.9698732,488.92624,121.04286,0.9166409,518.43146,135.45325,0.94974107,490.95972,132.6375,0.88721555,510.9495,137.63573,0.99471223,498.2803,137.6355,0.9934396,509.7361,164.50485,0.9897641,501.82983,164.20343,0.98525476,507.8957,190.96237,0.97202605,506.00583,189.90007,0.9634504,0.82247735,-0.13436806,0.69689611,0.41563208,149.33307957100988,159.9832902448611,178.60658004261188,178.37923826511215,3.764664033732619,137.635615,104.936545,99.26819,31.376160000000027,95.91806,0.3271142021938916,178.81677831480562,0.9020037776470587,-2.680920000000014,1.0488,2.878769439604373,-2.498800000000017,0.4205299999999994,2.533939012861218,-2.5191899999999805,0.8925700000000063,2.6726390442781294,-2.360249999999951,0.3295900000000102,2.383151197595271,-2.336399999999969,0.9115800000000008,2.507936015212481,-1.953719999999976,0.3549499999999881,1.9857017250583977,-1.137540000000001,0.0770899999999983,1.1401491655480889,-0.8085300000000188,-0.3908500000000003,0.8980448114654584,-1.3883299999999963,0.2670949999999976,1.4137892091556608,-0.5702999999999747,-0.1680050000000079,0.5945315551129089,0.5305000000000746,-0.4466859999999997,0.6935118114322775,1.0633000000001402,-0.8434919999999977,1.35723455749708,-0.6548599999999851,-0.5018299999999982,0.825030283383573,0.2549799999999891,-0.8159200000000055,0.854833461441469,0.065900000000056,0.2183799999999962,0.2281066294521177,0.4250400000000809,-0.5920600000000036,0.728830601168799,-0.7330599999999663,-0.5600759999999951,0.922530264747962,-0.3178599999999392,-1.0288419999999974,1.07682442420478,-0.7189899999999625,1.1241899999999987,1.3344473673397326,-0.2356399999999894,-0.0913899999999898,0.2527416501093422,-1.2294299999999794,-1.510850000000005,1.94786186558492,-0.8621499999999855,-1.625249999999994,1.8397663397833857,0.2477799999999774,-0.0643699999999967,0.2560047368702157,1.152379999999937,-0.0666999999999973,1.1543086911220302,-0.3824799999999868,-0.2725800000000049,0.4696709558829379,0.752839999999992,-0.2693300000000249,0.7995665791539822,0.2849600000000123,-0.1550299999999822,0.3244017609385027,1.3478000000000063,-0.4361599999999725,1.4166158214561893,-0.140199999999993,-0.4330099999999959,0.4551414067078433,0.7065699999999993,-0.753169999999983,1.0327178771571517,-0.3895500000000425,0.5399199999999951,0.6657798501757377,1.1769799999999575,-0.0649600000000134,1.1787712763720968,-0.5609400000000164,0.0002900000000067,0.5609400749634657,0.4914299999999798,-0.720169999999996,0.8718648254173204,-0.1684750000000008,-0.1680149999999969,137.780434,0.1386751231927222,105.0146186,0.2832289377778921,97.65158,1.1807852324618808,-0.13707016,0.4864270979999999,0.0824711183297384,0,0
27,900.0,495.2809,99.15373,0.91627663,497.54187,96.67049,0.9091993,493.80273,96.73675,0.7532913,503.46228,95.23229,0.8273908,492.9282,95.56627,0.34942493,512.504,105.182724,0.99244046,490.63733,105.26003,0.98653376,519.7269,121.68416,0.97637343,486.51907,120.39227,0.9090226,517.71967,135.15967,0.9590078,489.21475,131.3179,0.88200086,510.148,138.02509,0.99521434,497.20142,137.85278,0.99338996,508.93796,164.74947,0.99056655,500.97168,164.29868,0.98463863,506.88965,191.18304,0.9734795,505.46436,189.8713,0.9620187,0.97179876,-0.03046003,0.82954465,0.50529267,147.88821971697226,150.91582841551178,178.16155781016454,178.14947289467017,3.6796147424657817,137.938935,105.221377,99.15373,33.20783,95.95075,0.3460924448626775,179.79744107914888,0.9035452676470588,-1.1925800000000208,-0.1144600000000082,1.1980601604260328,1.4883399999999938,-1.1632600000000082,1.8890023248265209,-1.0622599999999809,-0.0804700000000053,1.0653035851342845,1.4569299999999998,-0.9730400000000116,1.751985121654868,-1.066570000000013,-0.1560000000000059,1.077918162431652,1.2698299999999565,-1.0675800000000066,1.658974166555918,-0.7346499999999878,0.1879800000000102,0.7583186025016042,0.4028900000000135,0.1108900000000119,0.4178719232013722,-0.914699999999982,-0.0041650000000004,0.9147094824177604,0.4736300000000142,-0.271259999999998,0.5458089084102717,-0.6756000000000313,0.4675139999999942,0.8215866967009854,-1.206100000000106,0.914199999999994,1.5134195882174395,-1.1096699999999942,0.1021499999999946,1.1143617596633448,-0.454810000000009,0.6039799999999929,0.7560714096565215,-0.5755000000000337,0.2354000000000127,0.6217824458764051,-0.6414000000000897,0.0170200000000164,0.6416257790956622,-2.407170000000008,-0.6505900000000082,2.493538601465806,-1.6741100000000415,-0.090514000000013,1.6765551217589425,-0.7117900000000645,-0.2935799999999915,0.7699572848542229,0.0071999999998979,-1.4177699999999902,1.4177882821140717,-1.7449700000000234,-1.31959999999998,2.1877532906843102,-0.5155400000000441,0.191250000000025,0.5498709431312542,-0.8014999999999759,0.3893600000000106,0.891068717664339,-1.0492799999999534,0.4537300000000073,1.1431795271521918,-1.0788800000000265,0.2172799999999881,1.1005419813891937,-0.6964000000000397,0.4898599999999931,0.851431605943806,-0.7981400000000463,0.2446199999999976,0.8347852442395425,-1.0831000000000586,0.3996499999999798,1.1544807198477205,-0.8581500000000233,0.0952499999999929,0.8634199354891214,-0.7179500000000303,0.5282599999999888,0.8913533699381136,-1.0060499999999593,0.2206700000000125,1.0299669176240196,-0.6164999999999168,-0.3192499999999825,0.6942570219305573,-0.5414700000000039,-0.0287700000000086,0.5422337815001982,0.0194700000000125,-0.0290600000000154,0.0349794868458841,0.3033200000000136,0.4717950000000144,137.83408400000002,0.1374856998655035,105.134697,0.1847850365749146,98.251804,0.972781369517355,0.0896605899999999,0.495073818,0.0815386742882132,0,0
28,933.3333333333334,495.06293,99.482925,0.94198966,497.1855,96.99356,0.9251736,493.13135,97.220665,0.8455478,502.26483,95.81033,0.80742025,491.4641,96.60403,0.4845504,510.8036,105.74997,0.9930032,489.02197,106.62227,0.9918148,518.56396,121.97189,0.9761455,484.94217,121.8501,0.9520648,516.90985,135.36887,0.9614801,488.5095,132.62988,0.9311604,509.64594,137.17531,0.9952539,496.68542,137.50558,0.99480504,508.39487,164.27264,0.9893693,500.3673,164.25497,0.98635304,505.44922,190.40172,0.96944696,504.18036,189.84505,0.96334124,0.81862938,0.231398,0.67994658,0.39278706,147.39551819603122,146.69088067332785,176.2113817116124,179.3621142212046,5.960803396829518,137.340445,106.18612,99.482925,33.621789999999976,94.59139000000002,0.3554423890436284,177.70667230728898,0.9240541170588236,-0.2179699999999798,0.3291949999999985,0.3948167536022126,0.974610000000041,0.4436550000000068,1.0708381815779104,-0.3563700000000267,0.3230700000000013,0.4810133073003489,0.7058899999999539,0.4035400000000066,0.8130960728597454,-0.6713799999999992,0.4839149999999961,0.827601855740425,0.3951900000000137,0.639915000000002,0.7521079332948253,-1.1974500000000037,0.5780399999999872,1.3296679074490718,-0.4628000000000156,0.390059999999977,0.6052525453064997,-1.4641000000000304,1.0377599999999916,1.794584806466407,-0.5494000000000483,1.041924999999992,1.177899853818242,-1.700400000000002,0.5672460000000115,1.792520065303599,-1.0247999999999706,0.0997320000000172,1.02964144818667,-1.6153600000000097,1.36224,2.1130749506820696,-0.5056900000000155,1.2600900000000053,1.3577736130150817,-1.1629400000000487,0.2877299999999962,1.1980058415968224,-0.5874400000000151,0.0523299999999835,0.5897662100358209,-1.5769000000000233,1.4578300000000013,2.1475292591487727,0.8302699999999845,2.108420000000009,2.2660059949832467,-0.8098199999999451,0.2091999999999814,0.8364048495793789,-0.0980299999998806,0.5027799999999729,0.5122476054604349,-0.7052499999999782,1.3119800000000057,1.489519749080214,1.0397200000000453,2.6315799999999854,2.82952840148319,-0.5020600000000286,-0.8497800000000097,0.9870107861619576,0.2994399999999473,-1.2391400000000203,1.2748067513156724,-0.5159999999999627,-0.3471999999999866,0.6219355593628269,0.5628800000000638,-0.5644799999999748,0.7971647036842784,-0.5430899999999497,-0.4768300000000067,0.7227126655870587,0.2550500000000966,-0.7214500000000044,0.7652062499745121,-0.6043799999999919,-0.0437100000000043,0.6059585369478597,0.2537700000000313,-0.1389599999999973,0.2893252399981985,-1.440429999999992,-0.7813199999999938,1.638688355758949,-0.4343800000000328,-1.0019900000000064,1.092094292861217,-1.2839999999999918,-0.0262500000000045,1.2842682984875002,-0.7425299999999879,0.002520000000004,0.7425342761785358,-0.5984900000000266,-0.9018100000000402,137.704727,0.2303089601112704,105.36204,0.4940580533672092,98.743071,0.8051409218143543,-0.1125056099999999,0.49178217,0.086075683624953,0,0
29,966.6666666666666,495.40353,101.26401,0.9388279,497.38403,98.703384,0.9182072,493.273,98.979324,0.8411277,502.14713,96.870384,0.7889629,491.19675,97.74849,0.48550215,510.59634,105.94643,0.99239653,488.55908,106.73016,0.99166495,517.59326,123.26128,0.9743969,484.70657,122.45944,0.95317227,514.49805,138.35136,0.9596018,488.2245,134.2094,0.9328019,509.38855,136.335,0.9951285,496.22403,136.6628,0.99484634,507.3346,163.92181,0.98965573,498.88184,163.93135,0.98708713,504.75723,190.87802,0.9704028,503.18573,190.44962,0.9651118,0.82705639,0.20241184,0.75535973,0.2692274,146.40491758901862,149.5700332727275,178.7964122513549,176.3482490575463,6.110049427789524,136.4989,106.338295,101.26401,32.88668999999999,94.007636,0.3498299824300444,177.96319941288516,0.922287911764706,0.3405999999999949,1.7810850000000045,1.8133593513766133,0.5585699999999747,1.451890000000006,1.555630102884355,0.1985300000000052,1.7098239999999976,1.7213112071545906,0.5549000000000319,1.3867539999999965,1.4936534626599387,0.1416500000000269,1.7586590000000086,1.7643543297141415,0.8130300000000261,1.2747440000000123,1.5119490885727846,-0.1177000000000134,1.060054000000008,1.0665682223449282,1.07974999999999,0.4820140000000208,1.182454040838797,-0.2673499999999649,1.1444600000000094,1.1752721872400465,1.1967500000000657,0.1067000000000177,1.2014971712410147,-0.2072600000000193,0.1964600000000018,0.2855752776414806,1.4931399999999826,-0.3707860000000096,1.5384892971340278,-0.4628900000000158,0.1078899999999976,0.4752971746181688,1.152469999999994,-1.2543500000000023,1.703402777795079,-0.9706999999999651,1.2893899999999974,1.6139346523635725,0.1922400000000834,1.001660000000001,1.0199406714118395,-0.2355999999999767,0.6093400000000031,0.6533013053714134,1.3413000000000466,-0.8484899999999982,1.5871423912491665,-2.411799999999971,2.9824900000000127,3.8356258733223623,-1.601980000000026,2.773290000000032,3.2027296708433357,-0.285000000000025,1.5795199999999738,1.6050259905683557,0.4202499999999531,0.2675399999999683,0.4981844177610774,-0.2573899999999867,-0.8403099999999881,0.8788461231637613,0.2446700000000419,0.0094700000000216,0.2448532005100626,-0.4613899999999944,-0.8427800000000047,0.9608115634712162,0.0546099999999682,-0.4955800000000181,0.4985797714508828,-1.0602700000000027,-0.350830000000002,1.1168053374693403,-0.517180000000053,0.1260000000000047,0.5323073852578565,-1.4854599999999891,-0.3236199999999769,1.5203030342665087,-0.8810799999999972,-0.2799099999999725,0.9244736743141904,-0.6919900000000325,0.4762999999999806,0.8400665748022752,0.7484399999999596,1.2576199999999744,1.4634789024785684,-0.9946300000000292,0.6045700000000238,1.1639560652361784,0.2893699999999626,0.6308200000000284,0.6940236806478682,-0.8415449999999964,-0.2430549999999698,137.443597,0.5734279829521642,105.618628,0.6136376307455377,99.477649,1.1094058951551922,-0.12355966,0.42712829,0.1096843895051342,0,0
30,1000.0,493.14377,102.302765,0.9263005,495.23145,99.76141,0.9077292,491.3507,100.01248,0.7955189,500.77594,97.91639,0.80297464,490.09747,98.71161,0.42693835,510.10086,107.00908,0.99297076,487.635,107.65443,0.9910432,517.2894,123.848434,0.975899,483.95273,123.177475,0.94390464,513.19965,137.79997,0.9599909,488.32507,134.50931,0.9202845,508.6616,138.36496,0.99557906,495.20023,138.48787,0.9949708,506.2783,165.25229,0.99036026,497.39407,165.04408,0.98703545,504.4576,192.0637,0.9711911,502.8694,191.23068,0.9640937,1.05883893,0.10341673,1.0179547,0.27242079,140.54492332973877,145.55644685407975,178.81937995107745,172.91276980425087,5.625800228054663,138.426415,107.331755,102.302765,33.33667000000003,94.14731,0.3540905167222463,178.35458487382542,0.9145167623529412,-2.259759999999972,1.0387549999999948,2.487072014965562,-2.6003599999999665,-0.7423300000000097,2.7042422152055536,-2.1525800000000004,1.058025999999998,2.398545324373921,-2.3511100000000056,-0.6517979999999994,2.4397866433161783,-1.922300000000007,1.033155999999991,2.182349332791615,-2.063950000000034,-0.7255030000000176,2.18774866141181,-1.3711900000000128,1.0460060000000055,1.724613164781032,-1.253489999999999,-0.0140480000000025,1.2535687162672808,-1.0992800000000216,0.9631199999999892,1.461511769641294,-0.8319300000000567,-0.18134000000002,0.8514644563926914,-0.4954799999999864,1.0626499999999908,1.1724868668347492,-0.288219999999967,0.8661899999999889,0.9128832808743744,-0.9240800000000036,0.924270000000007,1.3069808259113902,-0.4611899999999878,0.8163800000000094,0.937642000179175,-0.303859999999986,0.5871539999999982,0.6611208053873281,0.6668399999999792,-0.7022359999999992,0.9684064153525476,-0.7538400000000252,0.7180350000000004,1.0410806917934068,-0.5182400000000484,0.1086949999999973,0.529516100439873,-1.298400000000015,-0.5513899999999978,1.4106287577176488,1.113399999999956,-3.5338800000000106,3.7051271792476954,0.1005700000000047,0.2999100000000112,0.3163231464815809,0.3855700000000297,-1.2796099999999626,1.3364377939133296,-0.726949999999988,2.0299599999999884,2.15619894817244,-0.4695600000000013,2.870269999999977,2.908425083528862,-1.0238000000000511,1.8250699999999824,2.0926172475873464,-0.5624100000000567,2.667849999999987,2.726486499251371,-1.0563000000000216,1.3304799999999943,1.6988074406477125,0.0039699999999811,1.6813099999999963,1.681314687082697,-1.4877700000000118,1.112729999999999,1.857855652573696,-0.0023100000000226,1.436349999999976,1.4363518575195742,-0.2996299999999792,1.1856800000000192,1.2229534738901693,0.3923600000000533,0.7093800000000385,0.8106579759677298,-0.3163299999999935,0.7810599999999965,0.8426858207540877,0.6783000000000357,0.1764899999999727,0.7008848764954475,1.927515,2.769059999999996,137.568062,0.7200341907646172,106.0028184,0.9565309897895582,100.294324,1.413010985897715,0.00319339,0.371072,0.100718315860725,0,0
31,1033.3333333333337,491.7708,103.066765,0.74561656,493.3625,100.59223,0.67635316,490.43307,101.026855,0.51256645,498.3057,99.10906,0.56836146,489.646,100.33777,0.27088436,508.343,107.939026,0.9810503,486.17465,109.314186,0.98051447,516.42084,123.7504,0.963003,481.91672,124.05669,0.94318104,512.8796,138.92139,0.9466656,486.51874,136.04962,0.9228826,508.3015,140.59431,0.9950942,494.9611,141.19785,0.9951037,505.83502,166.37633,0.9905346,497.16382,166.69809,0.9890399,504.35437,191.94185,0.97339433,502.89404,191.88388,0.97031015,0.98925457,0.18644489,0.95408689,0.1832515,139.79922956095234,142.8970306972905,177.84996553531718,172.11934779306796,7.716526493092656,140.89607999999998,108.626606,103.066765,34.50412,92.83279,0.3716803042149191,176.45034324367109,0.8485032870588235,-1.3729700000000091,0.76400000000001,1.5712232880466228,0.8867899999999622,-0.2747549999999847,0.928378594176387,-1.868949999999984,0.8308200000000028,2.045296060451871,0.2836300000000165,-0.2272059999999953,0.3634123599108969,-0.917630000000031,1.0143750000000011,1.367845553242419,1.004669999999976,-0.0187809999999899,1.004845527860353,-2.4702399999999898,1.1926699999999926,2.743090845469747,-1.099049999999977,0.146663999999987,1.1087926909012098,-0.451469999999972,1.626160000000013,1.6876674750969212,0.6478100000000495,0.6630400000000236,0.926973482738366,-1.7578599999999938,0.929946000000001,1.9886858330354693,-1.2623800000000074,-0.1327039999999897,1.269335895661986,-1.4603500000000054,1.6597560000000016,2.2107492173550622,-0.5362700000000018,0.7354859999999945,0.910233579415742,-0.8685600000000022,-0.0980339999999984,0.8740750189520369,-0.5647000000000162,-0.6851879999999966,0.8879012813055366,-2.036009999999976,0.8792150000000021,2.217736624652465,-1.282169999999951,0.1611800000000016,1.2922611583189656,-0.3200500000000374,1.1214200000000003,1.166196732502722,0.9783499999999776,1.6728099999999984,1.93790144708134,-1.8063300000000029,1.5403100000000052,2.3738961571644253,-1.9069000000000076,1.240399999999994,2.274831811365406,-0.3601000000000454,2.229350000000011,2.258245653709994,0.3668499999999426,0.1993900000000223,0.4175347825031668,-0.2391299999999887,2.7099800000000016,2.720510017864298,0.7846700000000624,0.8849100000000192,1.1826972211855966,-0.4432800000000156,1.124040000000008,1.208289319658182,0.6130200000000059,-0.2064399999999864,0.6468469633537763,-0.2302500000000122,1.6540099999999995,1.6699593236363586,1.2575199999999995,0.5412800000000004,1.3690655896632562,-0.1032299999999963,-0.1218500000000233,0.1596992654961347,0.1963999999999828,-1.3075300000000425,1.3221980414824794,0.0246400000000335,0.6531999999999982,0.6536645696379753,0.3409700000000271,-0.1278599999999983,0.3641548029341616,2.469664999999992,0.5421499999999924,138.220155,1.659729717510482,106.7408306,1.292654101774053,101.054039,1.712749535941461,-0.08916929,0.324595884,0.1255662268463334,0,0
32,1066.6666666666667,489.95148,107.93025,0.89550567,491.77267,105.26257,0.8863105,488.0765,105.74008,0.71014535,497.09854,102.64247,0.8041267,486.95972,103.981766,0.3266895,507.5369,110.07643,0.9913264,485.36252,111.7318,0.9847274,516.2961,125.86583,0.9708299,482.28375,127.63051,0.8948663,512.3593,140.53906,0.94704413,484.57535,140.51514,0.85821116,507.15607,140.12666,0.99444723,493.89847,140.58475,0.9925569,505.2829,166.56146,0.9881688,495.20914,166.72504,0.98125684,502.8519,193.16527,0.9686859,500.4716,192.79568,0.9560046,0.95460504,0.40752578,0.85165274,0.14100048,135.96194171741132,158.95547306666492,178.83213250734175,171.45836653214246,7.882480446235392,140.355705,110.904115,107.93025,34.012350000000026,90.5228,0.3757324080150815,175.7306535572992,0.8912296047058824,-1.8193200000000047,4.863484999999997,5.192630509445573,-0.4463499999999953,4.099484999999987,4.123712597614544,-1.5898300000000063,4.670339999999996,4.933521576369154,0.2791199999999776,3.839519999999993,3.849652166728825,-2.3565699999999765,4.713225000000008,5.269526740185021,-1.4389399999999457,3.6988500000000073,3.968883929532319,-1.2071599999999876,3.5334100000000035,3.7339284264297294,1.2630800000000022,2.340740000000011,2.659780974817298,-2.6862800000000107,3.643995999999987,4.527119071375964,-2.2348100000000386,2.017835999999974,3.0109861937571334,-0.8061000000000149,2.137404000000004,2.2843583495625284,0.9517599999999788,1.2074580000000026,1.5374660709635075,-0.8121299999999678,2.4176140000000004,2.55037499005459,0.6482200000000375,0.7578579999999988,0.9972652187678296,-0.1247399999999743,2.1154300000000035,2.1191045638429475,0.7438200000000279,2.213464000000002,2.335099799086979,0.3670299999999997,3.5738199999999978,3.59261748775179,2.403039999999976,2.694604999999996,3.6104705160996486,-0.5203000000000202,1.617670000000004,1.6992846491685945,-0.2002499999999827,0.4962500000000034,0.5351300075682511,-1.943389999999965,4.465519999999998,4.870075313842676,-0.1370599999999626,2.9252099999999928,2.92841919603392,-1.1454299999999762,-0.4676500000000203,1.237217203000332,-0.7853299999999308,-2.697000000000031,2.809012675104913,-1.0626300000000128,-0.6130999999999744,1.226814626135504,-0.8235000000000241,-3.323079999999976,3.423596491469151,-0.5521200000000022,0.1851300000000151,0.5823311869546469,-0.1088399999999865,-0.9389099999999928,0.9451974046197882,-1.954679999999996,0.0269499999999993,1.954865776696698,-1.724429999999984,-1.6270600000000002,2.370861250368723,-1.5024700000000166,1.2234200000000044,1.9375687335679368,-1.3992400000000202,1.3452700000000275,1.941036823581699,-2.4224399999999946,0.9117999999999996,2.588357547480636,-2.447080000000028,0.2586000000000013,2.460706095087371,-0.5403749999999832,-3.010039999999975,138.703509,1.8928909509180276,107.87737820000002,1.95251850341646,102.80934299999998,3.1622652739148527,-0.04225102,0.251737446,0.09692999182128,0,0
33,1100.0,489.753,111.136566,0.8879312,491.27805,108.351234,0.8732022,487.4326,108.93462,0.70369345,495.90137,104.82225,0.77825207,485.55548,106.38514,0.33143845,506.27005,111.210396,0.98963624,484.46008,112.8948,0.982287,515.12213,127.58942,0.96301126,481.6705,128.50388,0.8782929,509.96152,144.77827,0.933517,482.12085,141.98499,0.837166,506.36646,140.47574,0.9937634,493.43103,141.06024,0.99177176,504.19293,166.9493,0.9882031,494.77332,167.3323,0.98165727,501.06836,193.67453,0.9702693,498.9956,193.65964,0.95863146,0.73645785,0.38811979,0.62541329,0.0243189,134.8995582020061,167.95403236826158,178.02512351029506,173.8135124729218,8.971998099193755,140.76799,112.052598,111.136566,33.451629999999966,88.85228000000001,0.3764858889779089,175.58376082890192,0.8848661211764707,-0.1984800000000177,3.206316000000001,3.2124533618802955,1.620839999999987,-1.657168999999996,2.318044736445124,-0.4946199999999976,3.0886640000000085,3.1280176229196743,1.095210000000009,-1.5816759999999874,1.923846125103559,-0.6439000000000306,3.1945399999999893,3.258787047599148,1.712669999999946,-1.5186850000000192,2.2890265743596934,-1.1971700000000285,2.179779999999994,2.486897033915968,0.0099899999999593,-1.3536300000000097,1.35366686337519,-1.4042400000000157,2.4033740000000137,2.7835402927703616,1.282039999999995,-1.2406219999999737,1.7840318126322527,-1.2668499999999767,1.133966000000001,1.700231693521781,-0.4607499999999618,-1.0034380000000027,1.104164110240851,-0.9024400000000128,1.1629999999999967,1.4720621432534753,-0.0903100000000449,-1.2546140000000037,1.257860161184866,-1.173970000000054,1.7235900000000015,2.0854179554708288,-1.0492300000000796,-0.3918400000000019,1.1200099010723827,-0.6132499999999936,0.8733700000000084,1.0671694895376305,-0.9802799999999934,-2.7004499999999894,2.8728694855318317,-2.3977799999999547,4.239209999999986,4.87034396654894,-1.8774799999999343,2.6215399999999818,3.2245004453402792,-2.454499999999996,1.469850000000008,2.86094901606093,-0.5111100000000306,-2.99566999999999,3.038959062080299,-0.7896099999999819,0.3490800000000149,0.863331221779904,0.3558199999999942,0.8167300000000353,0.8908735967016048,-0.4674399999999536,0.4754899999999793,0.6667764945616612,0.5951900000000592,1.0885899999999538,1.2406769620654563,-1.089969999999994,0.3878399999999828,1.156915928881599,-0.5378499999999917,0.2027099999999677,0.5747816686359943,-0.4358199999999783,0.6072599999999966,0.7474649021860338,1.518860000000018,0.5803099999999972,1.625944462673941,-1.7835400000000163,0.5092600000000118,1.8548209291465496,-0.2810699999999997,-0.7141599999999926,0.7674795440270634,-1.475999999999999,0.8639599999999916,1.7102639800919572,0.9464399999999956,-0.0478400000000078,0.9476483204227149,0.4122849999999971,0.9526599999999804,139.389018,1.8964882015272937,109.0506738,2.3946976468378285,105.1400712,4.216509312217283,-0.11668158,0.178043814,0.1027766239549899,0,0
34,1133.3333333333333,487.72995,113.159225,0.895939,489.1883,110.56071,0.8988892,485.82895,111.03886,0.69296306,494.11404,107.321014,0.814085,484.43573,108.44134,0.27960038,504.28534,113.83887,0.9898717,483.24652,113.841866,0.97782177,512.42065,131.13977,0.9726399,478.8758,126.15712,0.8520664,508.76624,148.7127,0.9504544,479.00266,132.12875,0.82294923,504.87744,140.85893,0.99181116,492.2497,140.86597,0.9872777,503.95703,166.73013,0.9813347,494.64105,166.67728,0.9657497,501.60394,192.56354,0.9500036,498.5484,191.96414,0.9232443,0.8990914,0.6060073,0.61337666,0.25473432,143.06832246397946,159.24307806052494,176.83298618535548,176.5092633591277,10.067689800195248,140.86245,113.840368,113.159225,33.54485,85.24252599999998,0.3935224726503005,179.99184088488514,0.8792177176470589,-2.023050000000012,2.0226590000000044,2.8607482819676857,-1.8245699999999945,-1.1836569999999966,2.174879210105465,-2.089749999999981,2.209475999999995,3.041190434201038,-1.5951299999999833,-0.8791880000000134,1.8213761984400612,-1.6036499999999592,2.1042400000000043,2.645660465762734,-0.9597499999999286,-1.090299999999985,1.452540585491445,-1.7873299999999972,2.4987640000000084,3.0721930370007726,-0.5901599999999689,0.3189840000000146,0.6708499220063848,-1.1197500000000105,2.05619999999999,2.341324091726727,0.2844900000000052,-0.3471740000000238,0.4488477986756976,-1.9847100000000069,2.628473999999997,3.2936225273664883,-0.7178600000000301,1.4945079999999962,1.657973806085015,-1.2135600000000295,0.9470659999999924,1.5393706122815445,-0.3111200000000167,-0.2159340000000043,0.378712485608822,-2.701479999999947,3.5503499999999946,4.461275525329015,-1.527509999999893,1.826759999999993,2.3812473407228505,-2.794699999999977,-2.3467600000000037,3.649332896242804,-2.181449999999984,-3.220130000000012,3.8894679995341273,-1.1952800000000252,3.93443000000002,4.111986588414439,1.2024999999999295,-0.3047799999999654,1.2405229132909272,-3.118190000000027,-9.856240000000014,10.337725853092664,-0.663690000000031,-11.326090000000022,11.34551889973308,-1.489020000000039,0.3831899999999848,1.5375354098361782,-0.6994100000000572,0.0341099999999698,0.7002412728482076,-1.1813300000000029,-0.1942699999999888,1.1971973111396474,-0.713890000000049,-0.6697599999999682,0.978885789916284,-0.2359000000000151,-0.2191699999999912,0.3220004641301053,0.8540699999999788,-0.6070099999999741,1.0478056618476217,-0.1322700000000054,-0.6550200000000075,0.6682413884967102,0.3035499999999729,-1.262280000000004,1.2982655355896937,0.5355800000000386,-1.1109900000000152,1.2333469570644244,2.319120000000055,-1.620250000000027,2.8290506600095275,-0.4472000000000093,-1.6955000000000098,1.7534845565330883,1.0287999999999895,-2.5594600000000014,2.758489610565896,0.0944599999999979,-0.3178249999999991,140.261728,1.0484245416729128,110.5510884,2.610855185300439,107.5191142,4.7984255850936375,0.23041542,0.175145198,0.0997210048177928,0,0
35,1166.6666666666667,484.88892,117.73893,0.866036,486.4157,115.186104,0.8876077,483.42114,115.56888,0.59666497,492.0715,111.76577,0.83339673,483.03598,112.70105,0.19946024,503.08987,117.373024,0.98786724,482.45358,117.73023,0.962999,511.69675,133.9829,0.9709399,478.64648,132.1914,0.7597683,507.55133,149.54161,0.94536453,479.01566,141.99454,0.7355237,503.77432,142.12257,0.99003357,491.55917,142.04774,0.98138857,501.87122,166.79103,0.98120487,493.45142,166.55292,0.9583228,500.31207,192.69258,0.9543343,499.46436,191.65652,0.9192748,1.29979735,0.27880757,1.23142059,0.30877632,137.68863696451456,163.09406727876433,179.0333063412469,170.9455260985432,11.283700555341582,142.085155,117.551627,117.73893,33.05027000000001,80.92680999999999,0.4083970391468906,179.0083318018544,0.8547168952941175,-2.8410299999999893,4.57970499999999,5.389355188510482,-0.8179799999999773,2.557045999999985,2.6846928179059684,-2.7726000000000117,4.625394,5.392734038985797,-0.6828500000000304,2.415918000000005,2.5105664510671817,-2.4078100000000404,4.530019999999993,5.13016863236484,-0.8041600000000813,2.425779999999989,2.555598151901053,-2.042539999999974,4.444755999999998,4.891607665291226,-0.2552099999999768,1.9459919999999895,1.962655601006949,-1.3997499999999832,4.259709999999998,4.483796309668843,-0.2799999999999727,2.2035100000000085,2.2212285609770155,-1.1954700000000005,3.534154000000001,3.730870276036947,0.7892400000000066,0.9056800000000038,1.2013142969265027,-0.7929399999999873,3.88836400000001,3.968391165207389,0.4206200000000422,2.941298000000017,2.971221147811812,-0.7239000000000146,2.843130000000002,2.933840385382278,1.977579999999932,-0.7072199999999924,2.100233983345599,-0.2293200000000297,6.034279999999981,6.038635837736846,2.565379999999948,8.381039999999985,8.764873417568532,-1.2149099999999748,0.8289099999999792,1.470747461734986,-0.0196299999999496,-3.105520000000041,3.1055820400208805,0.0130000000000336,9.865790000000004,9.865798564946482,3.1311900000000605,19.722030000000014,19.969046500446662,-1.10311999999999,1.2636400000000094,1.6773967282667512,0.3859000000000492,0.8804500000000246,0.9613069293935632,-0.6905300000000238,1.1817700000000002,1.368726420363117,0.4907999999999788,1.376039999999989,1.4609485691152682,-2.085809999999981,0.0609000000000037,2.086698868092836,-1.8499099999999655,0.2800699999999949,1.87099070361129,-1.1896300000000224,-0.1243599999999958,1.196112430543238,-1.057360000000017,0.5306600000000117,1.1830512267860798,-1.2918700000000172,0.1290400000000033,1.2982986630587143,-1.827450000000056,1.2400300000000186,2.2084492077927105,0.915959999999984,-0.3076199999999858,0.9662364027503632,1.3631599999999937,1.387880000000024,1.9453575712449491,1.2227049999999906,1.1282449999999926,140.993476,0.6473045297940814,112.5950628,3.354867195765652,110.6063472,5.515406839274632,0.0540419999999999,0.182416304,0.1094389170532965,0,0
36,1200.0,484.95224,121.270035,0.92071885,486.66455,118.65636,0.93033713,482.9106,119.066925,0.74845105,491.86212,115.233475,0.85925364,481.2992,116.11448,0.29856983,501.25577,120.84535,0.9893371,481.06458,120.79083,0.97282636,509.97855,136.96758,0.9680873,476.51086,133.23041,0.7935761,505.96832,152.32013,0.9410964,476.21622,140.36829,0.7625249,502.95728,144.60817,0.985238,490.97607,144.52837,0.975276,498.86136,167.50365,0.9655955,491.34515,167.27113,0.93139684,500.19876,191.26627,0.9153542,500.0954,190.37549,0.86272454,1.48481842,0.4146495,1.41172434,0.1994641,136.94571333676706,162.25772003051907,166.6359783898762,160.18669969724075,13.73832765625586,144.56826999999998,120.81809,121.270035,33.76232999999996,76.032795,0.4440495651376541,-179.8452910250817,0.8717861023529413,0.0633200000000329,3.5311049999999966,3.5316726835063554,2.904350000000022,-1.048599999999993,3.0878489086255687,0.2488500000000044,3.4702560000000062,3.479167002033108,3.021450000000016,-1.1551379999999938,3.234733976935982,-0.5105399999999918,3.4980450000000047,3.5351053610359373,1.8972700000000489,-1.0319749999999883,2.1597698612410445,-0.2093800000000101,3.467704999999995,3.474020430484681,1.833159999999964,-0.977051000000003,2.0772828989333334,-1.7367800000000102,3.4134300000000053,3.8298706418494177,-0.337030000000027,-0.846279999999993,0.9109220928817164,-1.834100000000035,3.472325999999996,3.926954374610952,-0.6386300000000347,-0.0618280000000055,0.6416159119629476,-1.38900000000001,3.0605999999999938,3.3610405174588407,-0.5960600000000227,-0.8277640000000162,1.0200395890827247,-1.7182000000000244,2.9846799999999973,3.443911430684603,-0.9943000000000096,0.1415499999999951,1.0043250930351275,-2.135620000000017,1.0390100000000189,2.3749556973762926,-1.9062999999999877,-4.995269999999962,5.346653351667712,-1.5830100000000016,2.7785200000000145,3.197826457220605,-0.3681000000000267,1.9496100000000356,1.9840556348298697,-2.799440000000004,-1.6262499999999989,3.237522722097873,-2.812440000000038,-11.492040000000005,11.831179236035616,-0.8170399999999631,2.485600000000005,2.616440658910491,0.2860800000000267,1.2219599999999955,1.2550011984058045,-0.5831000000000017,2.480629999999991,2.5482407278159487,0.1074300000000221,1.2988599999999906,1.3032952483992184,-3.0098600000000038,0.7126199999999869,3.0930703975176512,-0.9240500000000224,0.6517199999999832,1.130755217056291,-2.106269999999995,0.7182099999999991,2.225353661106472,-0.9166399999999726,0.8425699999999949,1.2450514425114896,-0.1133100000000126,-1.4263100000000009,1.4308037504144322,1.1785600000000045,-1.5553500000000042,1.951439800788132,0.6310399999999845,-1.281029999999987,1.4280228788433145,-0.2849199999999996,-0.9734100000000012,1.014251662310692,2.483114999999998,1.2604100000000074,141.727914,1.713817587986483,115.0333596,4.09767025695455,114.2470012,5.2980180354921975,-0.1093122199999999,0.185658824,0.1097096923470534,0,0
37,1233.3333333333337,482.65027,124.726105,0.8581006,484.0825,122.16727,0.86954606,480.461,122.73529,0.6017433,488.48236,119.378296,0.82262135,478.80975,120.69046,0.23045702,498.74188,124.30295,0.9878984,479.15372,125.52304,0.96704715,507.89542,140.31393,0.9653746,476.17606,139.65231,0.7817746,503.1742,154.71404,0.9323789,475.77185,148.67706,0.74367964,503.5751,144.0524,0.99103653,492.016,144.61406,0.98499817,498.58066,167.07512,0.9856344,491.18176,167.5059,0.9703315,501.55807,191.83954,0.96757966,501.65588,191.67242,0.9436043,1.12464008,0.31737391,1.05996007,0.20142926,132.09097941902925,170.66390212816475,160.90445101205128,154.48030401819005,24.49374924895137,144.33323,124.912995,124.726105,32.12357000000003,72.461244,0.4433207019835228,176.43581566299738,0.8590474223529412,-2.30197000000004,3.456070000000011,4.152527630949644,-2.3652900000000727,-0.0750349999999855,2.366479882721453,-2.582050000000038,3.5109099999999955,4.358149977983796,-2.8309000000000424,0.0406539999999893,2.831191897013736,-2.449599999999976,3.668365000000009,4.411059048938808,-1.939059999999984,0.1703200000000038,1.946525773268861,-3.379759999999976,4.144821000000007,5.348113572058928,-3.170379999999966,0.6771160000000123,3.2418814632641646,-2.4894499999999766,4.575980000000001,5.209314183546612,-0.7526699999999664,1.162549999999996,1.3849312731684342,-2.5138900000000035,3.4576,4.274884874718852,-0.6797899999999686,-0.014725999999996,0.6799494828117433,-1.910859999999957,4.732209999999995,5.103449561198757,-0.5218599999999469,1.6716100000000012,1.7511761338311884,-2.083129999999983,3.346350000000001,3.941762159161805,-0.3649299999999584,0.3616700000000037,0.5137889584255119,-0.3347999999999729,6.421899999999994,6.43062132690146,1.8008200000000445,5.382889999999975,5.676130497486812,-2.794120000000021,2.3939100000000053,3.679390120998335,-1.2111100000000192,-0.3846100000000092,1.2707132974042783,-0.444370000000049,8.30877000000001,8.320644422747568,2.355069999999955,9.935020000000009,10.210336777271351,0.6178199999999947,-0.5557699999999954,0.8310125422037795,1.4348599999999578,-3.041370000000001,3.3628491932437115,1.0399300000000269,0.0856899999999996,1.0434544460588857,1.6230300000000284,-2.394939999999991,2.893089003902239,-0.2806999999999675,-0.4285299999999949,0.5122796608298805,2.729160000000036,-1.141149999999982,2.958130765889188,-0.1633899999999926,0.2347699999999974,0.286030147012507,1.9428800000000024,-0.4834400000000016,2.00212310510618,1.3593099999999936,0.5732700000000079,1.4752498666327651,1.4726200000000065,1.9995800000000088,2.4833303930005077,1.560480000000041,1.2969299999999748,2.029070046918061,0.9294400000000564,2.577959999999962,2.7403898400045037,-0.2350399999999695,-2.7181549999999675,142.52341900000002,1.8363861109946864,117.8351356,5.207456121714878,117.6061722,5.607274340307225,0.0019651599999999,0.19774458,0.1068513896164791,0,0
38,1266.6666666666663,480.69186,128.47244,0.9194702,482.0987,125.443085,0.92076224,477.9296,126.50635,0.7489757,486.78375,121.837906,0.829347,476.47507,124.70892,0.30740592,498.52808,126.76062,0.98813546,478.25806,130.89111,0.97694564,508.77963,141.55174,0.9680186,477.71304,147.2096,0.8541629,504.19498,159.08237,0.9512541,475.3715,161.32178,0.8421237,505.90897,145.20113,0.9896869,493.65295,147.03198,0.9849385,499.22885,167.28421,0.98481363,492.05875,168.70549,0.9727907,498.07596,189.64099,0.97122455,498.3714,190.72772,0.9560025,0.959372,0.18374279,0.88137584,0.3313757,130.61874637006346,172.49202578849042,166.12146394164327,159.798274950099,33.369462758292734,146.116555,128.825865,128.47244,33.40812999999997,68.889814,0.4849502063548867,168.4823370899735,0.8921210729411765,-1.958409999999958,3.746335000000002,4.227339075627226,0.3435600000000818,0.2902649999999909,0.4497635421252493,-1.9837999999999736,3.2758149999999944,3.829677056126908,0.5982500000000641,-0.2350950000000011,0.6427851285811436,-2.531400000000019,3.771059999999992,4.541902628150457,-0.0818000000000438,0.1026949999999828,0.1312916715751751,-1.6986100000000306,2.459609999999998,2.989139890369819,1.6811499999999455,-1.6852110000000096,2.3803784230707623,-2.334679999999992,4.018460000000005,4.64744569349659,0.1547699999999849,-0.5575199999999967,0.5786037532716078,-0.213799999999992,2.457670000000008,2.4669520199833705,2.3000900000000115,-0.999929999999992,2.5080418682709498,-0.8956600000000208,5.368070000000003,5.442277313818185,1.0151999999999362,0.6358600000000081,1.197893559378245,0.8842099999999959,1.237809999999996,1.5211840520462945,2.9673399999999788,-2.108540000000005,3.6401988417117943,1.5369799999999714,7.557289999999995,7.711999718912069,1.8717799999999445,1.135390000000001,2.1892169423106047,1.020780000000002,4.368329999999986,4.486011457553344,3.814900000000023,1.9744199999999807,4.295555417684668,-0.4003499999999462,12.644719999999978,12.651056240523928,0.0440200000001027,4.335949999999968,4.336173447049799,2.3338699999999903,1.1487300000000005,2.6012554257127376,1.7160499999999956,1.704499999999996,2.4187078890390983,1.6369499999999562,2.4179200000000094,2.919921647733018,0.5970199999999295,2.33223000000001,2.407432170030957,0.6481899999999996,0.2090900000000033,0.681079220208634,0.9288899999999672,0.6376199999999983,1.1266747074910028,0.876989999999978,1.1995900000000006,1.4859769945056225,1.0403799999999706,0.9648200000000032,1.4188968168263485,-3.4821099999999774,-2.198550000000012,4.118095695172697,-4.841419999999971,-2.7718200000000195,5.578739439048917,-3.2844800000000305,-0.9446999999999832,3.417640554593208,-4.844960000000071,-2.241629999999958,5.33840261300143,1.7833249999999907,2.01836499999996,143.593132,2.097434243500018,121.189789,5.906781939353587,121.07334699999998,5.955660504077936,0.12994644,0.25915594,0.0604005627366883,0,0
39,1300.0,478.76178,132.73096,0.90402853,479.8852,129.8036,0.8631598,475.70633,130.82285,0.77424794,483.85355,126.45163,0.69189304,473.62967,129.12015,0.44316038,493.66922,129.45703,0.9831245,475.2768,134.64258,0.98346794,501.4929,144.95749,0.9377153,478.0323,155.1153,0.91305304,498.4037,161.36398,0.9145676,481.5339,172.84935,0.8877706,506.06772,140.67578,0.98841697,494.6563,143.44325,0.9888615,498.81076,163.79099,0.9855269,491.589,166.12057,0.9833171,499.62772,187.96292,0.975031,497.9601,190.23563,0.97199315,0.79297441,0.24711931,0.61779828,0.43135339,142.55471088854398,176.49616804476466,160.6347155573433,157.49783725984847,57.79000352355783,142.059515,132.049805,132.73096,32.43805000000003,63.78399999999999,0.5085609163965747,164.25475831786846,0.8934903111764705,-1.930080000000032,4.258520000000004,4.675489428583938,0.0283299999999258,0.5121850000000023,0.5129678967781495,-2.2135000000000105,4.360514999999992,4.890160868031335,-0.2297000000000366,1.084699999999998,1.108754337082842,-2.2232700000000136,4.316499999999991,4.855419831785917,0.3081300000000055,0.5454399999999993,0.6264574131575128,-2.930200000000013,4.613723999999991,5.465576016137365,-1.2315899999999829,2.1541139999999928,2.481334530670124,-2.845400000000041,4.411229999999989,5.249309599642617,-0.5107200000000489,0.3927699999999845,0.6442850233398553,-4.858859999999993,2.69641,5.5569008797800175,-4.645060000000001,0.2387399999999928,4.65119115831633,-2.98126000000002,3.751470000000012,4.79180950669997,-2.0855999999999995,-1.6165999999999912,2.638772995162708,-7.286729999999977,3.405750000000012,8.04335546618448,-8.170939999999973,2.167940000000016,8.453651538075107,0.3192600000000425,7.905699999999996,7.912143795306046,-1.2177199999999289,0.3484100000000012,1.2665826173210446,-5.791279999999972,2.2816100000000006,6.224521526229923,-6.812059999999974,-2.086719999999985,7.124504319740398,6.162399999999991,11.527569999999995,13.071344378636033,6.562749999999937,-1.117149999999981,6.657154924214933,0.1587499999999977,-4.525350000000003,4.5281336315307685,-2.1751199999999926,-5.674080000000004,6.07670394710817,1.0033500000000115,-3.588729999999998,3.726351330108315,-0.6335999999999444,-6.006650000000008,6.03997460114693,-0.4180900000000065,-3.493220000000008,3.518150823444052,-1.066280000000006,-3.7023100000000113,3.852797992952667,-0.4697499999999763,-2.584920000000011,2.627256452822989,-1.3467399999999543,-3.784510000000012,4.016991980039289,1.5517600000000016,-1.678069999999991,2.285580456361135,5.033869999999979,0.5204800000000205,5.060706137220359,-0.4112999999999829,-0.4920900000000188,0.6413425434976261,2.873180000000048,0.4526099999999644,2.908611202017252,-4.057040000000001,-5.840364999999991,143.832545,1.746831819176202,124.8316764,5.855969834918792,124.987694,5.8850577695587765,0.09997769,0.294479754,0.0974505820931558,0,0
