frame_id,timestamp_ms,nose_x,nose_y,nose_conf,left_eye_x,left_eye_y,left_eye_conf,right_eye_x,right_eye_y,right_eye_conf,left_ear_x,left_ear_y,left_ear_conf,right_ear_x,right_ear_y,right_ear_conf,left_shoulder_x,left_shoulder_y,left_shoulder_conf,right_shoulder_x,right_shoulder_y,right_shoulder_conf,left_elbow_x,left_elbow_y,left_elbow_conf,right_elbow_x,right_elbow_y,right_elbow_conf,left_wrist_x,left_wrist_y,left_wrist_conf,right_wrist_x,right_wrist_y,right_wrist_conf,left_hip_x,left_hip_y,left_hip_conf,right_hip_x,right_hip_y,right_hip_conf,left_knee_x,left_knee_y,left_knee_conf,right_knee_x,right_knee_y,right_knee_conf,left_ankle_x,left_ankle_y,left_ankle_conf,right_ankle_x,right_ankle_y,right_ankle_conf,acc_x,acc_y,acc_z,acc_mag,left_elbow_angle,right_elbow_angle,left_knee_angle,right_knee_angle,spine_angle,hip_height,shoulder_height,head_height,bbox_width,bbox_height,bbox_aspect_ratio,shoulder_tilt,avg_confidence,nose_vx,nose_vy,nose_speed,nose_ax,nose_ay,nose_accel,left_eye_vx,left_eye_vy,left_eye_speed,left_eye_ax,left_eye_ay,left_eye_accel,right_eye_vx,right_eye_vy,right_eye_speed,right_eye_ax,right_eye_ay,right_eye_accel,left_ear_vx,left_ear_vy,left_ear_speed,left_ear_ax,left_ear_ay,left_ear_accel,right_ear_vx,right_ear_vy,right_ear_speed,right_ear_ax,right_ear_ay,right_ear_accel,left_shoulder_vx,left_shoulder_vy,left_shoulder_speed,left_shoulder_ax,left_shoulder_ay,left_shoulder_accel,right_shoulder_vx,right_shoulder_vy,right_shoulder_speed,right_shoulder_ax,right_shoulder_ay,right_shoulder_accel,left_elbow_vx,left_elbow_vy,left_elbow_speed,left_elbow_ax,left_elbow_ay,left_elbow_accel,right_elbow_vx,right_elbow_vy,right_elbow_speed,right_elbow_ax,right_elbow_ay,right_elbow_accel,left_wrist_vx,left_wrist_vy,left_wrist_speed,left_wrist_ax,left_wrist_ay,left_wrist_accel,right_wrist_vx,right_wrist_vy,right_wrist_speed,right_wrist_ax,right_wrist_ay,right_wrist_accel,left_hip_vx,left_hip_vy,left_hip_speed,left_hip_ax,left_hip_ay,left_hip_accel,right_hip_vx,right_hip_vy,right_hip_speed,right_hip_ax,right_hip_ay,right_hip_accel,left_knee_vx,left_knee_vy,left_knee_speed,left_knee_ax,left_knee_ay,left_knee_accel,right_knee_vx,right_knee_vy,right_knee_speed,right_knee_ax,right_knee_ay,right_knee_accel,left_ankle_vx,left_ankle_vy,left_ankle_speed,left_ankle_ax,left_ankle_ay,left_ankle_accel,right_ankle_vx,right_ankle_vy,right_ankle_speed,right_ankle_ax,right_ankle_ay,right_ankle_accel,hip_velocity,hip_acceleration,hip_height_mean_5,hip_height_std_5,shoulder_height_mean_5,shoulder_height_std_5,head_height_mean_5,head_height_std_5,acc_mag_diff,acc_mag_mean_5,acc_mag_std_5,label_binary,label_3class
0,0.0,490.7306,96.01487,0.9123662,492.41565,93.958305,0.88257295,489.50372,94.11738,0.7932874,496.47763,94.322464,0.7593758,488.25418,94.86569,0.481887,502.73785,105.59018,0.9925402,485.5839,106.66896,0.9919071,508.2347,120.0974,0.96583563,479.96164,122.91626,0.93605745,504.86618,130.92633,0.9381282,473.31686,137.50926,0.8947828,500.12454,136.70207,0.99578816,489.45612,136.91512,0.9954673,501.23813,161.44604,0.9900225,489.27515,161.48758,0.98718446,503.13278,186.58679,0.9777319,491.79477,186.36015,0.973177,0.81803347,-0.3313757,0.73104083,-0.15795002,141.96889865721684,174.60612083577405,178.26706460470157,173.7936417405945,1.1754887026504153,136.808595,106.12957,96.01487,34.91783999999996,92.628485,0.3769665413725962,176.4015139402125,0.909888944117647,0.0,0.0,0.0,0.0,0.0,0.0,0.0,0.0,0.0,0.0,0.0,0.0,0.0,0.0,0.0,0.0,0.0,0.0,0.0,0.0,0.0,0.0,0.0,0.0,0.0,0.0,0.0,0.0,0.0,0.0,0.0,0.0,0.0,0.0,0.0,0.0,0.0,0.0,0.0,0.0,0.0,0.0,0.0,0.0,0.0,0.0,0.0,0.0,0.0,0.0,0.0,0.0,0.0,0.0,0.0,0.0,0.0,0.0,0.0,0.0,0.0,0.0,0.0,0.0,0.0,0.0,0.0,0.0,0.0,0.0,0.0,0.0,0.0,0.0,0.0,0.0,0.0,0.0,0.0,0.0,0.0,0.0,0.0,0.0,0.0,0.0,0.0,0.0,0.0,0.0,0.0,0.0,0.0,0.0,0.0,0.0,0.0,0.0,0.0,0.0,0.0,0.0,0.0,0.0,136.808595,0.0,106.12957,0.0,96.01487,0.0,0.0,-0.15795002,0.0,0,0
1,33.333333333333336,489.21118,96.347725,0.890119,490.88144,94.30539,0.8706164,488.35422,94.42412,0.7228351,495.4395,94.54061,0.778807,487.9848,94.995415,0.38410878,502.31665,105.69805,0.99193394,485.70474,106.51428,0.98846185,507.8416,120.3513,0.9680495,479.93484,122.56596,0.9089932,504.3781,131.40804,0.9399927,473.21408,137.00253,0.8626526,499.47684,136.90176,0.9957247,489.21164,136.91422,0.99465394,500.75607,161.40933,0.99083066,489.15082,161.2923,0.98624796,502.71884,186.64594,0.980229,491.6976,186.08891,0.9732674,0.61061058,-0.14149177,0.57603856,-0.14493081,141.94819401747307,174.80763425412854,178.54076199245333,173.99295095187574,0.6205886789751456,136.90798999999998,106.106165,96.347725,34.627520000000004,92.34055,0.3749979789485987,177.18702106834857,0.8957366899999999,-1.5194199999999682,0.332854999999995,1.555451570260193,-1.5194199999999682,0.332854999999995,1.555451570260193,-1.53421000000003,0.3470850000000069,1.572980712318208,-1.53421000000003,0.3470850000000069,1.572980712318208,-1.149499999999989,0.3067400000000049,1.189722521262827,-1.149499999999989,0.3067400000000049,1.189722521262827,-1.038129999999967,0.2181460000000044,1.0608023257025474,-1.038129999999967,0.2181460000000044,1.0608023257025474,-0.2693800000000124,0.1297249999999934,0.2989885616959367,-0.2693800000000124,0.1297249999999934,0.2989885616959367,-0.4211999999999989,0.1078699999999912,0.4347934876467185,-0.4211999999999989,0.1078699999999912,0.4347934876467185,0.1208399999999869,-0.154679999999999,0.1962860361818857,0.1208399999999869,-0.154679999999999,0.1962860361818857,-0.3930999999999471,0.2539000000000015,0.467966686848497,-0.3930999999999471,0.2539000000000015,0.467966686848497,-0.0267999999999801,-0.35029999999999,0.3513236826631418,-0.0267999999999801,-0.35029999999999,0.3513236826631418,-0.4880799999999681,0.4817099999999925,0.6857598781643336,-0.4880799999999681,0.4817099999999925,0.6857598781643336,-0.1027799999999956,-0.5067300000000046,0.5170483742359159,-0.1027799999999956,-0.5067300000000046,0.5170483742359159,-0.647700000000043,0.1996900000000039,0.6777841736866222,-0.647700000000043,0.1996900000000039,0.6777841736866222,-0.24448000000001,-0.0009000000000014,0.2444816565716228,-0.24448000000001,-0.0009000000000014,0.2444816565716228,-0.4820599999999899,-0.0367099999999993,0.483455755679866,-0.4820599999999899,-0.0367099999999993,0.483455755679866,-0.1243299999999862,-0.1952799999999968,0.2314999509719069,-0.1243299999999862,-0.1952799999999968,0.2314999509719069,-0.413940000000025,0.0591499999999882,0.4181447669169367,-0.413940000000025,0.0591499999999882,0.4181447669169367,-0.0971700000000055,-0.2712400000000059,0.2881200209982019,-0.0971700000000055,-0.2712400000000059,0.2881200209982019,0.099394999999987,0.099394999999987,136.8582925,0.0702828785160176,106.1178675,0.0165498342136688,96.1812975,0.2353640276518447,0.01301921,-0.151440415,0.0092059716766917,0,0
2,66.66666666666667,489.2836,96.42975,0.93272686,491.26617,94.29329,0.91551226,488.02255,94.41076,0.82803994,495.91763,94.490074,0.8104694,486.854,94.93357,0.49318817,502.21164,105.88188,0.9937004,484.5535,106.68633,0.99237615,507.3611,120.865814,0.9687326,479.4147,122.757996,0.92973906,504.7842,132.74942,0.9414587,473.2679,137.09637,0.88639104,499.32187,136.92078,0.9955166,488.41727,136.98192,0.994902,500.3298,161.60298,0.9890698,488.71066,161.4689,0.9851028,502.22263,186.60155,0.97563905,491.85648,186.05833,0.9693244,0.80594086,0.22009831,0.6973874,-0.33874506,148.79904627051522,174.52669434107304,178.00841365372207,173.39598773513663,0.9099058877823368,136.95135,106.284105,96.42975,34.093200000000024,92.30826,0.3693407245533531,177.39158581556427,0.91775819,0.0724199999999655,0.0820250000000015,0.1094200942468761,1.5918399999999338,-0.2508299999999934,1.61148077075086,0.3847299999999904,-0.0121000000000037,0.3849202292683417,1.9189400000000203,-0.3591850000000107,1.9522665258168737,-0.3316699999999741,-0.0133600000000058,0.3319389680347623,0.8178300000000149,-0.3201000000000107,0.8782425171329564,0.4781299999999646,-0.0505359999999939,0.4807932863466019,1.5162599999999316,-0.2686819999999983,1.539881295660088,-1.130800000000022,-0.061844999999991,1.132489931092126,-0.8614200000000096,-0.1915699999999844,0.882464436280585,-0.1050099999999929,0.1838300000000003,0.2117086890044871,0.3161900000000059,0.0759600000000091,0.3251861585307793,-1.1512400000000298,0.1720499999999987,1.1640252317282769,-1.2720800000000168,0.3267299999999977,1.3133697191956426,-0.4805000000000063,0.5145140000000055,0.7039921208337574,-0.0874000000000592,0.2606140000000039,0.2748789133346033,-0.5201400000000262,0.1920360000000016,0.5544577936110449,-0.4933400000000461,0.5423359999999917,0.7331525710901085,0.4060999999999808,1.3413799999999867,1.4015054457261122,0.8941799999999489,0.8596699999999942,1.240399283013296,0.0538199999999733,0.0938400000000001,0.1081782695368952,0.156599999999969,0.6005700000000047,0.6206511781185918,-0.1549699999999916,0.0190200000000118,0.1561328322294765,0.4927300000000514,-0.1806699999999921,0.5248090145948788,-0.7943700000000149,0.067700000000002,0.797249639009027,-0.5498900000000049,0.0686000000000035,0.5541524809111711,-0.426270000000045,0.193649999999991,0.4681948690449681,0.0557899999999449,0.2303599999999903,0.2370195217698099,-0.4401599999999916,0.1765999999999792,0.4742661548118159,-0.3158300000000054,0.371879999999976,0.4878968367390647,-0.4962100000000191,-0.0443899999999928,0.4981915657656383,-0.082269999999994,-0.103539999999981,0.1322455462387868,0.1588799999999537,-0.0305799999999862,0.1617961396325155,0.2560499999999592,0.2406600000000196,0.3513955578831192,0.0433600000000069,-0.05603499999998,136.88931166666666,0.073187482593211,106.17328,0.0966880756608533,96.264115,0.2197141954335186,-0.19381425,-0.2138752966666667,0.1083361357232573,0,0
3,100.0,488.47778,96.580765,0.9263461,490.46844,94.46603,0.90954334,487.3494,94.558304,0.8109293,495.23853,94.78421,0.8076775,486.4588,95.13745,0.47059858,501.5886,106.405,0.9932066,484.14703,106.97445,0.9914035,506.49976,121.80911,0.9670373,479.0753,122.99921,0.9218753,504.5697,134.81947,0.93769264,473.1524,137.59233,0.8753196,498.76923,137.21498,0.99518496,488.06403,137.19585,0.9944101,499.73962,161.52167,0.98861223,488.58185,161.32733,0.9841908,501.81155,186.22964,0.97524434,492.0655,185.56534,0.96837056,1.29247428,-0.0729567,1.19383684,-0.48981701,153.87843502670603,175.47150506402792,177.49276605355774,173.05035551450558,1.0304397103720784,137.20541500000002,106.689725,96.580765,33.34735999999998,91.76361,0.3634050538835049,178.13001375328523,0.9128025147058824,-0.8058199999999829,0.151015000000001,0.8198484022213941,-0.8782399999999484,0.0689899999999994,0.8809455815769266,-0.7977300000000014,0.1727400000000045,0.8162182676833469,-1.182459999999992,0.1848400000000083,1.1968197346300669,-0.673150000000021,0.1475440000000105,0.6891299982122614,-0.3414800000000468,0.1609040000000163,0.3774899834645116,-0.6790999999999485,0.2941359999999946,0.7400626976790055,-1.1572299999999132,0.3446719999999885,1.207468451133938,-0.3951999999999884,0.203879999999998,0.4446910100283005,0.7356000000000336,0.2657249999999891,0.7821234785026233,-0.6230400000000031,0.5231200000000058,0.8135314228719196,-0.5180300000000102,0.3392900000000054,0.6192517945068987,-0.406470000000013,0.2881200000000063,0.4982278548014093,0.7447700000000168,0.1160700000000076,0.7537603052695377,-0.8613400000000411,0.9432960000000036,1.2773855875247997,-0.3808400000000347,0.4287819999999982,0.573492030567143,-0.339399999999955,0.2412139999999993,0.4163851027546125,0.1807400000000711,0.0491779999999977,0.1873110335352018,-0.2144999999999868,2.070050000000009,2.0811336459968235,-0.6205999999999676,0.7286700000000224,0.9571333913828272,-0.1154999999999972,0.4959599999999966,0.5092313537087009,-0.1693199999999706,0.4021199999999965,0.4363138283391751,-0.5526399999999967,0.2941999999999893,0.6260707704405231,-0.3976700000000051,0.2751799999999775,0.4835963826374135,-0.3532399999999711,0.2139300000000048,0.4129703893743251,0.4411300000000437,0.1462300000000027,0.4647352900308297,-0.5901799999999753,-0.0813100000000019,0.5957547721168259,-0.1639099999999302,-0.274959999999993,0.3201085592419754,-0.128810000000044,-0.1415700000000015,0.1914003160917237,0.3113499999999476,-0.3181699999999807,0.4451639825951277,-0.4110799999999699,-0.3719100000000139,0.5543499025885958,0.0851300000000492,-0.3275200000000211,0.3384028181029558,0.2090200000000095,-0.4929900000000202,0.5354703544548699,0.0501400000000558,-0.4624100000000339,0.4651204442937732,0.2540650000000255,0.2107050000000185,136.9683375,0.1689712038829998,106.30239125,0.2700208303500274,96.3432775,0.2392690760245989,-0.15107195,-0.282860725,0.1638915377873404,0,0
4,133.33333333333334,488.23798,96.48981,0.9232184,490.15106,94.38918,0.9008464,487.05225,94.50192,0.81217635,494.60883,94.78664,0.7885052,485.97427,95.15409,0.4917977,500.8019,106.52075,0.9928347,483.4226,107.099236,0.9917436,505.6964,122.16669,0.9642013,478.4505,123.22397,0.92772084,503.76782,135.84024,0.93298376,472.9691,138.1141,0.88106793,498.36404,137.31084,0.99507695,487.69754,137.37225,0.99458003,499.1344,161.50761,0.98822916,488.23685,161.39877,0.9845673,501.42554,186.05043,0.97440696,492.13156,185.53108,0.968617,1.26605543,-0.06362217,1.16313116,-0.49595814,154.60051476768078,176.92744268791097,176.49026344985532,172.11796489999193,1.7232828330452712,137.341545,106.809993,96.48981,32.72729999999996,91.66125,0.3570461851977119,178.09356110537888,0.912504328235294,-0.2398000000000024,-0.0909549999999939,0.256469982697781,0.5660199999999804,-0.2419699999999949,0.6155713779083424,-0.3173800000000142,-0.0768500000000074,0.3265516603847087,0.4803499999999872,-0.2495900000000119,0.5413236468139866,-0.2971499999999878,-0.0563840000000084,0.3024521085328943,0.3760000000000332,-0.2039280000000189,0.4277413110561484,-0.6297000000000139,0.0024300000000039,0.6297046886438258,0.0493999999999346,-0.2917059999999907,0.2958593423165611,-0.4845300000000065,0.0166399999999953,0.4848156458902767,-0.0893300000000181,-0.1872400000000027,0.2074576257938094,-0.7866999999999962,0.1157500000000055,0.7951697633210127,-0.163659999999993,-0.4073700000000002,0.4390158453860155,-0.7244299999999839,0.1247860000000002,0.735098884978053,-0.3179599999999709,-0.163334000000006,0.3574584691345044,-0.8033599999999979,0.3575799999999987,0.87934677232591,0.0579800000000432,-0.585716000000005,0.5885787229046008,-0.6248000000000502,0.2247599999999892,0.6639970614393244,-0.2854000000000951,-0.0164540000000101,0.2858739129687328,-0.8018800000000397,1.0207699999999988,1.298068922399755,-0.5873800000000529,-1.0492800000000102,1.2024989741368113,-0.1832999999999742,0.5217700000000036,0.5530305804383645,-0.0677999999999769,0.0258100000000069,0.072546509909142,-0.4051900000000046,0.095860000000016,0.4163749220354257,0.1474499999999921,-0.1983399999999733,0.2471442050706168,-0.3664899999999988,0.176400000000001,0.406733180475849,-0.0132500000000277,-0.0375300000000038,0.0398002939687764,-0.6052199999999743,-0.0140600000000006,0.6053832934595809,-0.015039999999999,0.0672500000000013,0.068911277016176,-0.3449999999999704,0.0714400000000239,0.352318994094816,-0.2161899999999263,0.2130100000000254,0.3034985604578364,-0.3860099999999988,-0.1792099999999834,0.4255818889473484,0.025069999999971,0.1927000000000305,0.1943239431979762,0.0660599999999931,-0.034259999999989,0.074415530637081,-0.1429600000000164,0.4587300000000311,0.4804901398572433,0.1361299999999801,-0.1179350000000454,137.042979,0.2219689582295296,106.4039116,0.3259069559518522,96.372584,0.2173283754310496,-0.0061411299999999,-0.325480208,0.1709603134492355,0,0
5,166.66666666666666,487.1832,96.21093,0.8862202,488.89145,94.21014,0.8601776,486.36588,94.28288,0.72663033,493.31512,94.785965,0.7599703,486.0832,95.039215,0.40932396,499.9207,106.50392,0.99115294,483.527,106.93804,0.98849875,505.2045,122.003815,0.96243376,478.33594,123.07474,0.91122186,503.2165,135.32588,0.9293422,472.73032,138.10454,0.8608068,497.63025,137.30634,0.99508446,487.62814,137.28452,0.9942286,498.64713,161.22353,0.98930407,488.1922,161.08139,0.98510265,501.20535,185.83028,0.9773852,491.99612,185.21552,0.97098416,1.14730821,-0.03389907,1.03809763,-0.48736055,152.68873829117055,177.37874662535006,176.49917528461222,172.40080127537175,1.6961622720870964,137.29543,106.72098,96.21093,32.47417999999999,91.62014,0.3544436806749729,178.48311044952905,0.8939922258823529,-1.0547799999999938,-0.2788800000000009,1.0910247031117066,-0.8149799999999914,-0.187925000000007,0.8363660717801676,-1.2596099999999524,-0.1790400000000005,1.2722706762713194,-0.9422299999999382,-0.1021899999999931,0.947755331823505,-0.6863700000000108,-0.2190399999999925,0.7204736625998285,-0.389220000000023,-0.1626559999999841,0.4218402336620023,-1.2937100000000328,-0.000675000000001,1.2937101760924217,-0.6640100000000189,-0.003105000000005,0.6640172596589828,0.1089299999999866,-0.1148749999999978,0.1583098560576586,0.5934599999999932,-0.1315149999999931,0.6078576863255002,-0.8811999999999784,-0.016830000000013,0.8813607030608764,-0.0944999999999822,-0.1325800000000185,0.1628118742598388,0.1043999999999982,-0.1611960000000039,0.192050801654148,0.8288299999999822,-0.2859820000000042,0.8767809722068407,-0.4918999999999869,-0.1628749999999996,0.5181639466664841,0.3114600000000109,-0.5204549999999983,0.6065317292813338,-0.1145599999999831,-0.1492299999999886,0.1881318327662619,0.5102400000000671,-0.3739899999999778,0.6326241994265253,-0.5513199999999756,-0.5143599999999822,0.7540026206850708,0.250560000000064,-1.535129999999981,1.5554434835441544,-0.2387800000000197,-0.0095600000000217,0.2389712995319937,-0.0554800000000454,-0.5313300000000254,0.5342186811597214,-0.733789999999999,-0.0045000000000072,0.7338037980959207,-0.3285999999999944,-0.1003600000000233,0.3435841812423864,-0.0694000000000301,-0.0877300000000218,0.1118611322131508,0.2970899999999687,-0.2641300000000228,0.3975262569944198,-0.4872700000000236,-0.2840799999999888,0.5640332430805978,0.1179499999999507,-0.2700199999999881,0.2946574331320728,-0.04464999999999,-0.3173800000000142,0.3205053617336348,0.3003499999999803,-0.3888200000000381,0.4913156977952341,-0.2201900000000023,-0.220150000000018,0.3113674013123547,0.1658199999999965,-0.0409400000000346,0.1707991686162485,-0.13543999999996,-0.3155600000000049,0.3433978846760596,-0.2014999999999531,-0.2813000000000158,0.3460230339153595,-0.0461149999999861,-0.1822449999999662,137.140346,0.1990445039243825,106.5221936,0.3082925862387892,96.411796,0.1409000499201417,0.0085975899999999,-0.391362314,0.1527631638177124,0,0
6,200.0,486.30145,96.36723,0.8741531,487.9433,94.3593,0.8493409,485.556,94.44834,0.698162,492.34122,94.91468,0.75753284,485.55106,95.1833,0.38521802,499.13898,106.63562,0.9906984,483.19427,106.970955,0.9871207,504.74316,122.37988,0.9617863,478.07803,122.93004,0.9020141,503.15518,136.7478,0.9269581,472.3859,137.97806,0.84868366,497.1172,137.23415,0.9950264,487.43692,137.18724,0.99397403,498.15817,160.98984,0.9895989,488.02777,160.85066,0.9850751,500.89508,185.5831,0.97836477,491.96625,184.95406,0.97159845,1.02526815,-0.02112551,0.93787429,-0.41366692,154.09989610357056,177.05521111011114,176.15893795289946,172.15023311346147,2.091482039133545,137.210695,106.8032875,96.36723,32.35726,91.2238,0.3547019488916056,178.79518359084892,0.8879591629411765,-0.8817500000000109,0.1563000000000016,0.8954958137814044,0.1730299999999829,0.4351800000000025,0.4683172143963921,-0.9481499999999984,0.149160000000009,0.9598109856112294,0.3114599999999541,0.3282000000000096,0.4524627847679604,-0.809880000000021,0.1654599999999959,0.8266091131847221,-0.1235100000000102,0.3844999999999885,0.4038501827410676,-0.9738999999999578,0.1287149999999997,0.9823689537159233,0.319810000000075,0.1293900000000007,0.3449930552924916,-0.5321399999999699,0.144085000000004,0.5513016114841032,-0.6410699999999565,0.2589600000000018,0.6913978785763992,-0.7817200000000071,0.1317000000000092,0.7927364305997381,0.0994799999999713,0.1485300000000222,0.1787664154700231,-0.3327299999999695,0.0329150000000026,0.3343540789716493,-0.4371299999999678,0.1941110000000065,0.4782904109649015,-0.4613400000000069,0.376064999999997,0.5951970092540824,0.0305599999999799,0.5389399999999966,0.5398057402436502,-0.2579099999999812,-0.1447000000000002,0.2957290281659722,-0.1433499999999981,0.0045299999999883,0.1434215583515928,-0.0613200000000233,1.42192,1.4232415918599357,0.4899999999999522,1.9362799999999825,1.9973182616698533,-0.3444200000000137,-0.1264799999999866,0.3669091533336366,-0.1056399999999939,-0.1169199999999648,0.1575756834032158,-0.5130499999999643,-0.0721900000000062,0.5181039457483065,0.2207400000000348,-0.0676899999999989,0.2308854341443288,-0.191219999999987,-0.0972799999999836,0.2145425058117665,-0.1218199999999569,-0.0095499999999617,0.1221937596605848,-0.48896000000002,-0.2336900000000241,0.5419344035028879,-0.0016899999999964,0.0503899999999646,0.0504183319834802,-0.1644300000000385,-0.2307299999999941,0.2833258862158732,-0.1197800000000484,0.0866500000000201,0.1478359594280602,-0.3102700000000027,-0.2471799999999859,0.3966931122416858,-0.0900800000000003,-0.0270299999999679,0.0940480052951594,-0.0298700000000167,-0.2614599999999996,0.2631606895035822,0.1055699999999433,0.0541000000000053,0.1186247651208996,-0.0847350000000233,-0.0386200000000371,137.200887,0.1509208947015041,106.66161809999998,0.2173219406302551,96.415697,0.1389390537070055,0.07369363,-0.445109536,0.0683218976608446,0,0
7,233.3333333333333,486.84152,96.53417,0.8960061,488.5239,94.4973,0.86762816,485.84616,94.61184,0.7532343,492.69595,94.92792,0.75908333,485.18024,95.257225,0.4418896,499.24637,106.54728,0.99165416,482.637,106.99553,0.98979634,504.6898,122.34973,0.96237487,477.8863,122.983215,0.9193923,502.9572,137.03592,0.928953,472.4046,138.12434,0.86990166,497.24896,137.11794,0.995259,487.11096,137.16185,0.9946319,498.11453,160.98224,0.98953956,487.70215,160.90536,0.9859736,500.68127,185.54779,0.9777265,491.66577,185.06119,0.9721835,0.94245192,0.01793212,0.88088455,-0.33456909,154.26447922200975,176.6468735374816,176.1123088704659,172.1079470379054,2.3349878507444384,137.139895,106.771405,96.53417,32.285199999999975,91.05049,0.3545856770832787,178.45408943203282,0.8997192870588234,0.5400700000000143,0.1669399999999967,0.5652827332406452,1.4218200000000252,0.010639999999995,1.4218598109518643,0.580600000000004,0.137999999999991,0.5967749659628847,1.5287500000000025,-0.011160000000018,1.5287907339135751,0.2901600000000144,0.1634999999999991,0.3330541631627025,1.1000400000000354,-0.0019599999999968,1.1000417461169725,0.3547299999999609,0.0132399999999961,0.3549769999591131,1.3286299999999187,-0.1154750000000035,1.3336386888977032,-0.3708199999999806,0.0739250000000026,0.3781168840781723,0.1613199999999892,-0.0701600000000013,0.1759163664927079,0.1073900000000094,-0.0883400000000023,0.1390559876452734,0.8891100000000165,-0.2200400000000115,0.9159335094317896,-0.5572700000000168,0.0245749999999986,0.5578116021785658,-0.2245400000000472,-0.008340000000004,0.2246948312712628,-0.0533599999999978,-0.0301500000000061,0.0612887599809307,0.4079800000000091,-0.4062150000000031,0.5757241584517797,-0.1917300000000068,0.0531749999999959,0.198967267471316,0.0661799999999743,0.1978749999999962,0.2086487671303023,-0.1979799999999727,0.2881199999999921,0.3495843457593384,-0.1366599999999493,-1.133800000000008,1.1420063027847107,0.0187000000000239,0.1462799999999902,0.1474704322906732,0.3631200000000376,0.2727599999999768,0.4541521242931873,0.1317599999999856,-0.1162099999999952,0.1756856900831571,0.6448099999999499,-0.044019999999989,0.6463108358212281,-0.3259600000000091,-0.0253900000000157,0.3269473561599891,-0.134740000000022,0.0718899999999678,0.1527188256240903,-0.0436399999999821,-0.0075999999999964,0.0442968351013747,0.4453200000000379,0.2260900000000276,0.4994262613239779,-0.325619999999958,0.0546999999999968,0.3301824865130983,-0.1611899999999195,0.2854299999999909,0.3277994829159572,-0.2138100000000236,-0.0353100000000097,0.2167060502155184,0.0964599999999791,0.2118699999999762,0.2327948206038654,-0.3004799999999932,0.1071300000000121,0.3190063750146672,-0.2706099999999765,0.3685900000000117,0.4572618070646136,-0.0707999999999913,0.013935000000032,137.238596,0.0797651742930573,106.7590781,0.0523451723112608,96.436581,0.1490586295891595,0.0790978299999999,-0.444274342,0.0699532477837017,0,0
8,266.6666666666667,487.07196,96.58402,0.8946274,488.68347,94.54049,0.859156,485.96658,94.684,0.7607611,492.60858,94.92926,0.7373383,485.04327,95.2922,0.46593043,499.06387,106.462944,0.99135417,482.33917,106.85607,0.99049723,504.4613,122.442795,0.9603112,477.61066,122.68216,0.9285458,503.23758,137.84814,0.9262065,472.3716,137.75296,0.8810911,497.22345,136.87848,0.99528474,487.0422,136.94025,0.9949753,497.84537,160.71695,0.98940116,487.59326,160.6607,0.98668426,500.06656,185.24136,0.9772017,491.40533,184.83615,0.97287434,0.97505243,-0.03070568,0.92829412,-0.29673969,156.795104812546,177.4660805811739,176.3192526843253,172.3700041952446,2.7090318027138056,136.90936499999998,106.659507,96.58402,32.08969999999999,90.70086999999998,0.3537970434705086,178.65346980230078,0.9007200429411766,0.2304399999999873,0.0498499999999921,0.2357702612714194,-0.3096300000000269,-0.1170900000000045,0.331029915566581,0.1595699999999738,0.0431900000000098,0.1653117085992171,-0.4210300000000302,-0.0948099999999811,0.431572933581361,0.1204200000000241,0.0721599999999966,0.1403853339918573,-0.1697399999999902,-0.0913400000000024,0.1927554492096063,-0.0873699999999644,0.001339999999999,0.0873802752341384,-0.4420999999999253,-0.0118999999999971,0.4422601270744785,-0.1369700000000193,0.0349749999999886,0.1413648878788665,0.2338499999999612,-0.038950000000014,0.2370715609261958,-0.1825000000000045,-0.0843360000000075,0.2010443008294513,-0.2898900000000139,0.0040039999999947,0.289917650576863,-0.2978299999999763,-0.1394599999999997,0.3288644105098418,0.2594400000000405,-0.1640349999999983,0.3069472183047445,-0.2284999999999968,0.0930650000000099,0.2467252403484499,-0.1751399999999989,0.123215000000016,0.2141400378840995,-0.2756400000000099,-0.3010550000000052,0.4081807474943038,-0.083910000000003,-0.3542300000000011,0.3640326647431536,0.2803799999999796,0.8122199999999964,0.8592521590313188,0.4783599999999524,0.5241000000000042,0.709583750941324,-0.0330000000000154,-0.3713799999999878,0.3728432705574716,-0.0517000000000393,-0.517659999999978,0.5202352983025866,-0.025509999999997,-0.2394600000000082,0.2408149739945666,-0.1572699999999827,-0.1232500000000129,0.1998109491494341,-0.0687599999999974,-0.2215999999999951,0.2320226230349047,0.2572000000000116,-0.1962099999999793,0.3234968378516208,-0.2691599999999994,-0.2652899999999931,0.3779231267070011,-0.2255200000000172,-0.2576899999999966,0.3424374490326752,-0.1088900000000308,-0.2446600000000103,0.2677975871810867,0.2167299999999272,-0.2993600000000072,0.3695785471316926,-0.6147100000000023,-0.306430000000006,0.6868534989355493,-0.4008999999999787,-0.2711199999999962,0.4839699003037078,-0.2604400000000169,-0.225040000000007,0.3441976106831829,0.0400399999999763,-0.3321700000000191,0.3345745215942344,-0.2305300000000159,-0.1597300000000245,137.179386,0.1697151173437561,106.7530345,0.0630118921870819,96.437232,0.1498507708355138,0.0378294,-0.405658878,0.089177345966448,0,0
9,300.0,486.50684,96.44595,0.8924413,488.15414,94.43729,0.8617046,485.49814,94.5456,0.74951583,492.21338,94.9395,0.7503715,484.82013,95.20875,0.44532308,498.66595,106.56265,0.9913175,482.21136,106.77608,0.98955756,504.1408,122.456406,0.9608156,477.31952,122.28795,0.91942245,503.2102,137.86717,0.92613196,472.3628,137.03581,0.8693597,496.7494,136.80823,0.9950805,486.76053,136.78288,0.9944976,497.4709,160.47043,0.989129,487.46884,160.34297,0.98566854,499.69382,184.87308,0.97684413,491.2485,184.33582,0.9714462,1.01588619,-0.05551587,0.937383,-0.3876285,157.53725133425556,178.92586197826083,176.54159977458153,172.76962901228674,2.5018888358897766,136.795555,106.669365,96.44595,31.77800000000002,90.43578999999998,0.3513874280150878,179.25686677718733,0.8981545323529412,-0.565119999999979,-0.138069999999999,0.5817421587782478,-0.7955599999999663,-0.1879199999999912,0.8174531423879555,-0.5293300000000158,-0.103200000000001,0.5392962904563844,-0.6888999999999896,-0.1463900000000109,0.7042820756628617,-0.4684400000000437,-0.1384000000000043,0.4884573610869654,-0.5888600000000679,-0.2105600000000009,0.625373179149922,-0.3952000000000453,0.010239999999996,0.3953326417082654,-0.3078300000000809,0.008899999999997,0.307958631799873,-0.2231400000000007,-0.0834499999999991,0.2382338391161092,-0.0861699999999814,-0.1184249999999877,0.1464573300487002,-0.3979199999999991,0.0997060000000118,0.4102214192798832,-0.2154199999999946,0.1840420000000193,0.2833323740132864,-0.1278100000000108,-0.0799900000000093,0.1507773066479311,0.1700199999999654,0.0594699999999903,0.1801207408933993,-0.3204999999999813,0.0136109999999973,0.3207888859062732,-0.0919999999999845,-0.0794540000000125,0.1215604298939385,-0.2911399999999844,-0.394210000000001,0.4900653259515426,-0.0154999999999745,-0.0931549999999958,0.0944357137157253,-0.0273799999999937,0.0190299999999865,0.0333437445407552,-0.3077599999999734,-0.7931900000000098,0.8508034988762089,-0.0088000000000079,-0.7171500000000037,0.7172039894618584,0.0242000000000075,-0.3457700000000159,0.3466158289807483,-0.4740500000000338,-0.0702499999999872,0.4792269451940597,-0.4485400000000368,0.1692100000000209,0.4793956150196204,-0.2816699999999628,-0.157369999999986,0.3226504390202726,-0.2129099999999653,0.0642300000000091,0.2223874119638663,-0.3744700000000307,-0.2465200000000038,0.4483301142016058,-0.1053100000000313,0.0187699999999892,0.1069696639239658,-0.1244199999999864,-0.3177299999999832,0.3412223458391697,-0.0155299999999556,-0.0730699999999728,0.0747021137585454,-0.3727399999999647,-0.3682799999999986,0.5239897575334586,0.2419700000000375,-0.0618499999999926,0.2497496814813129,-0.1568300000000135,-0.5003299999999911,0.5243336321465516,0.1036100000000033,-0.275289999999984,0.2941421700470571,-0.1138099999999724,0.1167200000000434,137.070188,0.2101324365013739,106.7249089,0.0626160160406014,96.42846,0.1472649242012423,-0.0908888099999999,-0.38399295,0.0735433065734921,0,0
10,333.3333333333333,486.35385,96.63005,0.91028166,488.1181,94.593185,0.882737,485.20743,94.6984,0.7881131,492.2381,94.958885,0.76757455,484.1838,95.23193,0.47980887,498.6193,106.40451,0.99223584,481.53882,106.69028,0.9909807,504.097,122.22342,0.96264035,476.9905,122.19353,0.92647666,503.12558,137.36923,0.92970896,472.67575,136.66292,0.8789036,496.7097,136.59859,0.995135,486.31686,136.61621,0.994665,497.36163,160.57315,0.98869085,487.34558,160.45547,0.9853741,499.3935,185.14575,0.9753043,491.3885,184.62155,0.9699873,1.0650771,-0.03119697,0.95064785,-0.47925425,157.230483728083,179.74600039910703,176.83068914627114,172.97343873215664,2.731658977329613,136.60739999999998,106.547395,96.63005,31.421249999999983,90.552565,0.3469945843390014,179.04148551902264,0.90697752,-0.1529899999999884,0.1841000000000008,0.239371573291393,0.4121299999999905,0.3221699999999998,0.5231105483547355,-0.0360399999999572,0.155895000000001,0.1600066643143254,0.4932900000000586,0.2590950000000021,0.5571940803033166,-0.29070999999999,0.1528000000000133,0.328420681596026,0.1777300000000536,0.2912000000000176,0.3411530344288753,0.024720000000002,0.0193849999999997,0.0314142742236724,0.4199200000000473,0.0091450000000037,0.4200195679073057,-0.6363299999999867,0.0231800000000106,0.6367520563767216,-0.4131899999999859,0.1066300000000097,0.4267270005518639,-0.0466499999999996,-0.158140000000003,0.164877172768097,0.3512699999999995,-0.2578460000000149,0.4357466839988657,-0.6725400000000263,-0.0857999999999918,0.6779909229481129,-0.5447300000000155,-0.0058099999999825,0.5447609833679506,-0.0438000000000329,-0.2329859999999968,0.2370673241845054,0.2766999999999484,-0.2465969999999941,0.3706385981100303,-0.3290200000000141,-0.0944199999999995,0.3423000099328207,-0.0378800000000296,0.2997900000000015,0.3021736892914457,-0.0846199999999726,-0.4979399999999998,0.5050789918418654,-0.0572399999999788,-0.5169699999999864,0.5201292132729939,0.3129500000000007,-0.3728899999999839,0.4868106968832839,0.3217500000000086,0.3442600000000198,0.4712090938214363,-0.039699999999982,-0.2096400000000073,0.2133659288640097,0.4343500000000517,-0.1393900000000201,0.4561682744339533,-0.4436699999999973,-0.1666700000000105,0.4739429900315028,-0.1620000000000345,-0.0093000000000245,0.1622667248699241,-0.1092699999999808,0.102720000000005,0.149971101549588,0.2652000000000498,0.3492400000000089,0.4385198029736316,-0.1232600000000161,0.1124999999999829,0.1668810282806291,0.0011599999999702,0.4302299999999661,0.4302315638118277,-0.3003199999999992,0.2726700000000051,0.4056365753972419,0.0724199999999655,0.6409500000000037,0.6450283396099739,0.1400000000000432,0.2857300000000009,0.3181849036331117,0.2968300000000567,0.786059999999992,0.8402370930279269,-0.1881550000000231,-0.0743450000000507,136.932582,0.2476813889253818,106.6901919,0.1014303453757676,96.512284,0.1059890842492527,-0.09162575,-0.38237169,0.0707304458755962,0,0
11,366.6666666666666,486.13248,96.46663,0.89117235,487.805,94.46525,0.86060274,485.09433,94.55734,0.7478646,491.83466,94.939674,0.7500613,484.263,95.17488,0.4430969,498.31863,106.398926,0.9912567,481.48715,106.7305,0.9892162,503.96033,121.95921,0.9607468,476.74188,122.401825,0.9166515,502.76398,136.46136,0.92633957,472.6647,137.06348,0.86631763,496.46158,136.71503,0.9950464,486.2496,136.75026,0.99437827,497.17178,160.55276,0.98910195,487.36932,160.46631,0.9854498,499.09088,185.14346,0.9766981,491.40295,184.6416,0.9710025,1.0795038,-0.01866905,0.94376978,-0.52371608,155.3549309321276,178.694130014893,177.244097199458,173.23062888386642,2.7569182761147326,136.732645,106.564713,96.46663,31.295630000000017,90.67821,0.3451284454652509,178.8714400728845,0.8973531358823529,-0.2213700000000358,-0.1634200000000021,0.2751559072598961,-0.0683800000000474,-0.3475200000000029,0.3541835326493999,-0.3131000000000199,-0.1279350000000079,0.3382291741186949,-0.2770600000000627,-0.2838300000000089,0.3966380119202392,-0.1130999999999744,-0.1410600000000101,0.1808024712220413,0.1776100000000156,-0.2938600000000235,0.3433642551286015,-0.4034399999999891,-0.0192109999999985,0.4038971355691832,-0.4281599999999912,-0.0385959999999983,0.4298960767627361,0.0791999999999575,-0.0570500000000038,0.097608106732964,0.7155299999999443,-0.0802300000000144,0.7200139122266476,-0.3006700000000251,-0.0055839999999989,0.3007218481521006,-0.2540200000000254,0.1525560000000041,0.296309793182767,-0.0516700000000014,0.040220000000005,0.0654785254873729,0.6208700000000249,0.1260199999999969,0.6335302654964718,-0.1366699999999809,-0.2642100000000056,0.2974653139443282,-0.092869999999948,-0.0312240000000088,0.0979784418940763,-0.2486200000000167,0.2082950000000067,0.3243435083750114,0.0803999999999973,0.3027150000000063,0.3132100433016211,-0.3616000000000099,-0.9078699999999742,0.9772320588785248,-0.2769800000000373,-0.4099299999999743,0.4947327817115009,-0.0110500000000115,0.4005599999999845,0.4007123857581492,-0.3240000000000123,0.7734499999999684,0.8385707498475958,-0.2481199999999717,0.1164400000000114,0.2740835784938394,-0.2084199999999896,0.3260800000000188,0.3869974971495396,-0.0672600000000329,0.134050000000002,0.1499776986755196,0.3764099999999644,0.3007200000000125,0.4817852286029333,-0.1898499999999785,-0.0203899999999919,0.1909418094603471,-0.0805799999999976,-0.1231099999999969,0.1471367000445465,0.023740000000032,0.0108400000000017,0.0260977623562166,0.1470000000000482,-0.1016599999999812,0.1787281611834306,-0.3026199999999903,-0.0022899999999879,0.3026286643726831,-0.002299999999991,-0.274959999999993,0.2749696194127564,0.0144499999999538,0.0200499999999976,0.0247144694460264,-0.1255500000000893,-0.2656800000000032,0.2938514333809249,0.1252450000000067,0.3134000000000299,136.836972,0.201436022337141,106.642477,0.0904478317152843,96.532164,0.0774633731514156,-0.04446183,-0.404381522,0.0956397740684029,0,0
12,400.0,486.00742,96.40007,0.8745168,487.61426,94.395966,0.8389916,485.01837,94.492096,0.71907544,491.58948,94.8954,0.7277321,484.3162,95.12441,0.42582363,498.1713,106.39714,0.9900636,481.40552,106.76826,0.9876809,503.92227,121.978516,0.9567046,476.5215,122.770996,0.90963614,502.8866,136.72203,0.9190905,472.94107,138.14609,0.8557763,496.36548,137.07985,0.9946526,486.2324,137.13663,0.9939162,497.1704,160.9122,0.98838985,487.5412,160.84659,0.98457897,498.69547,185.43343,0.9754515,491.4757,184.95085,0.9696036,1.11381453,-0.03905762,0.97422981,-0.5384548,155.7230833496089,176.13681282712037,178.3755219555219,173.88900165999286,2.8329592830981603,137.10824,106.5827,96.40007,30.9812,91.037464,0.3403126394171895,178.73193267618046,0.8889226076470588,-0.1250599999999622,-0.0665599999999955,0.1416694645997857,0.0963100000000736,0.0968600000000066,0.1365923705776258,-0.1907400000000052,-0.0692839999999961,0.2029335365483031,0.1223600000000146,0.0586510000000117,0.135690491195975,-0.0759600000000091,-0.0652439999999927,0.1001334166799497,0.0371399999999653,0.0758160000000174,0.0844241994691099,-0.2451800000000048,-0.0442740000000014,0.2491453781951463,0.1582599999999843,-0.0250630000000029,0.1602322738058571,0.0532000000000039,-0.0504700000000042,0.0733311727712085,-0.0259999999999536,0.0065799999999995,0.0268197017134341,-0.1473300000000108,-0.0017860000000098,0.1473408249467988,0.1533400000000142,0.003797999999989,0.1533870281477683,-0.0816299999999614,0.0377599999999915,0.0899403941507544,-0.02995999999996,-0.0024600000000134,0.0300608250052734,-0.0380599999999731,0.0193060000000002,0.042676518555266,0.0986100000000078,0.2835160000000059,0.3001753726673873,-0.2203799999999773,0.3691709999999943,0.4299471730817472,0.0282400000000393,0.1608759999999875,0.1633358043296026,0.1226199999999835,0.2606699999999762,0.288070327003639,0.4842199999999934,1.1685399999999504,1.2648931733549191,0.2763700000000426,1.0826099999999883,1.1173293109016689,0.2874200000000542,0.6820500000000038,0.7401367839122958,-0.0961000000000353,0.3648199999999804,0.3772649498694418,0.1520199999999363,0.2483799999999689,0.2912090396947959,-0.0172000000000025,0.3863699999999994,0.3867526559701945,0.0500600000000304,0.2523199999999974,0.2572379948607937,-0.0013800000000401,0.3594400000000064,0.3594426491110991,0.1884699999999384,0.3798299999999983,0.4240185960544366,0.1718799999999873,0.380279999999999,0.4173195571741096,0.1481399999999553,0.3694399999999973,0.3980343869566859,-0.3954100000000267,0.2899699999999825,0.4903383209581023,-0.0927900000000363,0.2922599999999704,0.3066364161347922,0.0727500000000418,0.3092499999999916,0.317691871158204,0.0583000000000879,0.2891999999999939,0.2950178469177869,0.3755950000000041,0.2503499999999974,136.830641,0.1896901819217543,106.604736,0.0560182697608203,96.505344,0.0972760704387056,-0.0147387199999999,-0.445158664,0.1017052815724071,0,0
13,433.33333333333337,485.6184,96.35258,0.8712342,487.26505,94.341835,0.8417749,484.70874,94.42627,0.70376366,491.41348,94.844986,0.74116933,484.19016,95.0457,0.399956,498.10294,106.45655,0.98989886,481.348,106.75995,0.9860503,503.8158,122.2529,0.9572968,476.56998,122.82791,0.89562345,502.964,137.49994,0.91870964,473.63718,138.21309,0.83823633,496.28638,137.52649,0.9942141,486.17282,137.5513,0.9930206,497.1862,161.53157,0.98727185,487.76816,161.44313,0.98211145,498.57004,186.06012,0.9729892,491.7798,185.50104,0.96518385,1.10842817,-0.13092902,0.93394396,-0.58242534,156.91952720785363,174.23198274296553,178.91763439945265,174.35323562870823,2.78408811328932,137.538895,106.60825,96.35258,30.178620000000024,91.718285,0.3290360223260171,178.9625961155511,0.8846179129411764,-0.3890200000000163,-0.0474899999999962,0.3919079745297515,-0.2639600000000541,0.0190699999999992,0.2646479671186396,-0.3492100000000278,-0.0541309999999981,0.3533805162442027,-0.1584700000000225,0.0151529999999979,0.1591928211603999,-0.3096300000000269,-0.0658260000000012,0.3165498367966991,-0.2336700000000178,-0.0005820000000085,0.2336707247902662,-0.1759999999999877,-0.0504139999999893,0.1830780472803733,0.0691800000000171,-0.0061399999999878,0.0694519402176945,-0.126039999999989,-0.0787100000000009,0.1485979330273385,-0.1792399999999929,-0.0282399999999967,0.1814510270017706,-0.0683599999999842,0.0594099999999997,0.0905684144721426,0.0789700000000266,0.0611960000000095,0.0999060124116931,-0.0575200000000108,-0.0083099999999944,0.0581171790437316,0.0241099999999505,-0.046069999999986,0.0519974710923169,-0.1064700000000016,0.2743839999999977,0.294316904638519,-0.0684100000000285,0.2550779999999975,0.2640922455961223,0.0484799999999836,0.0569140000000061,0.0747630510078281,0.268859999999961,-0.3122569999999882,0.4120559836344713,0.0774000000000114,0.7779100000000199,0.7817510653015016,-0.045219999999972,0.5172400000000437,0.5192129293459887,0.696109999999976,0.0670000000000072,0.6993269136104856,0.4197399999999334,-1.015609999999981,1.0989291786552515,-0.0790999999999826,0.4466400000000021,0.4535902331399996,0.0170000000000527,0.0818200000000217,0.0835674123088979,-0.0595799999999826,0.414670000000001,0.4189283772913918,-0.0423799999999801,0.0283000000000015,0.0509603218200042,0.0158000000000129,0.6193699999999751,0.6195714945831268,0.017180000000053,0.2599299999999687,0.2604971349170381,0.2269600000000196,0.5965400000000045,0.6382560718081844,0.0550800000000322,0.2162600000000054,0.2231640517646287,-0.1254299999999943,0.6266900000000248,0.6391189568460864,0.2699800000000323,0.3367200000000423,0.4315895721632369,0.3041000000000053,0.5501899999999864,0.6286380883306295,0.2313499999999635,0.2409399999999948,0.33402830134583,0.4306550000000015,0.0550599999999974,136.956547,0.3741971795156936,106.59448460000002,0.0475373956301352,96.459056,0.1052194938212379,-0.04397054,-0.5022957939999999,0.0739367086983561,0,0
14,466.6666666666667,485.14526,96.24462,0.8348188,486.68713,94.249954,0.80904293,484.47888,94.32201,0.62625384,490.92892,94.915436,0.72912854,484.64026,95.04331,0.33762503,497.68,106.83956,0.9878642,481.9605,106.814995,0.9805993,503.43835,123.1461,0.9537422,476.65103,122.753876,0.8638274,503.17117,139.68436,0.90981114,474.07272,138.19846,0.79852283,495.84235,138.4285,0.99325186,486.4047,138.30792,0.99119496,496.8893,162.38873,0.9854997,487.84692,162.22693,0.97811186,498.10123,186.72847,0.9697678,491.34448,186.04276,0.9590087,1.07561653,-0.01645824,0.96145625,-0.48195635,159.624729459157,171.05386978294294,179.65141939118186,175.09586815122137,2.3661662109638346,138.36821,106.8272775,96.24462,29.36563000000001,92.47851599999998,0.3175400185104614,-179.9104634576143,0.8651806523529411,-0.4731400000000008,-0.1079600000000056,0.4853007533478615,-0.0841199999999844,-0.0604700000000093,0.1035992051127734,-0.5779199999999491,-0.0918810000000007,0.5851783015124035,-0.2287099999999213,-0.0377500000000026,0.2318045008190398,-0.2298599999999737,-0.1042599999999964,0.2524000142630487,0.0797700000000531,-0.0384339999999951,0.0885461758406771,-0.4845599999999876,0.0704499999999939,0.4896545681396092,-0.3085599999999999,0.1208639999999832,0.331387054810528,0.4501000000000204,-0.0023899999999912,0.4501063453229895,0.5761400000000094,0.0763200000000097,0.5811729880164875,-0.4229399999999828,0.3830100000000129,0.5705917136622257,-0.3545799999999985,0.3236000000000132,0.4800457649016472,0.6125000000000114,0.0550449999999926,0.6149684561219486,0.6700200000000223,0.0633549999999871,0.673008659992595,-0.3774500000000103,0.8932000000000073,0.969677648757576,-0.2709800000000086,0.6188160000000096,0.6755467432058396,0.0810500000000047,-0.0740339999999974,0.1097731098949118,0.032570000000021,-0.1309480000000036,0.134937702677948,0.2071700000000191,2.1844199999999887,2.194221990888788,0.1297700000000077,1.4065099999999688,1.41248385229705,0.4355400000000031,-0.0146299999999826,0.4357856451284304,-0.2605699999999729,-0.0816299999999898,0.2730571035515908,-0.4440299999999979,0.9020100000000184,1.0053778797049553,-0.3649300000000153,0.4553700000000162,0.583554403462116,0.2318799999999896,0.7566199999999981,0.7913546352931738,0.2914599999999723,0.3419499999999971,0.4493091742886871,-0.2968999999999937,0.8571600000000217,0.907123407040097,-0.3127000000000066,0.2377900000000465,0.3928426836534267,0.0787599999999884,0.7838000000000136,0.7877471533430124,-0.1482000000000312,0.187260000000009,0.2388086003476689,-0.468810000000019,0.6683499999999754,0.8163789185176115,-0.3433800000000246,0.0416599999999505,0.3458979329224342,-0.435320000000047,0.541719999999998,0.6949561574660942,-0.7394200000000524,-0.0084699999999884,0.73946851001248,0.8293150000000082,0.3986600000000067,137.271078,0.7127971956191258,106.6260671,0.1147142148865907,96.41879,0.1431684712148611,0.10046899,-0.521161364,0.0428722042365577,0,0
15,500.0,485.03973,96.214905,0.83115107,486.6011,94.24952,0.81458753,484.41885,94.31559,0.6080054,490.90082,94.921196,0.7467695,484.54437,95.03349,0.3097648,497.56525,106.71993,0.98794913,481.85352,106.55226,0.9779896,503.2915,122.95386,0.9568037,476.20755,121.7657,0.8447169,502.6114,138.32402,0.9150387,474.6618,134.81778,0.7810252,495.68564,138.44388,0.99300635,486.2023,138.28883,0.990168,496.68478,162.94379,0.9848017,487.93677,162.80057,0.97521555,497.80234,187.6664,0.96769965,491.36182,186.97769,0.95368093,0.99625556,-0.29207243,0.9211704,-0.2422064,158.03697389277886,166.39328590405904,179.7470507374122,175.98439798735944,2.22823002329895,138.366355,106.636095,96.214905,28.62969999999996,93.41688,0.3064724458098741,-179.38858300839124,0.8610808064705883,-0.1055299999999874,-0.0297149999999959,0.1096337636177702,0.3676100000000133,0.0782450000000096,0.3758449043488701,-0.0860300000000506,-0.0004339999999984,0.086031094704233,0.4918899999998984,0.0914470000000022,0.5003182246419777,-0.0600299999999833,-0.0064200000000056,0.060372322300853,0.1698299999999903,0.0978399999999908,0.1959971798266366,-0.0280999999999949,0.0057599999999951,0.0286842744373926,0.4564599999999927,-0.0646899999999988,0.4610211792314895,-0.0958899999999971,-0.0098200000000048,0.0963915167429144,-0.5459900000000175,-0.0074300000000135,0.5460405525233628,-0.114750000000015,-0.1196300000000007,0.1657676066063681,0.3081899999999677,-0.5026400000000137,0.5895999030698648,-0.1069800000000213,-0.2627349999999921,0.2836801026244182,-0.7194800000000328,-0.3177799999999848,0.7865339145898526,-0.146850000000029,-0.1922399999999982,0.2419114302797778,0.2305999999999812,-1.0854400000000055,1.109664973584371,-0.4434799999999654,-0.98817600000001,1.0831280244624777,-0.5245299999999702,-0.9141420000000124,1.0539389531960528,-0.5597700000000145,-1.360340000000008,1.4710089627531295,-0.7669400000000337,-3.5447599999999966,3.626778242628025,0.589080000000024,-3.3806800000000123,3.4316195169045347,0.1535400000000208,-3.3660500000000297,3.369549989850308,-0.1567100000000323,0.0153799999999932,0.1574629115062017,0.2873199999999656,-0.8866300000000251,0.93202228476578,-0.2024000000000114,-0.0190900000000056,0.2032982737260817,-0.4342800000000011,-0.7757100000000037,0.8890023186134031,-0.2045200000000022,0.5550599999999974,0.5915403908441063,0.0923799999999914,-0.3021000000000242,0.3159089653682103,0.0898500000000126,0.5736399999999833,0.5806340259578171,0.0110900000000242,-0.2101600000000303,0.2104524024572142,-0.2988899999999717,0.9379300000000228,0.9844023146051748,0.1699200000000473,0.2695800000000474,0.3186631180416737,0.0173400000000469,0.9349300000000084,0.9350907873035738,0.452660000000094,0.3932100000000105,0.5995958469670161,-0.0018550000000061,-0.8311700000000144,137.62286899999998,0.7370037396394077,106.6438071,0.106036698656864,96.335761,0.1054254191597397,0.23974995,-0.473751794,0.1343255678220943,0,0
16,533.3333333333334,485.2108,96.36887,0.8366329,486.76828,94.40083,0.819013,484.50693,94.49134,0.62056243,491.00003,94.989395,0.74612534,484.36768,95.14754,0.31803137,497.61588,106.64388,0.98787653,481.60867,106.40388,0.9782956,503.35852,122.89456,0.95648646,475.75162,121.04373,0.84837055,502.30127,137.37534,0.91569513,475.07718,132.13724,0.78720295,495.8837,138.53793,0.9926559,486.24597,138.39642,0.98979723,496.478,163.45383,0.98326033,488.43454,163.34393,0.97305995,497.28625,188.2688,0.9634066,492.16656,187.63152,0.94810647,1.43345735,-0.47041102,1.35375202,-0.02947745,156.3619010366609,161.67391134414984,179.50083786319334,176.2778325377422,2.603661350813689,138.467175,106.52388,96.36887,28.28134,93.86797,0.3012884980756641,-179.1410147785331,0.8626222788235295,0.171069999999986,0.1539649999999994,0.2301524845075435,0.2765999999999735,0.1836799999999954,0.3320329839036833,0.1671800000000303,0.1513099999999951,0.2254858498886541,0.253210000000081,0.1517439999999936,0.2951974688848789,0.0880799999999908,0.1757499999999936,0.1965862378194265,0.1481099999999742,0.1821699999999992,0.2347817731426187,0.0992099999999709,0.068199000000007,0.1203898986667701,0.1273099999999658,0.0624390000000119,0.1417972666203153,-0.1766900000000077,0.1140500000000059,0.2103015896278583,-0.0808000000000106,0.1238700000000108,0.1478932618478759,0.0506300000000123,-0.0760500000000092,0.0913619143845107,0.1653800000000274,0.0435799999999915,0.1710256144558712,-0.2448499999999853,-0.148380000000003,0.2863007979381017,-0.1378699999999639,0.1143549999999891,0.1791234293022204,0.0670200000000136,-0.0593000000000074,0.0894883813687716,0.2138700000000426,0.1329399999999907,0.2518202146373793,-0.4559300000000235,-0.7219699999999989,0.8538810489758042,-0.012450000000058,0.266206000000011,0.2664969735963381,-0.3101300000000151,-0.948679999999996,0.9980853467013738,0.2496399999999994,0.4116600000000119,0.4814395966266272,0.4153799999999705,-2.680540000000008,2.712532992610416,-0.1737000000000534,0.7001400000000046,0.7213651707699957,0.1980599999999981,0.0940499999999815,0.2192559374338487,0.3547700000000304,0.0786699999999882,0.3633878393672795,0.04367000000002,0.107590000000016,0.1161149301339203,0.2460700000000315,0.1266800000000216,0.2767639197945082,-0.2067799999999806,0.5100400000000036,0.5503623987882854,-0.0022599999999783,-0.0450199999999938,0.0450766902067947,0.4977700000000027,0.543360000000007,0.7368955573892478,0.40791999999999,-0.0302799999999763,0.4090423019688678,-0.5160900000000197,0.6023999999999887,0.7932431204240014,-0.217200000000048,-0.3355300000000341,0.3996951599657465,0.8047399999999811,0.6538299999999992,1.0368703566502269,0.7873999999999342,-0.2811000000000092,0.8360717493133597,0.1008199999999988,0.1026750000000049,137.969775,0.6106007362118575,106.6356405,0.114856749616633,96.316209,0.081418952369881,0.21272895,-0.374904068,0.2335606617493608,0,0
17,566.6666666666666,485.26297,96.18662,0.79716074,486.6732,94.242386,0.77853924,484.75784,94.299576,0.55195004,490.87518,95.018486,0.7212875,485.3368,95.02631,0.28580534,497.41876,106.94041,0.98544544,482.7473,106.257355,0.9729336,503.3296,123.53128,0.9502559,475.93054,120.816086,0.8231998,502.61414,138.43866,0.90310615,475.02353,132.18817,0.756426,495.65298,138.90775,0.99178493,486.96567,138.55292,0.9883441,496.26035,163.63248,0.98220706,488.9203,163.3576,0.9709482,497.1008,188.38379,0.9623179,492.62823,187.53069,0.9460169,1.07734013,-0.22132654,1.02679794,-0.2395043,157.64278160908606,159.46995681892497,179.46241848879103,175.7849697042202,2.185675995747034,138.730335,106.5988825,96.18662,28.306070000000037,94.141404,0.3006760946471962,-177.3344214449469,0.8451605200000001,0.0521699999999896,-0.1822499999999962,0.1895699643930903,-0.1188999999999964,-0.3362149999999957,0.3566198763739849,-0.0950799999999958,-0.1584440000000029,0.1847828659156474,-0.2622600000000261,-0.3097539999999981,0.4058667861700591,0.2509099999999762,-0.191763999999992,0.3157993980298015,0.1628299999999853,-0.3675139999999857,0.4019703336018527,-0.1248499999999808,0.0290909999999939,0.1281944179010726,-0.2240599999999517,-0.039108000000013,0.2274473988947321,0.9691199999999752,-0.1212300000000112,0.9766730708379108,1.1458099999999831,-0.2352800000000172,1.1697167325895486,-0.1971199999999839,0.2965300000000042,0.3560706886279691,-0.2477499999999963,0.3725800000000134,0.4474325858718923,1.1386299999999778,-0.1465249999999969,1.1480190993728931,1.3834799999999632,0.0018550000000061,1.3834812436115274,-0.0289199999999709,0.6367199999999968,0.6373764388491265,-0.0959399999999846,0.6960200000000043,0.7026011130079449,0.178920000000005,-0.2276439999999979,0.2895412874461963,0.6348500000000286,0.4943260000000009,0.8046071816582532,0.3128700000000322,1.0633200000000045,1.1083939098082547,0.6230000000000473,2.0120000000000005,2.106246186940183,-0.0536500000000046,0.0509300000000223,0.0739742347037316,-0.4690299999999752,2.73147000000003,2.7714468246387374,-0.2307199999999625,0.3698200000000042,0.4358882320044736,-0.4287799999999606,0.2757700000000227,0.5098052385960533,0.7196999999999889,0.1564999999999941,0.7365190696784314,0.6760299999999688,0.048909999999978,0.6777969821413752,-0.2176499999999919,0.1786499999999762,0.2815800862987082,-0.0108700000000112,-0.3313900000000274,0.3315682267648974,0.4857599999999706,0.0136699999999905,0.4859523088739997,-0.012010000000032,-0.5296900000000164,0.5298261377093604,-0.185450000000003,0.1149900000000059,0.2182072469007445,0.3306400000000167,-0.4874099999999828,0.588974802262367,0.4616699999999696,-0.1008300000000019,0.4725525132723053,-0.3430700000000115,-0.7546600000000012,0.8289805428959173,0.2631599999999992,0.1623400000000003,138.294194,0.4475778021249033,106.638877,0.1132081833310757,96.273519,0.0824085012605628,-0.21002685,-0.3151139679999999,0.2190389838669509,0,0
18,600.0,485.63446,96.26696,0.8007236,487.02106,94.31004,0.7755464,485.0554,94.364426,0.5656228,491.09595,95.02513,0.7099421,485.50616,95.043,0.30202198,497.62384,106.87308,0.98539007,482.86624,106.4025,0.97460145,503.60574,123.401566,0.9486872,476.3458,121.81172,0.8347076,502.85477,138.74892,0.9004692,474.99585,135.3794,0.76595473,495.7559,138.97516,0.9917503,487.0534,138.67754,0.98870087,496.33405,163.78665,0.98177284,488.96564,163.51714,0.97135496,497.0356,188.63554,0.96111864,492.8097,187.82195,0.9458906,0.70776338,-0.3259715,0.59397067,-0.20462265,157.30273332681907,162.74634210361162,179.71764682777834,175.4146666446146,2.0632680517251347,138.82635,106.63779,96.26696,28.609890000000007,94.3255,0.3033102363272898,-178.17361121785262,0.8473091376470588,0.3714899999999943,0.0803399999999925,0.3800780652708001,0.3193200000000047,0.2625899999999888,0.4134232341076116,0.3478599999999687,0.0676540000000045,0.3543778256550187,0.4429399999999646,0.2260980000000074,0.4973089072236411,0.2975600000000327,0.0648499999999927,0.3045447029583974,0.0466500000000564,0.2566139999999848,0.2608197988957078,0.2207700000000159,0.0066440000000085,0.2208699518630978,0.3456199999999967,-0.0224469999999854,0.346348166169531,0.1693600000000401,0.0166900000000111,0.1701803916437319,-0.7997599999999352,0.1379200000000224,0.8115651446433013,0.2050799999999526,-0.0673299999999983,0.2158497980077358,0.4021999999999366,-0.3638600000000025,0.5423642130524016,0.1189400000000091,0.1451449999999994,0.1876533895910276,-1.019689999999969,0.2916699999999963,1.0605843130086046,0.276139999999998,-0.1297139999999927,0.305088546812228,0.305059999999969,-0.7664339999999896,0.8249137409183854,0.4152599999999893,0.9956339999999956,1.0787622210459458,0.2363399999999842,1.2232779999999934,1.2458995388409038,0.2406299999999532,0.3102599999999995,0.3926373192909421,-0.0722400000000789,-0.753060000000005,0.7565170065504271,-0.0276799999999752,3.1912299999999902,3.1913500427405226,0.0259700000000293,3.140299999999968,3.140407382952059,0.1029199999999832,0.0674099999999953,0.1230310306385991,0.3336399999999457,-0.3024100000000089,0.450297077161255,0.0877300000000218,0.124619999999993,0.152403075100216,-0.6319699999999671,-0.031880000000001,0.6327735892876364,0.0736999999999739,0.1541700000000219,0.170880305769866,0.2913499999999658,-0.0244799999999543,0.2923766285118868,0.0453400000000101,0.1595400000000211,0.1658575509285231,-0.4404199999999605,0.1458700000000306,0.4639480933250767,-0.0652000000000043,0.251749999999987,0.2600559603239157,0.1202499999999986,0.1367599999999811,0.1821081000394944,0.1814700000000471,0.2912599999999941,0.3431672310987948,-0.2801999999999225,0.392089999999996,0.4819197112589954,0.0960149999999941,-0.1671450000000049,138.551685,0.2136053073719141,106.644785,0.1119743466295845,96.256395,0.0698048461785679,0.03488165,-0.23955343,0.1613368317003847,0,0
19,633.3333333333333,486.21265,96.25648,0.758483,487.24222,94.29417,0.70182896,485.76968,94.29724,0.5255095,490.45502,95.07596,0.6452079,487.33444,94.87596,0.34103805,495.92902,106.98336,0.982577,485.67038,106.13838,0.97588557,501.9928,123.966156,0.9322647,479.54648,122.50232,0.85026693,502.45413,139.74075,0.87011606,476.8998,138.0962,0.76970106,494.65277,138.8465,0.9910357,488.83615,138.348,0.9892168,495.94373,163.19528,0.98099226,489.20587,162.70186,0.97417974,497.46292,187.77464,0.96128726,491.99872,186.76689,0.951626,0.83912723,-0.38885673,0.73325164,0.12355966,162.025821300946,169.11533422617853,179.49812812893293,174.24994174776637,1.6892363870438405,138.59725,106.56087,96.25648,25.554329999999997,93.48047,0.2733654390765745,-175.29131106293784,0.8353656758823529,0.5781900000000064,-0.0104800000000011,0.5782849699758826,0.2067000000000121,-0.0908199999999936,0.2257723685485091,0.2211599999999975,-0.0158700000000067,0.2217286686470632,-0.1266999999999711,-0.0835240000000112,0.1517535784619083,0.7142799999999738,-0.0671859999999924,0.7174328379687966,0.4167199999999411,-0.1320359999999851,0.4371373510647963,-0.6409300000000258,0.0508299999999906,0.642942418728172,-0.8617000000000417,0.044185999999982,0.8628321346566029,1.8282799999999495,-0.16704,1.8358949098463715,1.6589199999999096,-0.1837300000000112,1.669063293976506,-1.6948199999999929,0.110280000000003,1.698404107036949,-1.8998999999999453,0.1776100000000013,1.90818377576684,2.804140000000018,-0.2641200000000054,2.8165511736874413,2.685200000000009,-0.4092650000000049,2.7162100213763023,-1.6129400000000371,0.5645899999999955,1.708899444584179,-1.8890800000000356,0.6943039999999883,2.0126304406959856,3.200679999999977,0.6906000000000034,3.274336699608007,2.785419999999988,-0.305033999999992,2.80207250397914,-0.400639999999953,0.9918299999999932,1.0696911509870262,-0.6412699999999063,0.6815699999999936,0.935823101766499,1.903950000000009,2.7168000000000063,3.317533397345092,1.931629999999984,-0.4744299999999839,1.9890395375155123,-1.1031300000000217,-0.1286599999999964,1.1106075780850977,-1.2060500000000047,-0.1960699999999917,1.2218838109247574,1.7827499999999643,-0.3295399999999802,1.8129517848249197,1.695019999999943,-0.4541599999999732,1.7548088516986062,-0.3903199999999742,-0.5913700000000119,0.7085676956367641,-0.4640199999999481,-0.7455400000000338,0.8781483086586243,0.2402299999999968,-0.8152800000000013,0.8499364277991622,0.1948899999999866,-0.9748200000000224,0.9941107305024116,0.4273200000000088,-0.8608999999999867,0.961119759655364,0.4925200000000131,-1.1126499999999735,1.2167850972542171,-0.8109800000000291,-1.0550599999999974,1.330729185071118,-0.9924500000000762,-1.3463199999999915,1.6725831952103694,-0.2290999999999883,-0.3251149999999825,138.597493,0.1873700473860424,106.5915035,0.049235761063439,96.258767,0.069505558914473,0.32818231,-0.118450228,0.1611523393283749,0,0
20,666.6666666666666,487.34393,96.82129,0.8579697,489.0235,94.81584,0.79994476,486.07687,94.79384,0.6935146,492.55798,95.26469,0.6821015,484.81454,95.17958,0.41398296,499.01312,107.00965,0.9875882,481.15195,106.74933,0.9860941,504.53534,123.43364,0.95307374,476.384,122.14755,0.9244829,503.47217,139.67885,0.9193764,474.39136,138.4202,0.88245374,496.238,138.59982,0.9928762,485.4199,138.44333,0.99257666,495.86658,162.71689,0.98308426,486.35767,162.43698,0.97972953,495.9417,185.63466,0.9579839,489.1367,184.89313,0.9513387,1.17640352,-0.24711931,1.14790114,-0.07197411,157.67147709391486,169.7765316123191,178.92986475484184,175.18352069808097,1.351394116902745,138.52157499999998,106.87949,96.82129,30.14398,90.84082,0.3318329762783628,-179.16499415438446,0.8798924617647058,1.1312800000000038,0.5648100000000085,1.2644385214394642,0.5530899999999974,0.5752900000000096,0.7980395555359446,1.781280000000038,0.5216700000000003,1.8560975263439516,1.5601200000000404,0.537540000000007,1.6501283786421388,0.3071899999999914,0.4966000000000008,0.5839325783855491,-0.4070899999999824,0.5637859999999932,0.6953969527514325,2.102959999999996,0.1887300000000067,2.111411796523829,2.7438900000000217,0.1379000000000161,2.7473530428578203,-2.51989999999995,0.3036199999999951,2.5381255119476944,-4.3481799999999,0.4706599999999952,4.37357864317073,3.084100000000035,0.0262899999999888,3.084212050767621,4.778920000000028,-0.0839900000000142,4.779658009366389,-4.518430000000024,0.6109500000000025,4.5595470791955,-7.3225700000000415,0.875070000000008,7.374671444193336,2.542540000000031,-0.5325160000000011,2.5977072471424023,4.155480000000068,-1.0971059999999966,4.297866401557471,-3.1624799999999595,-0.354770000000002,3.182317002327038,-6.363159999999937,-1.0453700000000057,6.448457460703234,1.018039999999985,-0.06189999999998,1.019920120205483,1.418679999999938,-1.0537299999999732,1.767201136062267,-2.5084400000000078,0.3239999999999838,2.529278006388389,-4.412390000000016,-2.3928000000000225,5.019429982786915,1.585230000000024,-0.2466799999999978,1.604308316783303,2.6883600000000456,-0.1180200000000013,2.6909493139039697,-3.416249999999991,0.0953299999999899,3.4175798266316963,-5.198999999999955,0.4248699999999701,5.216331614928206,-0.0771500000000173,-0.4783899999999903,0.4845710624872201,0.3131699999999568,0.1129800000000216,0.3329263121172279,-2.84820000000002,-0.2648800000000051,2.860490282171942,-3.0884300000000167,0.5503999999999962,3.137091013168107,-1.5212199999999712,-2.1399800000000084,2.625571307125356,-1.94853999999998,-1.2790800000000218,2.3308482957927525,-2.8620199999999727,-1.873759999999976,3.420838350170869,-2.051039999999944,-0.8186999999999784,2.208400953540759,-0.0756750000000181,0.1534249999999701,138.628537,0.1482820425993889,106.6401825,0.140353337843275,96.380044,0.2550939962641201,-0.19553377,-0.0844037699999999,0.1457128501613346,0,0
21,700.0,486.94565,96.50466,0.6840169,487.70877,94.52127,0.5727028,486.75266,94.46065,0.4363106,488.94775,94.95861,0.65083885,490.21732,94.54471,0.44278678,490.2668,106.85022,0.9857253,490.6571,105.734276,0.98498535,488.46194,123.732635,0.94134766,488.62775,121.75441,0.9151849,485.4983,140.2348,0.8836578,483.94092,138.75307,0.84671533,490.3999,138.55435,0.9922976,490.7514,137.90933,0.9923793,492.39496,162.63274,0.98136765,490.20267,161.95634,0.97948563,494.54694,185.2652,0.9541772,490.4411,184.24109,0.9510822,1.19597906,-0.28396613,1.06487298,-0.46451553,175.92090677987068,171.80501792342443,179.3049507382382,178.0797900401981,0.204466534734822,138.23184,106.292248,96.50466,10.60602,90.80455,0.1168005334886794,-70.72278021419284,0.8350036382352941,-0.3982799999999997,-0.3166300000000035,0.5088040047994925,-1.5295600000000036,-0.881440000000012,1.7653583962470714,-1.3147299999999973,-0.2945699999999931,1.3473256687972617,-3.0960100000000352,-0.8162399999999934,3.201800377553261,0.6757900000000063,-0.3331900000000019,0.7534638015193629,0.3686000000000149,-0.8297900000000027,0.9079743411022226,-3.6102300000000014,-0.3060800000000085,3.623181698355744,-5.713189999999997,-0.4948100000000153,5.734577308939167,5.40277999999995,-0.6348700000000065,5.439953276021723,7.9226799999999,-0.9384900000000016,7.978071312196853,-8.746320000000026,-0.1594300000000004,8.74777294328679,-11.83042000000006,-0.1857199999999892,11.831877674097267,9.505150000000016,-1.0150540000000063,9.559195109705437,14.023580000000038,-1.6260040000000089,14.117531123550505,-16.073399999999992,0.298995000000005,16.076180689766606,-18.615940000000023,0.8315110000000061,18.634501137050112,12.243749999999975,-0.3931400000000025,12.250060127285067,15.406229999999937,-0.0383700000000004,15.406277781144867,-17.973870000000034,0.5559499999999957,17.982465992721945,-18.99191000000002,0.6178499999999758,19.001957374718025,9.549559999999984,0.332870000000014,9.555359680854496,12.057999999999993,0.0088700000000301,12.058003262435278,-5.838099999999997,-0.0454699999999945,5.8382770686992895,-7.423330000000021,0.2012100000000032,7.426056406532361,5.3315000000000055,-0.5339999999999918,5.358175832314581,8.747749999999996,-0.6293299999999817,8.77035839127455,-3.471619999999973,-0.0841499999999939,3.4726397231644706,-3.394469999999956,0.3942399999999963,3.4172871928621533,3.8450000000000273,-0.4806399999999939,3.8749244908256215,6.693200000000047,-0.2157599999999888,6.696676684565309,-1.394760000000019,-0.3694600000000037,1.4428638706406285,0.1264599999999518,1.7705200000000048,1.7750304791749365,1.304399999999987,-0.6520399999999995,1.4582919877719842,4.16641999999996,1.2217199999999764,4.341849303557138,-0.289734999999979,-0.2140599999999608,138.58147,0.2281471887563945,106.5938561,0.2095218997349572,96.407202,0.2607720710122067,-0.39254142,-0.171411386,0.2171090521259398,0,0
22,733.3333333333333,486.59216,96.61969,0.39318532,486.76666,94.37953,0.29712725,486.9259,94.43855,0.1845823,485.51974,94.540565,0.7116011,493.3321,94.67083,0.48725283,482.56534,106.103004,0.98780197,498.09915,106.44185,0.98515874,476.07626,122.2787,0.94353485,505.2258,123.8528,0.89964855,472.7519,138.43553,0.8551789,503.93222,139.89993,0.7812375,485.16528,137.98975,0.99341255,494.81415,138.00949,0.99300957,487.8993,162.47008,0.9829506,494.76788,162.50842,0.98002267,490.5396,185.45114,0.9576815,494.2612,185.38531,0.953008,0.93506159,-0.35888799,0.80719091,-0.30656551,169.7678739350602,153.13101115127094,179.81849574160108,178.83942062308807,0.618714267412252,137.99962,106.272427,96.61969,32.473900000000015,91.07161,0.356575442593192,1.2496204910618427,0.7874349529411766,-0.353490000000022,0.1150300000000044,0.371735229699872,0.0447899999999776,0.4316600000000079,0.4339775336351005,-0.9421100000000138,-0.1417399999999986,0.952712695254989,0.3726199999999835,0.1528299999999944,0.4027439301839148,0.1732400000000211,-0.0220999999999946,0.1746439452142761,-0.5025499999999852,0.3110900000000072,0.5910444066227085,-3.428009999999972,-0.4180449999999922,3.45340617103242,0.1822200000000293,-0.1119649999999836,0.2138697959624197,3.114780000000053,0.1261200000000002,3.117332305481777,-2.287999999999897,0.7609900000000067,2.4112340782469754,-7.701459999999997,-0.7472159999999946,7.737623529369722,1.0448600000000283,-0.5877859999999941,1.1988431095835903,7.442049999999995,0.7075740000000081,7.475611625009416,-2.06310000000002,1.7226280000000145,2.6877181467527675,-12.385680000000036,-1.4539350000000013,12.470725562156591,3.687719999999956,-1.7529300000000063,4.083141239695205,16.59805,2.098390000000009,16.730167494517204,4.354300000000023,2.491530000000012,5.016737010338519,-12.746399999999994,-1.799270000000007,12.87276526209112,5.227470000000039,-2.3552200000000028,5.733541998564275,19.991299999999967,1.1468600000000038,20.02416948464027,10.441739999999982,0.8139899999999898,10.473419400926309,-5.234620000000007,-0.5646000000000129,5.264980503705601,0.6034799999999905,-0.5191300000000183,0.7960427546934947,4.062749999999994,0.1001599999999882,4.0639844473250575,-1.2687500000000114,0.6341599999999801,1.4184094853391258,-4.495660000000044,-0.1626600000000166,4.498601683990303,-1.0240400000000704,-0.0785100000000227,1.0270451507602516,4.565209999999979,0.5520799999999895,4.598470905692434,0.7202099999999518,1.0327199999999834,1.25905243834397,-4.007339999999999,0.1859400000000164,4.011651475290444,-2.61257999999998,0.5554000000000201,2.6709630129224773,3.820099999999968,1.14421999999999,3.987781766646682,2.515699999999981,1.7962599999999895,3.0911642592395294,-0.2322200000000123,0.0575149999999666,138.435327,0.3231889195887557,106.528565,0.2537589746235467,96.493816,0.2403087069375244,0.15795002,-0.184823628,0.2243189209473642,0,0
23,766.6666666666667,486.47372,96.14963,0.27519318,486.3269,93.785904,0.20322143,486.8474,93.81593,0.118221395,484.58112,94.38226,0.6944749,494.01257,94.45774,0.4697053,481.2511,106.334045,0.9871726,499.5111,106.61422,0.9842679,475.22455,122.615295,0.9461563,505.5423,124.72348,0.9013675,472.0055,138.18735,0.8515724,505.12253,140.65332,0.77339286,484.5044,138.4228,0.99431807,496.1211,138.3661,0.9939612,486.739,163.50061,0.9850525,495.58463,163.50021,0.9822432,489.3144,187.5693,0.9625531,495.84137,187.54402,0.9579784,0.97789999,-0.3692051,0.8968515,-0.12503353,171.36747559484542,160.07045412729695,178.98445281524104,178.1654628105055,0.1235209375528871,138.39445,106.4741325,96.14963,33.53680000000003,93.783396,0.3575984776921658,0.8790572531509936,0.7694618961764705,-0.1184399999999641,-0.4700600000000037,0.4847519336732913,0.2350500000000579,-0.5850900000000081,0.630538508419618,-0.4397599999999784,-0.5936260000000004,0.7387697107190991,0.5023500000000354,-0.4518860000000018,0.6756896325207581,-0.0785000000000195,-0.6226200000000119,0.6275491330565424,-0.2517400000000407,-0.6005200000000173,0.6511507490589573,-0.9386200000000144,-0.1583049999999985,0.9518760304919052,2.4893899999999576,0.2597399999999936,2.502903801527295,0.680469999999957,-0.213089999999994,0.7130545343800424,-2.434310000000096,-0.3392099999999942,2.457830059259684,-1.314239999999984,0.2310410000000047,1.334393765453421,6.387220000000013,0.9782569999999992,6.461699937822026,1.4119499999999905,0.1723700000000008,1.4224325008238432,-6.0301000000000045,-0.5352040000000073,6.053804533647916,-0.8517099999999687,0.3365950000000026,0.915808996529816,11.533970000000068,1.790530000000004,11.672123270502311,0.3165000000000191,0.870679999999993,0.9264210232934053,-16.28154999999998,-1.227710000000016,16.327772115221336,-0.7463999999999942,-0.2481799999999907,0.7865788405493671,12.0,1.5510900000000163,12.099829758641237,1.1903100000000109,0.753389999999996,1.4086995379427154,-18.80098999999996,-0.3934700000000077,18.805106849496983,-0.6608800000000201,0.4330500000000086,0.790123203620824,4.573739999999987,0.9976500000000216,4.681282207910555,1.306950000000029,0.3566099999999892,1.3547283840682116,-2.755799999999965,0.2564500000000009,2.767706675661243,-1.1603000000000063,1.0305299999999988,1.551866028657117,3.335360000000037,1.1931900000000155,3.5423620235233275,0.8167500000000132,0.9917900000000088,1.2848065872340626,-3.748459999999966,0.4397100000000193,3.774161795114216,-1.2252000000000294,2.118159999999989,2.44698116576324,2.78213999999997,1.9322199999999723,3.38729643048844,1.5801700000000096,2.158709999999985,2.6752506598447865,-2.2399299999999585,1.014489999999995,2.4589583902538497,0.3948300000000131,0.6270500000000254,138.348947,0.2394100726681086,106.4958335,0.2466021643142913,96.47035,0.2716800464700849,0.1815319799999999,-0.168905804,0.2253840511893962,0,0
24,800.0,486.19647,95.558945,0.23750171,485.95636,93.20196,0.17134726,486.61813,93.20146,0.101768605,484.02444,94.17868,0.67631274,494.17618,94.11798,0.4742507,480.4147,106.48688,0.9861248,499.7822,106.52757,0.98365176,474.2098,122.91609,0.9427313,505.27194,124.65134,0.9022794,471.41183,138.25465,0.8400193,504.6735,140.3458,0.7688502,484.14114,138.71938,0.9940065,496.5105,138.57207,0.99378115,486.43115,164.14072,0.9833174,496.03485,164.08,0.9807082,488.55588,188.5127,0.95764506,496.0733,188.44168,0.95347303,1.07970261,-0.32548021,1.02728923,-0.06706121,169.64760271434182,160.96462629498924,179.83493619267335,178.84128693653605,0.4055951592761197,138.645725,106.507225,95.558945,33.86010999999996,95.31124,0.3552583057857778,0.1203749496947496,0.7616334773529411,-0.2772500000000377,-0.5906850000000077,0.6525153881135908,-0.1588100000000736,-0.1206250000000039,0.1994266951163368,-0.3705400000000054,-0.5839440000000025,0.691585487655725,0.0692199999999729,0.0096819999999979,0.0698938446788858,-0.2292699999999854,-0.6144699999999972,0.6558491547604448,-0.1507699999999658,0.0081500000000147,0.15099011689508,-0.5566799999999716,-0.2035800000000023,0.5927372426294549,0.3819400000000428,-0.0452750000000037,0.3846140782980168,0.1636100000000055,-0.3397599999999983,0.3771009012187595,-0.5168599999999515,-0.1266700000000042,0.532155567949778,-0.836400000000026,0.152834999999996,0.8502490795202559,0.4778399999999578,-0.0782060000000086,0.4841975258465919,0.2710999999999899,-0.0866500000000058,0.2846110196390778,-1.1408500000000004,-0.2590200000000067,1.1698846451253235,-1.0147500000000491,0.3007949999999937,1.0583927411528746,-0.1630400000000804,-0.0358000000000089,0.1669241791953067,-0.2703600000000392,-0.0721399999999903,0.2798190651117608,-0.5868600000000583,-0.9428199999999832,1.1105468076582985,-0.5936699999999746,0.0672999999999888,0.5974724754329428,0.1527300000000195,0.3154799999999795,0.3505054682882894,-0.4490299999999934,-0.3075200000000109,0.5442393694873615,-1.6393400000000042,-1.060910000000007,1.9526816595902232,-0.3632599999999684,0.2965800000000058,0.4689536480292913,0.2976200000000517,-0.1364700000000027,0.3274167456011246,0.3893999999999664,0.2059700000000077,0.4405178780707737,-0.9175500000000624,-0.1506399999999814,0.929833539995256,-0.3078499999999735,0.6401099999999929,0.7102903875176508,0.852450000000033,-0.390420000000006,0.93760267645739,0.4502200000000016,0.5797900000000027,0.7340670899175392,-0.3665300000000115,-0.4120000000000061,0.5514419651241765,-0.7585199999999759,0.9433999999999968,1.210518959124539,0.4666800000000535,-1.174759999999992,1.2640614225582676,0.2319300000000339,0.8976600000000019,0.9271380698148572,-1.3482399999999757,-1.2610499999999831,1.8460764339809688,0.2512749999999926,-0.1435550000000205,138.35864199999995,0.2525972921122647,106.4851045,0.2442206852996739,96.330843,0.495693421501643,0.05797232,-0.207029978,0.1737533399682979,0,0
25,833.3333333333334,484.60455,95.203415,0.21370518,484.48154,92.86621,0.16326886,485.3256,92.81752,0.08438828,483.44232,93.87597,0.68795377,493.71295,93.749435,0.4238039,480.4923,106.13933,0.9855729,499.61798,106.24586,0.98179424,474.0012,122.38072,0.9455881,505.081,124.6987,0.8959492,470.10593,136.91174,0.8460663,504.44916,140.24426,0.7615219,484.23734,138.7001,0.99419135,496.40573,138.49521,0.9937723,485.9553,164.50299,0.9840866,495.51892,164.41064,0.9808657,488.05542,189.3016,0.9592507,495.44754,189.08667,0.9540113,0.93969424,-0.27659676,0.89758844,-0.02923181,173.22141848050134,161.18097818291872,178.96847634722843,178.20587393292067,0.4712206414005375,138.59765499999995,106.192595,95.203415,34.97507000000002,96.48408,0.3624957572016467,0.3191340789096049,0.7562229752941176,-1.5919199999999591,-0.3555299999999874,1.6311379056658148,-1.3146699999999214,0.2351550000000202,1.3355355041798038,-1.4748200000000224,-0.3357500000000044,1.5125548237667517,-1.104280000000017,0.248193999999998,1.1318279816456371,-1.2925299999999993,-0.3839399999999955,1.3483485174464334,-1.063260000000014,0.2305300000000016,1.0879641117702503,-0.5821200000000317,-0.3027100000000047,0.6561227312782569,-0.02544000000006,-0.0991300000000023,0.1023423201808691,-0.46323000000001,-0.3685449999999974,0.5919522361854944,-0.6268400000000156,-0.0287849999999991,0.6275005671909942,0.0776000000000181,-0.3475499999999982,0.3561077961797545,0.914000000000044,-0.5003849999999943,1.042008228482422,-0.1642200000000002,-0.2817100000000039,0.3260808680373663,-0.4353199999999901,-0.195059999999998,0.4770240098778998,-0.2085999999999899,-0.5353700000000003,0.5745737523590824,0.8061500000000592,-0.836164999999994,1.1614860006582457,-0.190939999999955,0.0473599999999976,0.1967258325690416,0.0794200000000842,0.1194999999999879,0.1434844465439041,-1.3059000000000085,-1.3429099999999892,1.8731743320097016,-0.7122300000000337,-1.410209999999978,1.5798619613751026,-0.2243399999999837,-0.1015399999999999,0.246249481623805,0.2246900000000096,0.2059800000000109,0.3048169229226107,0.0962000000000102,-0.019280000000009,0.0981129879271971,0.4594599999999786,-0.3158600000000149,0.5575580967038232,-0.1047699999999736,-0.0768600000000105,0.1299392646585168,-0.49416999999994,-0.2828300000000183,0.5693828218342657,-0.4758499999999799,0.3622700000000236,0.5980575017504571,-0.1680000000000063,-0.2778399999999692,0.324683023270366,-0.5159300000000258,0.3306399999999883,0.6127859124523171,-0.9661500000000274,-0.2491500000000144,0.997758259800469,-0.5004599999999755,0.7889000000000124,0.9342501921862232,0.2580600000000004,-0.1544999999999845,0.3007743566197016,-0.6257600000000139,0.6449900000000071,0.8986588216336756,-0.8576900000000478,-0.2526699999999948,0.894133247899931,-0.048070000000024,-0.2993450000000166,138.373858,0.2667601855270874,106.3477255,0.1362276672412212,96.007268,0.6103072186878795,0.0378294,-0.198481518,0.1828712749597517,0,0
26,866.6666666666667,483.17087,95.07214,0.22366047,483.27872,92.71749,0.18125618,484.1521,92.653046,0.08196651,483.14563,93.70067,0.72459114,493.50455,93.51665,0.40250832,480.29456,106.111176,0.9865231,499.6228,106.12395,0.9814497,473.19995,122.85112,0.94809616,505.15308,124.84178,0.88570344,469.06543,137.65735,0.8486377,504.27277,140.37758,0.74373144,483.86102,139.3759,0.9941454,496.16104,139.09332,0.9934383,484.66284,165.86432,0.9835383,494.85638,165.76236,0.9791758,486.50723,191.4801,0.95733047,494.74637,191.16646,0.9501324,0.86155031,-0.14640468,0.84772241,-0.04691828,172.6340853714349,160.29684962851647,177.61553584981763,177.44741095479782,0.0916585620675093,139.23461,106.117563,95.07214,36.08765,98.827054,0.365159621522669,0.0378666749243048,0.7568167547058823,-1.433680000000038,-0.1312750000000022,1.4396775569637494,0.1582399999999211,0.2242549999999852,0.2744634814050284,-1.2028199999999742,-0.1487199999999973,1.2119792039469726,0.2720000000000482,0.1870300000000071,0.3300972900525372,-1.17349999999999,-0.1644739999999984,1.1849700193152466,0.1190300000000093,0.219465999999997,0.2496667099474836,-0.2966900000000123,-0.1752999999999929,0.344608540375895,0.2854300000000194,0.1274100000000118,0.3125757396216381,-0.2083999999999832,-0.2327850000000069,0.312441060401792,0.2548300000000267,0.1357599999999905,0.2887370888888559,-0.1977400000000102,-0.0281540000000006,0.1997342116814345,-0.2753400000000283,0.3193959999999975,0.4216941076372944,0.0048199999999951,-0.1219099999999997,0.1220052478379511,0.1690399999999954,0.1598000000000041,0.2326167698167949,-0.8012499999999818,0.4703999999999979,0.929127398422826,-0.5926499999999919,1.0057699999999985,1.1673933850249396,0.0720799999999712,0.1430799999999976,0.1602105264955932,0.2630199999999263,0.09572,0.2798961214450126,-1.0405000000000086,0.7456099999999992,1.2800681708799797,0.2653999999999996,2.0885199999999884,2.105315404019063,-0.1763900000000262,0.1333199999999976,0.221105527972524,0.0479499999999575,0.2348599999999976,0.239704864573072,-0.3763200000000211,0.6758000000000095,0.7735130137237697,-0.4725200000000313,0.6950800000000186,0.8404828117219623,-0.2446899999999914,0.5981100000000197,0.6462265610449786,-0.1399200000000178,0.6749700000000303,0.6893200325683607,-1.2924600000000055,1.361329999999981,1.877144698871124,-0.8166100000000256,0.9990599999999574,1.2903382408112831,-0.6625399999999786,1.3517200000000005,1.5053591631235292,-0.1466099999999528,1.021080000000012,1.0315516751476923,-1.5481900000000337,2.178499999999985,2.672593221217932,-1.0477300000000582,1.389599999999973,1.7403236230368324,-0.7011699999999905,2.0797900000000027,2.194804276695304,-0.0754099999999766,1.4347999999999956,1.4367803270159234,0.6369550000000288,0.6850250000000528,138.574412,0.4484025381645821,106.31278849999998,0.1717745345234111,95.720764,0.6531734971219801,-0.01768647,-0.114962068,0.1130126538847935,0,0
27,900.0,482.33517,95.34761,0.22335953,482.5088,93.0101,0.18454957,483.46838,92.92924,0.07957667,482.7242,93.96663,0.7416214,493.2609,93.72364,0.40318215,479.84518,106.32704,0.98734367,499.50623,106.241486,0.982742,471.59244,122.97302,0.9519772,505.1986,124.65997,0.8934125,466.6294,137.63036,0.85734373,504.05447,139.8105,0.75620794,483.7318,139.46265,0.9942213,496.2131,139.1136,0.9935876,483.9014,165.48933,0.98261327,494.63672,165.3439,0.9780969,485.4132,190.5366,0.9534494,494.3494,190.14687,0.94591844,0.81309728,-0.20069232,0.7865567,-0.04667263,172.33504235709353,158.5072085903887,176.91929361788118,177.22448182082755,0.5153381416783812,139.28812499999998,106.284263,95.34761,38.56920000000002,97.60736,0.3951464275322434,-0.2493179246085637,0.7593648982352941,-0.8356999999999744,0.2754699999999985,0.8799307989267998,0.5979800000000637,0.4067450000000008,0.7232023060147671,-0.7699200000000133,0.2926099999999962,0.8236488441684467,0.432899999999961,0.4413299999999935,0.6182027004955256,-0.6837199999999939,0.2761939999999896,0.7373982397836233,0.4897799999999961,0.440667999999988,0.6588419648322241,-0.4214299999999866,0.2659599999999926,0.4983351949240439,-0.1247399999999743,0.4412599999999855,0.4585525653619013,-0.2436500000000023,0.2069900000000046,0.3197032727389619,-0.0352500000000191,0.4397750000000116,0.4411854634108104,-0.4493799999999623,0.2158639999999962,0.4985375120248872,-0.2516399999999521,0.2440179999999969,0.3505245696438046,-0.1165699999999674,0.1175360000000012,0.1655393493885749,-0.1213899999999625,0.2394460000000009,0.2684584120790246,-1.607509999999991,0.1219000000000107,1.6121253084360323,-0.8062600000000089,-0.3484999999999871,0.8783549610493501,0.0455200000000104,-0.1818099999999987,0.1874218410431411,-0.0265599999999608,-0.3248899999999963,0.3259738420487073,-2.436030000000017,-0.026990000000012,2.4361795132953734,-1.395530000000008,-0.7726000000000113,1.5951221711518022,-0.2182999999999992,-0.5670800000000042,0.6076467858879898,-0.041909999999973,-0.7004000000000019,0.701652768896411,-0.1292199999999752,0.086749999999995,0.1556385906515242,0.2471000000000458,-0.5890500000000145,0.6387787664755613,0.0520599999999831,0.0202799999999854,0.0558705825994113,0.2967499999999745,-0.5778300000000343,0.6495753007927753,-0.7614399999999932,-0.3749899999999968,0.8487687398225664,0.5310200000000123,-1.736319999999978,1.8157063041141688,-0.2196599999999762,-0.4184600000000102,0.4726090214966258,0.4428800000000024,-1.7701800000000103,1.8247410574654253,-1.0940299999999752,-0.9435000000000002,1.4446777809947609,0.4541600000000585,-3.1219999999999857,3.154860584178002,-0.3969700000000102,-1.0195899999999938,1.094143020358854,0.3041999999999802,-3.0993799999999965,3.114272631675006,0.053514999999976,-0.5834400000000528,138.832113,0.4034881414086645,106.3151557,0.1711597193645007,95.466348,0.4225165435608113,0.00024565,-0.062983492,0.0371824766977206,0,0
28,933.3333333333334,481.40646,96.14789,0.1854411,481.63507,93.68669,0.16167773,482.73273,93.56286,0.059159815,482.2566,94.50798,0.7544912,493.27646,94.207886,0.35431376,479.68237,106.86467,0.98743725,499.6283,106.80304,0.9809473,471.21155,123.2484,0.96126544,505.1494,125.25653,0.8951729,466.07312,137.57498,0.88307977,503.92975,140.51439,0.76902306,483.26285,140.34845,0.9954039,496.15103,139.93141,0.99457836,482.07928,165.77017,0.9885156,493.7216,165.53429,0.9843211,483.68903,190.81458,0.9686092,494.53464,190.27327,0.9612092,0.88325209,-0.23532833,0.85116145,0.01670389,172.39093175532304,158.77307235815942,173.65670553827786,172.69716048123482,0.0898784028030005,140.13993,106.833855,96.14789,39.07628,97.25172,0.4018055371996964,-0.1770349968122103,0.7579203932352943,-0.9287100000000236,0.8002800000000008,1.225948751987637,-0.0930100000000493,0.5248100000000022,0.5329881764167114,-0.8737300000000232,0.6765900000000045,1.1050692923975611,-0.1038100000000099,0.3839800000000082,0.3977652027264431,-0.735650000000021,0.6336200000000076,0.9709043345768112,-0.0519300000000271,0.357426000000018,0.3611787235926497,-0.4676000000000044,0.5413500000000084,0.7153387886169834,-0.0461700000000178,0.2753900000000158,0.2792334525088467,0.0155599999999935,0.4842459999999988,0.4844959257991739,0.2592099999999959,0.2772559999999942,0.3795533080293131,-0.1628100000000358,0.5376300000000072,0.561741144122468,0.2865699999999265,0.3217660000000109,0.4308778523618554,0.1220700000000079,0.561554000000001,0.574668582590003,0.2386399999999753,0.4440179999999998,0.504084351992787,-0.3808900000000221,0.2753799999999984,0.470012059951674,1.2266199999999683,0.1534799999999876,1.2361847494609852,-0.0491999999999848,0.5965599999999966,0.5985853937409387,-0.0947199999999952,0.7783699999999953,0.7841120680744507,-0.5562799999999584,-0.0553799999999853,0.5590298585942902,1.8797500000000584,-0.0283899999999732,1.8799643758859412,-0.1247199999999679,0.7038900000000012,0.7148539784459438,0.0935800000000313,1.2709700000000057,1.2744104351817038,-0.4689500000000066,0.8858000000000175,1.002275282794122,-0.3397300000000314,0.7990500000000225,0.8682726388641169,-0.0620700000000056,0.8178100000000086,0.820162106537491,-0.1141299999999887,0.7975300000000232,0.8056548627048896,-1.8221200000000408,0.2808400000000119,1.84363564730132,-1.0606800000000476,0.6558300000000088,1.24705855969161,-0.9151200000000016,0.1903900000000078,0.934715446807212,-0.6954600000000255,0.6088500000000181,0.9243175504663198,-1.724170000000015,0.2779800000000136,1.746434959939837,-0.6301400000000399,1.221480000000014,1.3744416357197873,0.1852400000000216,0.1263999999999896,0.2242561428367245,0.5822100000000319,1.1459899999999834,1.2854032690949555,0.851805000000013,0.798290000000037,139.181209,0.624641304844144,106.3871002,0.2894295612116813,95.466,0.4218132048224383,0.0633765199999999,-0.034636008,0.0316706436707062,0,0
29,966.6666666666666,480.10736,97.12653,0.15291183,480.52255,94.598335,0.15720852,481.474,94.299126,0.049495675,481.49896,95.48853,0.8478498,492.48175,94.9435,0.4202405,477.88693,107.4374,0.9921206,499.6952,107.24228,0.98825175,469.89807,123.67934,0.9688553,505.304,124.99078,0.90738165,464.88425,137.6297,0.8799143,502.77554,140.09882,0.7467085,481.40656,140.12375,0.99676824,495.52545,139.85175,0.9960515,481.0431,165.73499,0.9901326,494.9089,165.86053,0.9852858,481.98267,191.64938,0.97384584,495.10544,191.21129,0.9649903,0.9546333,-0.28396613,0.91134458,0.01179098,173.5776459181614,152.96176952561223,177.11049833153305,178.1978337289597,0.5706247079462144,139.98775,107.33984,97.12653,40.419749999999965,97.350254,0.4151992205875574,-0.5126153612976165,0.7657654532352941,-1.299099999999953,0.9786399999999986,1.6264676632506023,-0.3703899999999294,0.1783599999999978,0.4110973627985795,-1.1125199999999609,0.9116450000000073,1.4383314487366694,-0.2387899999999376,0.2350550000000026,0.3350694213517126,-1.258730000000014,0.7362660000000005,1.458248550712819,-0.5230799999999931,0.1026459999999929,0.5330561768856931,-0.7576399999999808,0.9805499999999938,1.239151593672041,-0.2900399999999763,0.4391999999999854,0.5263267441428123,-0.7947100000000091,0.7356139999999982,1.0829090179216403,-0.8102700000000027,0.2513679999999993,0.8483651008404366,-1.795439999999985,0.5727299999999929,1.8845754021794767,-1.6326299999999492,0.0350999999999857,1.6330072648031402,0.0668999999999755,0.4392399999999981,0.444305511557076,-0.0551700000000323,-0.1223140000000029,0.1341806375599858,-1.31347999999997,0.4309399999999925,1.3823671704724163,-0.9325899999999478,0.1555599999999941,0.9454750243660066,0.1545999999999594,-0.265749999999997,0.307447918353639,0.2037999999999442,-0.8623099999999937,0.8860660111413632,-1.1888700000000083,0.0547200000000032,1.1901286297287452,-0.6325900000000502,0.1100999999999885,0.6420997726989638,-1.1542100000000346,-0.4155700000000024,1.2267433101509386,-1.0294900000000666,-1.1194600000000037,1.5208682887417126,-1.856290000000001,-0.2247000000000127,1.869840275023514,-1.387339999999995,-1.1105000000000302,1.777054452063879,-0.6255800000000136,-0.0796599999999898,0.6306314708290535,-0.563510000000008,-0.8974699999999984,1.059715018766841,-1.0361800000000017,-0.0351799999999968,1.036777037168553,0.7859400000000392,-0.3160200000000088,0.847095227232492,1.1872999999999934,0.3262400000000127,1.23130574091084,2.102419999999995,0.1358500000000049,2.1068044709701894,-1.706360000000018,0.8348000000000013,1.8996198276497491,0.0178099999999972,0.5568199999999877,0.5571047554095964,0.5707999999999629,0.9380199999999944,1.098041055880857,0.3855599999999413,0.8116200000000049,0.8985452342536588,-0.1521799999999871,-1.003985,139.449614,0.6253531180800026,106.5536232,0.521946236430714,95.779517,0.8615338183263938,-0.0049129099999999,-0.01886557,0.0311153362448467,0,0
30,1000.0,479.71786,97.89858,0.15025988,480.01382,95.38754,0.15150954,481.01276,95.07566,0.049651008,480.7245,96.209076,0.841417,491.8656,95.60865,0.43047965,477.15054,108.002304,0.9921697,499.2457,107.69348,0.989027,469.0782,123.97336,0.9698371,505.10168,125.22557,0.917586,464.1642,137.66817,0.8842259,502.50018,140.3345,0.76759535,481.22607,140.8261,0.996869,495.4887,140.49254,0.9963133,480.96066,166.66776,0.98991334,494.6264,166.69772,0.9855069,481.8347,192.58961,0.97250193,494.4836,192.05638,0.96423954,1.11458442,-0.41833418,1.03171085,-0.05355071,172.92544685886327,151.76034858121224,177.48037222453885,178.43795998233418,0.2784681254026223,140.65931999999998,107.847892,97.89858,40.93748,97.51395,0.4198115200972627,-0.8007708346378605,0.7675942434117647,-0.389500000000055,0.772049999999993,0.8647377940740373,0.909599999999898,-0.2065900000000056,0.9327655590231754,-0.5087300000000141,0.7892049999999955,0.938962589736677,0.6037899999999468,-0.1224400000000116,0.6160794735258907,-0.4612399999999752,0.7765339999999981,0.903187350861367,0.7974900000000389,0.0402679999999975,0.7985059874065202,-0.7744600000000332,0.7205459999999988,1.0578160661079268,-0.0168200000000524,-0.260003999999995,0.2605474859137949,-0.6161500000000046,0.665149999999997,0.9066781926350724,0.1785600000000045,-0.0704640000000011,0.1919605399450673,-0.7363900000000285,0.5649039999999985,0.9281092399691108,1.0590499999999563,-0.0078259999999943,1.0590789152730349,-0.4495000000000004,0.4512,0.6368922122306101,-0.516399999999976,0.0119600000000019,0.5165384802703233,-0.8198700000000372,0.2940200000000033,0.8709963130232314,0.4936099999999328,-0.1369199999999892,0.5122479072674976,-0.202319999999986,0.2347900000000038,0.3099350359349458,-0.3569199999999455,0.5005400000000009,0.6147618872376214,-0.7200500000000147,0.0384699999999895,0.7210769330661052,0.4688199999999938,-0.0162500000000136,0.4691015400742089,-0.2753599999999778,0.2356800000000021,0.3624475024055053,0.8788500000000568,0.6512500000000045,1.0938482001631238,-0.1804900000000202,0.7023499999999956,0.7251704369318989,1.675799999999981,0.9270500000000084,1.9151311554303407,-0.0367499999999836,0.6407899999999813,0.6418429610114726,0.5888300000000299,0.7204499999999712,0.930467071636602,-0.0824399999999627,0.9327699999999766,0.9364060158392566,0.9537400000000388,0.9679499999999734,1.3588771799173105,-0.2825000000000273,0.8371899999999926,0.8835685293739264,-1.4698000000000206,0.5109499999999798,1.556079028359434,-0.1479699999999866,0.9402299999999856,0.9518022766310074,1.5583900000000313,0.1054299999999841,1.5619522646355406,-0.6218399999999633,0.845089999999999,1.0492197547225046,-1.1926399999999262,-0.0929299999999955,1.196255054116731,0.6715699999999742,0.8237499999999613,139.861947,0.6024383876130607,106.8846826,0.7222361505617761,96.31855,1.191082877951836,-0.06534169,-0.02372935,0.0348208803168425,0,0
31,1033.3333333333337,478.971,99.72389,0.1666965,479.3803,97.15785,0.1808809,480.23422,96.853294,0.05079506,480.4021,97.75334,0.87559843,491.32553,97.12085,0.41661683,476.71008,109.365906,0.9934088,499.14023,108.83158,0.9888629,468.5824,125.679855,0.9733373,505.33377,125.9258,0.9007281,463.25165,139.6738,0.8915867,501.6922,140.27321,0.7336088,480.7002,141.70505,0.99703515,495.3299,141.27667,0.99612576,479.79022,167.37918,0.99072415,494.70468,167.37311,0.98502886,480.83398,193.27646,0.97513944,495.38068,192.6528,0.96473163,1.24269236,-0.52789205,1.1228453,0.06951766,174.37078216300824,145.8419303433883,175.6620967808514,177.09579337471362,0.1596436297327892,141.49086,109.098743,99.72389,42.08212000000003,96.42316599999998,0.4364316305852103,-1.3646291096295515,0.769465018235294,-0.7468599999999697,1.8253100000000015,1.972195846182615,-0.3573599999999146,1.0532600000000087,1.112233247659841,-0.6335200000000327,1.770309999999995,1.8802513359920856,-0.1247900000000186,0.9811049999999994,0.9890093857618356,-0.7785400000000209,1.7776340000000062,1.9406460701416048,-0.3173000000000456,1.001100000000008,1.0501811748455812,-0.3223999999999591,1.5442639999999983,1.5775592102028908,0.452060000000074,0.8237179999999995,0.9396114021892594,-0.5400699999999574,1.512200000000007,1.6057473166410632,0.0760800000000472,0.8470500000000101,0.8504597985207909,-0.4404599999999732,1.3636020000000002,1.4329743284525291,0.2959300000000553,0.7986980000000017,0.8517588039486504,-0.1054700000000252,1.1381000000000083,1.1429766099531629,0.3440299999999752,0.6869000000000085,0.7682371059119669,-0.4957999999999742,1.706495000000004,1.7770601635918204,0.3240700000000629,1.4124750000000006,1.4491745893870214,0.2320900000000278,0.7002299999999906,0.7376908708937638,0.4344100000000139,0.4654399999999867,0.6366682351900398,-0.9125500000000102,2.0056299999999965,2.203474347343305,-0.1924999999999954,1.967160000000007,1.976556276861356,-0.8079799999999864,-0.0612899999999854,0.8103012677393366,-0.5326200000000085,-0.2969699999999875,0.6098157470088827,-0.5258699999999976,0.8789500000000032,1.0242520975814513,-0.3453799999999773,0.1766000000000076,0.3879109490591714,-0.1587999999999851,0.7841300000000047,0.8000483091038957,-0.1220500000000015,0.1433400000000233,0.1882619401260038,-1.170440000000042,0.7114200000000039,1.3696890924586147,-1.0880000000000791,-0.2213499999999726,1.1102881709268817,0.0782800000000065,0.675389999999993,0.6799113254682493,0.3607800000000338,-0.1617999999999995,0.3954003646938433,-1.0007200000000012,0.6868499999999926,1.2137559231163373,-0.8527500000000146,-0.2533799999999928,0.8895976545045637,0.8970799999999599,0.5964200000000233,1.0772508263166736,1.5189199999999232,-0.2486699999999757,1.5391409082016354,0.8315400000000182,0.1599700000000439,140.313197,0.8205792284994688,107.4809186,1.0750121353242006,97.2489,1.6874359768299312,0.12306837,-0.000442162,0.0507340802587816,0,0
32,1066.6666666666667,479.40805,101.70596,0.17279726,479.71188,99.12743,0.18624638,480.43735,98.956436,0.05314616,480.13687,99.354904,0.8681342,490.8795,98.932144,0.40235448,475.98776,110.62614,0.9926508,498.50302,110.07933,0.9864959,466.9868,127.13942,0.9704579,505.0916,126.621826,0.8788842,462.3111,142.02213,0.8830865,501.15253,140.79839,0.6975014,480.32864,142.60913,0.9963714,494.9047,142.24213,0.9950118,479.77087,167.62872,0.9890047,494.08255,167.6792,0.981529,480.7789,192.70709,0.9710702,494.34946,192.2144,0.95783424,1.00112464,-0.36159009,0.93320702,0.02505583,168.84749578315797,142.7551210864099,176.42112030669625,177.52551240541146,0.6633880549516923,142.42563,110.352735,101.70596,42.78050000000002,93.774946,0.4562039368574638,-1.3912230066980384,0.763680971764706,0.4370499999999993,1.9820700000000075,2.029683272680747,1.183909999999969,0.1567600000000055,1.1942431015919364,0.3315800000000308,1.969580000000008,1.9972958400797944,0.9651000000000636,0.1992700000000127,0.9854575297292764,0.2031299999999873,2.103141999999991,2.112928789397305,0.9816700000000084,0.325507999999985,1.0342298811018789,-0.2652300000000309,1.6015640000000104,1.623377404978907,0.0571699999999282,0.0573000000000121,0.0809425654399042,-0.4460300000000075,1.8112939999999893,1.8654030972784323,0.0940399999999499,0.2990939999999824,0.3135294921310914,-0.7223200000000247,1.2602340000000112,1.4525618462413443,-0.2818600000000515,-0.103367999999989,0.3002165935187906,-0.6372099999999818,1.2477499999999964,1.4010412722685823,-0.5317399999999566,0.1096499999999878,0.5429277577173146,-1.5955999999999904,1.4595649999999978,2.162468346409945,-1.099800000000016,-0.2469300000000061,1.1271798724693582,-0.2421699999999873,0.6960260000000034,0.7369521704805534,-0.4742600000000152,-0.0042039999999872,0.4742786324683142,-0.9405499999999734,2.348330000000004,2.5296814209303053,-0.0279999999999631,0.3427000000000078,0.343841954973507,-0.539670000000001,0.525180000000006,0.7530323640455351,0.2683099999999854,0.5864699999999914,0.6449320251003062,-0.3715599999999881,0.9040799999999932,0.9774545922957132,0.1543100000000095,0.0251299999999901,0.1563428700005294,-0.425200000000018,0.9654600000000072,1.0549445727620146,-0.2664000000000328,0.1813300000000026,0.3222569299487886,-0.0193499999999744,0.2495399999999961,0.2502891010411701,1.1510900000000674,-0.4618800000000078,1.2402988843420617,-0.6221299999999701,0.3060900000000117,0.6933518767552086,-0.7004099999999767,-0.3692999999999813,0.791805947249674,-0.0550799999999753,-0.5693699999999922,0.5720279742285235,0.9456400000000258,-1.2562199999999848,1.572362457577772,-1.031219999999962,-0.4384000000000014,1.1205397129954489,-1.928299999999922,-1.0348200000000247,2.1884225648625883,0.9347700000000144,0.1032299999999963,140.940698,1.0168842277121508,108.294613,1.4254346961293942,98.52057,2.211024532801464,-0.0444618299999999,0.0139035299999999,0.044101260267017,0,0
33,1100.0,477.34903,103.01616,0.1891051,478.25095,100.44385,0.23856425,478.93378,100.24296,0.048140936,480.88434,100.75687,0.9093402,491.19196,100.224594,0.33186567,476.59714,112.007614,0.9933537,498.9526,111.40886,0.9823987,465.846,127.88573,0.972961,505.3204,127.51128,0.8121471,461.90033,141.49794,0.8854003,501.12857,140.73697,0.5999592,479.97855,143.70021,0.9958905,494.32318,143.26462,0.9931004,479.37302,167.9813,0.98834723,493.6028,168.13919,0.97594464,480.5105,192.83417,0.9707964,494.09134,192.20712,0.95051515,0.66526268,-0.03488165,0.66397962,-0.02210809,162.0627977658885,140.8375730060877,175.95091692391446,177.17829542165418,1.1251644141004178,143.482415,111.708237,103.01616,43.42007000000001,92.609576,0.4688507539560407,-1.5342058525470066,0.7551664985882353,-2.0590199999999754,1.3101999999999947,2.440530147406478,-2.4960699999999747,-0.6718700000000126,2.584912907971928,-1.460930000000019,1.3164199999999937,1.9665396210857384,-1.7925100000000498,-0.653160000000014,1.9078024231298685,-1.503569999999968,1.286524,1.9788549081415503,-1.7066999999999553,-0.8166179999999912,1.892006830834348,0.7474700000000212,1.4019660000000016,1.5887794264957098,1.012700000000052,-0.1995980000000088,1.032182470110837,0.3124599999999873,1.2924500000000023,1.3296835165181218,0.7584899999999948,-0.5188439999999872,0.918970171679135,0.6093800000000442,1.3814739999999972,1.5099054265337437,1.331700000000069,0.121239999999986,1.3372075484382295,0.4495800000000258,1.3295300000000054,1.4034857310639242,1.0867900000000077,0.081780000000009,1.0898625934034154,-1.140800000000013,0.746309999999994,1.3632326492935902,0.4547999999999774,-0.7132550000000037,0.8459170970165959,0.2287999999999783,0.8894540000000006,0.9184105063183844,0.4709699999999657,0.1934279999999972,0.5091435279800448,-0.4107700000000136,-0.5241900000000044,0.665963324065234,0.5297799999999597,-2.8725200000000086,2.9209652512140583,-0.0239599999999882,-0.0614199999999982,0.0659279758524347,0.5157100000000128,-0.5866000000000042,0.7810610501747082,-0.3500900000000229,1.0910800000000052,1.1458702258545803,0.0214699999999652,0.1870000000000118,0.1882284805761416,-0.5815200000000118,1.0224900000000048,1.176287086769222,-0.1563199999999938,0.0570299999999974,0.1663982070215835,-0.3978500000000053,0.3525800000000174,0.5315987950513211,-0.3785000000000309,0.1030400000000213,0.3922747654387519,-0.4797500000000241,0.4599900000000048,0.6646434101080274,0.142379999999946,0.153899999999993,0.2096599017456187,-0.2684000000000424,0.1270800000000065,0.2969644530916527,-0.213320000000067,0.6964499999999987,0.7283872767285455,-0.2581200000000194,-0.0072800000000086,0.2582226419197398,0.7730999999999426,0.4311199999999928,0.8851825034420332,1.0567849999999908,0.1220149999999762,141.609195,1.389322573549673,109.2694894,1.7954491912990185,99.894224,2.484985434852661,-0.04716392,0.0061411339999999,0.0468172121904632,0,0
34,1133.3333333333333,480.31726,109.46022,0.7202421,481.97464,107.31546,0.73963976,480.06403,107.140884,0.3986777,487.9415,105.65848,0.7185978,480.6456,105.28087,0.14067638,498.01917,113.928764,0.984174,476.79926,112.285965,0.9674867,504.54755,129.65689,0.9748942,466.37427,125.582855,0.8777446,499.81665,142.08646,0.9557942,462.47516,140.29428,0.8509034,493.08548,144.53702,0.9947916,479.91098,143.13995,0.99216664,493.7049,167.55031,0.9893471,478.05685,166.04546,0.980441,492.46332,191.52184,0.97290516,478.62952,189.03677,0.9573002,0.54979527,-0.30681115,0.44682905,-0.09211704,136.62014382019365,156.74729066447782,175.4932871116049,173.9453391434859,1.69802616578378,143.838485,113.1073645,109.46022,42.072389999999984,86.24097,0.4878468958796856,-175.57311623214852,0.8362225023529413,2.9682299999999486,6.444060000000008,7.094807863254634,5.027249999999924,5.133860000000013,7.185385241036097,3.723690000000033,6.871610000000004,7.815682389158371,5.184620000000052,5.55519000000001,7.598711764536188,1.1302499999999895,6.897924000000003,6.989908480965686,2.6338199999999574,5.611400000000003,6.198775504275003,7.05716000000001,4.901609999999991,8.592397096136796,6.309689999999989,3.4996439999999893,7.215240538113458,-10.546359999999993,5.056275999999997,11.695795665014664,-10.85881999999998,3.7638259999999946,11.492621891921596,21.42202999999995,1.9211499999999968,21.508002851110977,20.812649999999906,0.539676,20.819645775264096,-22.15334000000001,0.8771050000000002,22.17069656859309,-22.60292000000004,-0.4524250000000052,22.60744746553725,38.70155,1.771160000000009,38.74205699428077,39.84235000000001,1.024850000000015,39.85552873874591,-38.94612999999998,-1.9284250000000045,38.99384393667189,-39.17492999999996,-2.817879000000005,39.27614521008316,37.91631999999999,0.5885199999999884,37.92088709580512,38.32709,1.1127099999999928,38.34323866618729,-38.65341000000001,-0.4426900000000273,38.65594493818772,-38.62945000000002,-0.3812700000000291,38.631331508445335,13.106930000000034,0.836810000000014,13.133615838793247,13.457020000000057,-0.2542699999999911,13.45942199774201,-14.412199999999984,-0.1246700000000089,14.412739206996688,-13.830679999999973,-1.1471600000000135,13.87817298234891,14.331880000000012,-0.4309900000000084,14.338358926826333,14.729730000000018,-0.7835700000000259,14.750556864667876,-15.545950000000005,-2.093730000000022,15.686308256419045,-15.06619999999998,-2.553720000000027,15.281095126933788,11.952820000000033,-1.3123300000000029,12.024646189443612,12.221220000000072,-1.4394100000000094,12.305694593825326,-15.461819999999989,-3.1703500000000133,15.78350394668116,-15.20369999999997,-3.1630700000000047,15.529246778736535,0.3560699999999883,-0.7007150000000024,142.379342,1.3319052952001302,110.4229943,2.0765007764749805,102.360962,4.419411104346346,-0.07000895,-0.01464047,0.0637000355240754,0,0
35,1166.6666666666667,480.5091,111.852646,0.8121037,482.28424,109.592094,0.81481886,479.5232,109.5571,0.55688167,487.7685,107.486046,0.7484889,478.9359,107.46904,0.21812338,497.63843,114.90536,0.98787814,475.0016,114.140465,0.9792371,504.61194,130.1611,0.9762123,466.0598,128.19447,0.9108738,500.63254,142.92632,0.9578374,462.70804,143.50218,0.8815956,493.06906,143.87993,0.994503,479.04593,142.92273,0.9925633,493.00116,166.01328,0.98698807,476.82495,164.84877,0.9785836,490.72238,190.04556,0.96490145,477.55624,188.12694,0.94918644,0.77895594,-0.30853067,0.71433694,-0.03610988,138.12028998346537,159.8841292956504,174.75908450399666,172.4166286091835,0.5210526149391861,143.40133,114.5229125,111.852646,41.90390000000002,82.57651999999999,0.5074553818996568,-178.06472074615633,0.8653398064705882,0.1918400000000133,2.392425999999986,2.4001051541705287,-2.7763899999999357,-4.051634000000021,4.91162697097976,0.309599999999989,2.2766340000000014,2.2975888513735434,-3.4140900000000443,-4.594976000000003,5.724492551194064,-0.5408300000000281,2.4162160000000057,2.476004209922927,-1.6710800000000177,-4.481707999999998,4.783117703304408,-0.1730000000000018,1.8275660000000045,1.8357359516978515,-7.230160000000012,-3.0740439999999865,7.856523413033025,-1.709699999999998,2.1881700000000137,2.776897916542856,8.836659999999995,-2.868105999999983,9.290457038425815,-0.3807399999999461,0.9765960000000008,1.048190199732835,-21.802769999999896,-0.9445539999999966,21.823220704832075,-1.7976600000000076,1.8545000000000016,2.582779844586068,20.355680000000007,0.9773950000000012,20.379131709874816,0.064390000000003,0.5042100000000005,0.5083048260640468,-38.63716,-1.2669500000000085,38.65792667963583,-0.3144700000000284,2.6116150000000005,2.63047985909891,38.631659999999954,4.540040000000005,38.89752071221502,0.8158900000000244,0.8398600000000158,1.1709147328905152,-37.10042999999996,0.2513400000000274,37.101281352272686,0.232879999999966,3.2079000000000235,3.2163419445699697,38.88628999999997,3.650590000000051,39.057270223508944,-0.0164200000000391,-0.6570900000000108,0.6572951273971347,-13.123350000000071,-1.4939000000000249,13.208105558046618,-0.8650499999999965,-0.2172199999999975,0.8919058419474518,13.547149999999988,-0.0925499999999885,13.547466133008037,-0.703739999999982,-1.5370299999999872,1.6904766216957676,-15.035619999999994,-1.1060399999999788,15.076245993814236,-1.231899999999996,-1.1966899999999896,1.7174529298062189,14.314050000000009,0.8970400000000325,14.3421305308556,-1.7409400000000232,-1.4762800000000027,2.2826026202561165,-13.693760000000054,-0.1639499999999998,13.694741419249269,-1.0732800000000111,-0.9098299999999996,1.4070254394644124,14.388539999999978,2.260520000000014,14.56502777209846,-0.4371549999999899,-0.7932249999999783,142.927744,0.9589247735313357,111.7579984,2.151419273116393,105.1517752,5.228785673852475,0.05600716,-0.0111523039999999,0.0614753413608794,0,0
36,1200.0,478.48923,114.9075,0.8602045,480.31744,112.70555,0.8573837,477.6728,112.63561,0.6007608,486.5171,110.665565,0.79249835,478.16495,110.53119,0.21247104,497.38504,118.37172,0.9884016,475.36996,116.71266,0.97834355,504.68228,135.01524,0.97407985,465.98672,129.5182,0.90050465,501.38208,151.23454,0.95447403,464.07538,145.70844,0.8754148,493.52048,144.70021,0.9922801,480.12988,143.33476,0.9894264,492.80273,164.78792,0.9819567,477.73444,163.1655,0.9701863,489.81476,187.92729,0.9503591,478.99524,185.25443,0.9273908,0.9902595,-0.21371153,0.96145625,-0.10267979,144.82409901398603,150.50085298701111,174.68850556885658,169.84556232248502,0.9688699599887188,144.017485,117.54219,114.9075,40.6069,77.3961,0.5246633806527282,-175.69032687527783,0.8709491923529411,-2.019869999999969,3.054854000000006,3.6622408137936415,-2.2117099999999823,0.6624280000000198,2.308781492320992,-1.9668000000000347,3.113456,3.682649929593652,-2.276400000000024,0.836821999999998,2.425338743285998,-1.8503999999999792,3.0785099999999943,3.591824603192629,-1.309569999999951,0.6622939999999886,1.4675172664523768,-1.2513999999999896,3.179518999999999,3.416920109010594,-1.0783999999999878,1.3519529999999946,1.7293708318949292,-0.7709500000000276,3.0621499999999884,3.157709062754194,0.9387499999999704,0.8739799999999747,1.282611633698954,-0.2533900000000244,3.4663599999999946,3.475609031766947,0.1273499999999217,2.489763999999994,2.4930188122426893,0.3683599999999956,2.5721949999999936,2.598437262591684,2.166020000000003,0.717694999999992,2.281825750013573,0.0703399999999874,4.854140000000001,4.854649611990551,0.0059499999999843,4.3499300000000005,4.349934069316454,-0.0730800000000044,1.3237300000000118,1.3257457521335048,0.2413900000000239,-1.2878849999999886,1.3103117588287845,0.7495399999999677,8.308220000000006,8.341961986247602,-0.0663500000000567,7.46835999999999,7.468654725725367,1.3673400000000129,2.206259999999986,2.595612040193984,1.1344600000000469,-1.0016400000000374,1.513367827463033,0.4514200000000414,0.8202799999999968,0.9362901766012672,0.4678400000000806,1.4773700000000076,1.54967621860184,1.0839500000000155,0.4120299999999872,1.1596190423583184,1.9490000000000125,0.6292499999999848,2.048061659838402,-0.1984300000000303,-1.225359999999995,1.24132251832471,0.5053099999999517,0.3116699999999923,0.5936972166011447,0.9094900000000052,-1.6832699999999932,1.9132616007749663,2.141390000000001,-0.4865800000000035,2.195976144793019,-0.9076200000000084,-2.1182699999999954,2.3045263845961923,0.8333200000000147,-0.6419899999999927,1.0519379176073156,1.4390000000000214,-2.872509999999977,3.212792352471589,2.5122800000000325,-1.9626799999999776,3.188050122065222,0.616154999999992,1.053309999999982,143.433069,0.6173086595594909,113.4466878,2.7677289105720875,108.1884972,5.678129634722939,-0.06656991,-0.045591794,0.0525740326258244,0,0
37,1233.3333333333337,482.47293,121.1676,0.89448535,484.30298,118.58122,0.86015224,480.52313,118.61499,0.73358697,489.32794,115.07007,0.7305326,478.86716,115.118744,0.36448556,498.05566,121.07965,0.9888602,474.91742,120.62526,0.9857056,503.97552,138.94173,0.9646316,468.0096,138.29195,0.92662096,501.442,158.48436,0.9392958,467.43262,161.4766,0.8924883,492.9265,145.39537,0.99194396,478.4692,144.76987,0.9909315,494.77838,165.35277,0.98192763,476.60553,164.47777,0.97622126,490.3802,189.39395,0.95247203,474.84604,187.94443,0.9412033,0.95484926,-0.12896386,0.88309536,-0.339482,154.2770771724686,160.06968090888762,164.33135826009186,178.8858210204865,1.8643875799710996,145.08262000000002,120.852455,121.1676,36.54290000000003,74.32387999999999,0.4916710417745817,-178.87496701355877,0.8891496976470588,3.983699999999999,6.260099999999994,7.420156177601649,6.003569999999968,3.2052459999999883,6.805619344733845,3.9855400000000154,5.87567,7.099861057830647,5.952340000000049,2.762214,6.562025423403706,2.8503299999999854,5.979380000000006,6.623999267308232,4.7007299999999645,2.900870000000012,5.523758619798636,2.8108399999999847,4.404505,5.224986679468659,4.062239999999974,1.2249860000000012,4.242921695930269,0.7022100000000364,4.587554000000012,4.640985949883511,1.473160000000064,1.525404000000023,2.1206267349102856,0.6706199999999853,2.7079300000000046,2.78973404992304,0.9240100000000098,-0.75842999999999,1.195412290801798,-0.452539999999999,3.9125999999999976,3.938683944111279,-0.8208999999999946,1.340405000000004,1.5718022693790088,-0.7067599999999743,3.926490000000001,3.9895906328469306,-0.7770999999999617,-0.92765,1.2101317831128724,2.0228799999999865,8.773750000000007,9.003928728999362,2.095959999999991,7.450019999999995,7.739240681229645,0.0599200000000337,7.24982,7.250067616153659,-0.689619999999934,-1.058400000000006,1.2632443565676126,3.3572399999999902,15.768159999999996,16.12159825213368,1.9898999999999771,13.561900000000009,13.707108871676777,-0.5939800000000446,0.6951600000000155,0.9143629837214948,-1.045400000000086,-0.1251199999999812,1.0528609473240875,-1.6606800000000137,1.4351100000000088,2.194857347186844,-2.744630000000029,1.0230800000000215,2.929110193096225,1.97565000000003,0.5648499999999785,2.0548110484908566,2.1740800000000604,1.7902099999999734,2.816287572408075,-1.128910000000019,1.3122699999999838,1.7310373597932542,-2.038400000000024,2.995539999999977,3.623304355364032,0.5654400000000237,1.4666599999999903,1.5718822949572269,1.4730600000000322,3.5849299999999857,3.8757746152866,-4.149200000000008,2.6899999999999977,4.944892379010898,-5.588200000000029,5.562509999999975,7.884763581750568,1.0651350000000264,0.4489800000000343,143.964467,0.6742488256438958,115.5466318,3.6696496142668034,112.0808252,6.701629638389068,-0.23680221,-0.1184993599999999,0.1283149602850543,0,0
38,1266.6666666666663,484.24167,126.731735,0.9499892,486.28674,123.40115,0.91333145,480.82263,124.01218,0.90472186,490.84778,118.521,0.6780294,476.91968,120.27869,0.654324,499.56638,122.315155,0.9920546,471.95728,125.18149,0.9959369,506.32602,141.17143,0.9715917,467.74454,146.77751,0.9834145,502.6237,159.54572,0.96169394,469.92328,168.65265,0.97208947,496.36862,142.7177,0.9953969,479.23267,143.84448,0.99675936,496.31784,162.30534,0.99009424,478.54117,163.01492,0.9917504,489.10208,190.12665,0.9763234,479.83664,191.17276,0.97937304,0.82047037,-0.15254582,0.76543119,-0.2530148,148.88589513388027,163.27407693471898,165.6086240318981,175.29999482460147,5.958938318958645,143.28109,123.7483225,126.731735,38.581480000000056,72.65176000000001,0.5310467285163267,174.0728727176804,0.935698491764706,1.7687399999999798,5.564135000000007,5.838496337741852,-2.214960000000019,-0.6959649999999868,2.321726745942568,1.983760000000018,4.819929999999999,5.212200009832706,-2.001779999999997,-1.05574,2.263119554066905,0.2995000000000232,5.397189999999995,5.405493515498836,-2.550829999999962,-0.5821900000000113,2.616424828845618,1.519839999999988,3.45093,3.7707865877691833,-1.2909999999999968,-0.9535750000000008,1.6049879378440803,-1.9474799999999848,5.159945999999991,5.515226293935349,-2.649690000000021,0.5723919999999794,2.710809786348737,1.510719999999992,1.2355050000000034,1.9516012716292703,0.8401000000000067,-1.4724250000000012,1.6952295982034455,-2.960139999999967,4.556229999999999,5.433383902550951,-2.507599999999968,0.6436300000000017,2.58888341508455,2.350500000000011,2.22969999999998,3.239816713951572,3.057259999999985,-1.6967900000000211,3.496560454460924,-0.2650600000000054,8.485559999999992,8.489698776588005,-2.287939999999992,-0.2881900000000144,2.306018846345357,1.181699999999978,1.0613599999999792,1.5883639191318544,1.1217799999999445,-6.1884600000000205,6.289310577479866,2.490659999999991,7.176050000000004,7.595991103081942,-0.866579999999999,-8.592109999999991,8.635700038126606,3.4421200000000454,-2.677670000000006,4.360975432549505,4.03610000000009,-3.3728300000000218,5.259856026442252,0.7634699999999839,-0.925389999999993,1.1996804128600094,2.4241499999999974,-2.360500000000002,3.3835578127911448,1.5394599999999627,-3.0474299999999914,3.4142007405101173,-0.4361900000000673,-3.61227999999997,3.6385200995047207,1.9356400000000349,-1.462850000000003,2.426238309008442,3.064550000000054,-2.775119999999987,4.1343388488245925,-1.2781200000000013,0.7327000000000226,1.4732413327082687,-1.843560000000025,-0.7339599999999677,1.9842909955951635,4.990599999999972,3.22833,5.943753271199917,9.13979999999998,0.538330000000002,9.155639968287288,-1.8015300000000136,-2.86666500000004,143.92420199999998,0.7150121603561498,117.9546489,4.39906345414258,116.8239402,7.064748093599289,0.0864672,-0.1646807019999999,0.1264895855924472,0,0
39,1300.0,484.16415,128.65402,0.906363,486.0891,126.00514,0.8616038,481.5513,126.191025,0.78455615,490.24155,122.66556,0.7067749,478.5578,123.223465,0.45758983,497.4609,127.30209,0.98824185,473.91702,128.48102,0.9860028,502.92505,143.46066,0.9573878,468.39932,146.44366,0.923897,500.3731,158.23607,0.93223524,472.07544,165.08594,0.89169234,493.66916,147.00821,0.9909609,479.11972,147.55217,0.99010277,496.7424,171.18237,0.98186743,483.3189,171.51093,0.9773456,490.90347,195.50795,0.95329803,483.70895,195.54399,0.9443402,0.7791897,-0.1940599,0.75462279,0.00466726,151.5173986772203,151.769090092784,159.25740703812562,170.9887243487703,2.083941219143605,147.28019,127.891555,128.65402,34.52573000000001,72.87843000000001,0.4737441452327645,177.13338063991347,0.89613292,-0.0775199999999927,1.9222850000000025,1.9238474397999985,-1.8462599999999725,-3.641850000000005,4.083105118668871,-0.1976400000000353,2.603989999999996,2.611479559502619,-2.1814000000000533,-2.215940000000004,3.109484851804274,0.7286700000000224,2.1788449999999955,2.297460664064787,0.4291699999999991,-3.218345,3.246834062271276,-0.6062299999999823,4.144559999999999,4.188662364824833,-2.12606999999997,0.6936299999999989,2.2363578027229614,1.638119999999958,2.944775000000007,3.369738407506569,3.5855999999999426,-2.215170999999984,4.214677914057078,-2.10548,4.986935000000003,5.413184527117566,-3.616199999999992,3.751429999999999,5.210578613253996,1.9597399999999536,3.2995300000000043,3.837639780972134,4.919879999999921,-1.256699999999995,5.0778454195061125,-3.4009700000000294,2.2892300000000034,4.099654977409711,-5.75147000000004,0.0595300000000236,5.751778071327203,0.6547800000000166,-0.3338500000000124,0.7349780070859467,0.919840000000022,-8.819410000000005,8.86724863605956,-2.250599999999963,-1.3096499999999764,2.603916950000474,-3.432299999999941,-2.371009999999956,4.17161500022466,2.1521600000000376,-3.5667100000000005,4.1657187722769,-0.3384999999999536,-10.742760000000004,10.748091675623169,-2.6994600000000446,4.290509999999983,5.069078846467088,-6.14158000000009,6.96817999999999,9.288408766241986,-0.1129500000000121,3.707689999999985,3.709410039157156,-0.876419999999996,4.633079999999978,4.715245730903088,0.4245599999999854,8.87702999999999,8.88717687539186,-1.1148999999999774,11.924459999999982,11.976466436374274,4.777729999999963,8.496010000000012,9.747250375003192,2.842089999999928,9.958860000000016,10.356465037246052,1.8013900000000262,5.381299999999982,5.674803575640297,3.0795100000000275,4.648599999999959,5.576097542197392,3.8723100000000272,4.371229999999997,5.839729141749657,-1.118289999999945,1.1428999999999974,1.5989974778278642,3.999099999999999,5.800630000000012,144.61254300000002,1.6531190934472129,120.911487,5.218680775156869,120.6627002,7.2747626027682095,0.25768206,-0.1453238419999999,0.1462346300460336,0,0
40,1333.3333333333333,486.3787,135.74469,0.89478207,488.50803,132.48596,0.8210744,483.26053,132.7319,0.8212467,492.86835,127.24904,0.54915303,478.76697,127.86467,0.57781875,499.40695,129.56883,0.9829266,472.67838,131.99478,0.9870591,505.11896,148.86296,0.92853254,470.3286,156.91864,0.9346029,501.98148,168.0719,0.88692975,472.54007,182.58536,0.8875428,495.06757,149.30534,0.98714256,478.1487,150.51324,0.9887581,498.61993,162.9258,0.9783236,479.48035,163.93585,0.9788977,493.5662,191.91101,0.9541173,481.15765,193.24707,0.95487505,0.75534794,-0.24097818,0.70868709,-0.10120592,154.23220320823046,169.68966929255427,155.49188005701745,177.609364255159,1.693455664085716,149.90929,130.781805,135.74469,34.79036000000002,65.99803000000001,0.5271423930813938,174.81390529872067,0.8890460558823529,2.2145499999999743,7.090669999999989,7.428447533058285,2.292069999999967,5.1683849999999865,5.653829533433486,2.4189300000000458,6.4808200000000085,6.917532090080995,2.616570000000081,3.876830000000013,4.677205299513859,1.709229999999991,6.540875,6.760511294164441,0.9805599999999686,4.362030000000004,4.470883988038604,2.626800000000003,4.583479999999994,5.282837036138817,3.233029999999985,0.438919999999996,3.26268811676812,0.2091700000000287,4.641204999999999,4.64591604970699,-1.428949999999929,1.6964299999999923,2.2180560965403404,1.9460500000000136,2.2667399999999844,2.987510808365383,4.051530000000014,-2.720195000000018,4.879995510133715,-1.238639999999975,3.5137599999999907,3.7256862974759257,-3.198379999999929,0.2142299999999863,3.205546617552073,2.1939100000000167,5.402299999999997,5.830787800812172,5.594880000000046,3.1130699999999933,6.402646877604642,1.9292800000000057,10.474980000000016,10.65116553804326,1.274499999999989,10.808830000000029,10.883710590552312,1.6083799999999542,9.835829999999987,9.966465673110983,3.858979999999917,11.145479999999964,11.794636538308358,0.4646299999999996,17.499420000000015,17.505587147345288,-1.687530000000038,21.066130000000012,21.133612816501604,1.3984100000000126,2.29713000000001,2.6893041414090897,4.097870000000057,-1.9933799999999733,4.556983910581686,-0.9710199999999533,2.9610700000000065,3.116218122227638,-0.858069999999941,-0.7466199999999787,1.1374205683474636,1.877530000000036,-8.256569999999982,8.4673530141243,1.4529700000000505,-17.133599999999973,17.19509728907921,-3.838549999999998,-7.575080000000014,8.492131835346187,-8.61627999999996,-16.071090000000027,18.23513681951688,2.6627299999999536,-3.5969399999999894,4.475277468101802,0.8613399999999274,-8.978239999999971,9.019462295125988,-2.551300000000026,-2.29692,3.432924871942311,-6.423610000000053,-6.668149999999997,9.258887074297895,2.629099999999994,-1.3700000000000043,145.91413500000002,2.694855938951074,124.1632655,5.3074827448078015,125.441109,7.864033502715371,-0.10587318,-0.1583430499999999,0.1366651663372251,0,0
