frame_id,timestamp_ms,nose_x,nose_y,nose_conf,left_eye_x,left_eye_y,left_eye_conf,right_eye_x,right_eye_y,right_eye_conf,left_ear_x,left_ear_y,left_ear_conf,right_ear_x,right_ear_y,right_ear_conf,left_shoulder_x,left_shoulder_y,left_shoulder_conf,right_shoulder_x,right_shoulder_y,right_shoulder_conf,left_elbow_x,left_elbow_y,left_elbow_conf,right_elbow_x,right_elbow_y,right_elbow_conf,left_wrist_x,left_wrist_y,left_wrist_conf,right_wrist_x,right_wrist_y,right_wrist_conf,left_hip_x,left_hip_y,left_hip_conf,right_hip_x,right_hip_y,right_hip_conf,left_knee_x,left_knee_y,left_knee_conf,right_knee_x,right_knee_y,right_knee_conf,left_ankle_x,left_ankle_y,left_ankle_conf,right_ankle_x,right_ankle_y,right_ankle_conf,acc_x,acc_y,acc_z,acc_mag,left_elbow_angle,right_elbow_angle,left_knee_angle,right_knee_angle,spine_angle,hip_height,shoulder_height,head_height,bbox_width,bbox_height,bbox_aspect_ratio,shoulder_tilt,avg_confidence,nose_vx,nose_vy,nose_speed,nose_ax,nose_ay,nose_accel,left_eye_vx,left_eye_vy,left_eye_speed,left_eye_ax,left_eye_ay,left_eye_accel,right_eye_vx,right_eye_vy,right_eye_speed,right_eye_ax,right_eye_ay,right_eye_accel,left_ear_vx,left_ear_vy,left_ear_speed,left_ear_ax,left_ear_ay,left_ear_accel,right_ear_vx,right_ear_vy,right_ear_speed,right_ear_ax,right_ear_ay,right_ear_accel,left_shoulder_vx,left_shoulder_vy,left_shoulder_speed,left_shoulder_ax,left_shoulder_ay,left_shoulder_accel,right_shoulder_vx,right_shoulder_vy,right_shoulder_speed,right_shoulder_ax,right_shoulder_ay,right_shoulder_accel,left_elbow_vx,left_elbow_vy,left_elbow_speed,left_elbow_ax,left_elbow_ay,left_elbow_accel,right_elbow_vx,right_elbow_vy,right_elbow_speed,right_elbow_ax,right_elbow_ay,right_elbow_accel,left_wrist_vx,left_wrist_vy,left_wrist_speed,left_wrist_ax,left_wrist_ay,left_wrist_accel,right_wrist_vx,right_wrist_vy,right_wrist_speed,right_wrist_ax,right_wrist_ay,right_wrist_accel,left_hip_vx,left_hip_vy,left_hip_speed,left_hip_ax,left_hip_ay,left_hip_accel,right_hip_vx,right_hip_vy,right_hip_speed,right_hip_ax,right_hip_ay,right_hip_accel,left_knee_vx,left_knee_vy,left_knee_speed,left_knee_ax,left_knee_ay,left_knee_accel,right_knee_vx,right_knee_vy,right_knee_speed,right_knee_ax,right_knee_ay,right_knee_accel,left_ankle_vx,left_ankle_vy,left_ankle_speed,left_ankle_ax,left_ankle_ay,left_ankle_accel,right_ankle_vx,right_ankle_vy,right_ankle_speed,right_ankle_ax,right_ankle_ay,right_ankle_accel,hip_velocity,hip_acceleration,hip_height_mean_5,hip_height_std_5,shoulder_height_mean_5,shoulder_height_std_5,head_height_mean_5,head_height_std_5,acc_mag_diff,acc_mag_mean_5,acc_mag_std_5,label_binary,label_3class
0,0.0,544.51697,115.38306,0.7794987,546.3771,111.13783,0.7858936,543.88245,112.95697,0.2559774,555.0227,107.28024,0.869585,549.95966,110.274994,0.116881005,574.6086,121.21176,0.99557614,557.0255,123.11966,0.946486,586.7135,155.06651,0.99394774,559.85834,152.27063,0.8260528,563.77246,168.74496,0.98532563,551.7349,169.51361,0.81607705,585.83185,170.82068,0.99701416,574.9887,169.53532,0.9896729,544.3482,182.53458,0.9935853,534.4459,181.92368,0.9771524,568.3681,220.44444,0.976344,560.4898,216.64326,0.94954425,1.03653108,0.02751229,0.91281845,-0.4903083,101.13053171188892,149.223660431834,73.40971828477548,70.11683900136885,16.906532332977545,170.178,122.16571,115.38306,52.2675999999999,113.16419999999998,0.4618739808006943,173.8072010371625,0.8385067102941177,0.0,0.0,0.0,0.0,0.0,0.0,0.0,0.0,0.0,0.0,0.0,0.0,0.0,0.0,0.0,0.0,0.0,0.0,0.0,0.0,0.0,0.0,0.0,0.0,0.0,0.0,0.0,0.0,0.0,0.0,0.0,0.0,0.0,0.0,0.0,0.0,0.0,0.0,0.0,0.0,0.0,0.0,0.0,0.0,0.0,0.0,0.0,0.0,0.0,0.0,0.0,0.0,0.0,0.0,0.0,0.0,0.0,0.0,0.0,0.0,0.0,0.0,0.0,0.0,0.0,0.0,0.0,0.0,0.0,0.0,0.0,0.0,0.0,0.0,0.0,0.0,0.0,0.0,0.0,0.0,0.0,0.0,0.0,0.0,0.0,0.0,0.0,0.0,0.0,0.0,0.0,0.0,0.0,0.0,0.0,0.0,0.0,0.0,0.0,0.0,0.0,0.0,0.0,0.0,170.178,0.0,122.16571,0.0,115.38306,0.0,0.0,-0.4903083,0.0,0,0
1,33.333333333333336,543.0553,116.89485,0.7838921,544.9421,112.6692,0.8065091,542.5871,114.48242,0.24795893,553.9547,108.17949,0.8851771,549.2048,111.160645,0.104850404,573.6403,121.35022,0.9958729,556.7088,123.34047,0.93717474,585.66156,155.3105,0.99442405,559.73083,152.95914,0.78913283,562.9128,169.34256,0.9859703,551.6845,171.35919,0.7846855,585.02795,171.549,0.9968021,574.6939,170.298,0.9875616,542.95056,182.60902,0.99318945,533.88104,182.07831,0.97272646,567.93384,220.6632,0.9750533,560.88873,216.7574,0.94271266,1.063284,0.05993749,0.93296138,-0.5065209,102.17448057557326,150.55447228418498,71.44138827726097,68.18930475644616,16.821366124703594,170.9235,122.345345,116.89485,51.78052000000002,112.48371,0.460337941730959,173.29580802890615,0.8343349131764706,-1.4616700000000264,1.5117900000000049,2.102852394487091,-1.4616700000000264,1.5117900000000049,2.102852394487091,-1.4350000000000591,1.5313700000000097,2.098646963379072,-1.4350000000000591,1.5313700000000097,2.098646963379072,-1.295349999999985,1.5254500000000064,2.001231951823671,-1.295349999999985,1.5254500000000064,2.001231951823671,-1.0679999999999836,0.899249999999995,1.3961642319225758,-1.0679999999999836,0.899249999999995,1.3961642319225758,-0.7548600000000079,0.8856509999999957,1.1636972602017264,-0.7548600000000079,0.8856509999999957,1.1636972602017264,-0.9682999999999992,0.1384599999999949,0.9781493043497996,-0.9682999999999992,0.1384599999999949,0.9781493043497996,-0.3166999999999689,0.2208100000000001,0.3860776425798059,-0.3166999999999689,0.2208100000000001,0.3860776425798059,-1.051939999999945,0.2439899999999966,1.07986521552455,-1.051939999999945,0.2439899999999966,1.07986521552455,-0.1275100000000293,0.6885099999999795,0.7002176948635184,-0.1275100000000293,0.6885099999999795,0.7002176948635184,-0.8596600000000763,0.5975999999999999,1.0469675618662362,-0.8596600000000763,0.5975999999999999,1.0469675618662362,-0.0504000000000814,1.8455800000000124,1.8462680456531912,-0.0504000000000814,1.8455800000000124,1.8462680456531912,-0.8038999999999987,0.7283199999999965,1.0847604493158811,-0.8038999999999987,0.7283199999999965,1.0847604493158811,-0.2948000000000093,0.7626799999999889,0.8176721973994154,-0.2948000000000093,0.7626799999999889,0.8176721973994154,-1.397640000000024,0.0744399999999814,1.3996209784081062,-1.397640000000024,0.0744399999999814,1.3996209784081062,-0.564860000000067,0.1546299999999973,0.5856426013364079,-0.564860000000067,0.1546299999999973,0.5856426013364079,-0.4342599999999947,0.2187600000000031,0.4862485837511476,-0.4342599999999947,0.2187600000000031,0.4862485837511476,0.3989300000000639,0.1141399999999919,0.4149374464904911,0.3989300000000639,0.1141399999999919,0.4149374464904911,0.7454999999999927,0.7454999999999927,170.55075,0.527148105374566,122.2555275,0.1270211266384437,116.138955,1.0689969607300092,-0.0162126,-0.4984146,0.011464039400665,0,0
2,66.66666666666667,542.66016,117.42119,0.8334434,544.7596,113.089516,0.862238,541.7838,114.95926,0.30890837,553.9,108.11813,0.9107343,547.92194,111.22894,0.119457506,572.51624,121.391174,0.9966168,556.6401,123.43034,0.9373037,584.7842,155.50719,0.9948649,560.9679,153.02441,0.7576973,562.0007,169.53024,0.98638374,551.793,171.7348,0.7562424,583.705,171.94525,0.9965318,574.0951,170.80183,0.98513293,541.7176,182.86752,0.99257773,533.54626,182.78618,0.96730685,567.8236,220.78645,0.97297704,561.5494,217.31876,0.9340647,1.03239971,0.09481914,0.91822265,-0.46230472,101.8335949295137,145.55844573839678,70.03510657688915,67.42595960790992,16.304488551844727,171.37354,122.410757,117.42119,51.237940000000094,112.66832,0.4547679378305468,172.68087854361625,0.8419106744705883,-0.3951399999999694,0.5263399999999905,0.6581560720679904,1.066530000000057,-0.9854500000000144,1.4521012166512877,-0.1825000000000045,0.4203159999999997,0.4582267886712882,1.2525000000000546,-1.11105400000001,1.6742751389530213,-0.803299999999922,0.4768399999999957,0.9341666208979372,0.4920500000000629,-1.0486100000000107,1.158316077156872,-0.0547000000000252,-0.0613600000000076,0.0822018223642499,1.0132999999999583,-0.9606100000000026,1.3962623185132228,-1.282860000000028,0.068294999999992,1.284676607798659,-0.52800000000002,-0.8173560000000037,0.9730646590725752,-1.1240599999999858,0.0409540000000134,1.124805811558586,-0.1557599999999865,-0.0975059999999814,0.1837623400917397,-0.0687000000000352,0.0898700000000047,0.1131207624620949,0.2479999999999336,-0.1309399999999954,0.2804447959937318,-0.8773599999999533,0.196690000000018,0.8991371006136523,0.1745799999999917,-0.0472999999999785,0.1808741728384544,1.237070000000017,0.0652699999999981,1.2387906836104483,1.3645800000000463,-0.6232399999999814,1.500168881826344,-0.9120999999998958,0.1876800000000003,0.9312089950165912,-0.0524399999998195,-0.4099199999999996,0.4132606441460168,0.1085000000000491,0.3756099999999946,0.3909669066558021,0.1589000000001306,-1.4699700000000178,1.478533398642078,-1.3229499999999916,0.3962499999999807,1.381018017623218,-0.5190499999999929,-0.3320700000000158,0.616184540052737,-0.5987999999999829,0.5038299999999936,0.7825638050024887,-0.3039999999999736,-0.2588499999999953,0.3992734933601047,-1.2329600000000482,0.2585000000000264,1.2597668878011252,0.1646799999999757,0.1840600000000449,0.2469768936560838,-0.3347800000000234,0.707870000000014,0.7830437952630973,0.2300800000000435,0.5532400000000166,0.5991755201942403,-0.1102399999999761,0.1232500000000129,0.1653584594146847,0.3240200000000186,-0.0955099999999902,0.3378033755012081,0.6606699999999819,0.5613600000000076,0.8669543808644055,0.2617399999999179,0.4472200000000157,0.518182936808972,0.4500400000000013,-0.2954599999999914,170.82501333333337,0.6038242215523764,122.30727066666668,0.1268828167890891,116.56636666666668,1.0580262045116475,0.04421618,-0.4863779733333333,0.0223685771614587,0,0
3,100.0,541.92065,118.22534,0.85643727,544.1235,113.894485,0.8780059,540.8824,115.77675,0.351791,553.34393,109.01198,0.91510195,546.5079,112.20705,0.13352534,571.91156,122.31938,0.9968907,555.31396,124.5316,0.94574356,583.9768,155.96326,0.9950859,559.37756,153.55891,0.7820331,560.4557,170.2275,0.9871135,550.06506,172.4143,0.77849215,583.82996,171.87166,0.9965953,573.669,170.81981,0.98591936,542.36127,182.9276,0.9923844,533.6055,182.83315,0.9675465,568.6052,220.79579,0.9714516,561.93835,217.30804,0.9319409,0.98052358,0.09924076,0.89193859,-0.39499787,101.50582817903458,145.74648851845274,70.20508873862693,67.27701237873094,17.529932803739968,171.345735,123.42549,118.22534,50.37130000000002,111.78381000000002,0.4506135508298247,172.40804743993837,0.8509446135294118,-0.7395099999999957,0.804150000000007,1.0924890217297405,-0.3443700000000262,0.2778100000000165,0.442458012697281,-0.6360999999999422,0.8049689999999998,1.025962134272472,-0.4535999999999376,0.3846530000000001,0.5947359837851948,-0.9014000000000806,0.8174900000000065,1.2168861327585898,-0.0981000000001586,0.3406500000000108,0.3544940514311043,-0.556069999999977,0.8938500000000005,1.0527020791277917,-0.5013699999999517,0.955210000000008,1.0787947075324231,-1.41404,0.9781100000000008,1.7193627580298467,-0.1311799999999721,0.9098150000000088,0.9192233279377808,-0.6046800000000303,0.9282059999999888,1.107792526078785,0.5193799999999555,0.8872519999999753,1.0280912877288233,-1.3261400000000094,1.1012599999999964,1.7237809858563868,-1.257439999999974,1.0113899999999916,1.6137115869014258,-0.8074000000000296,0.4560699999999826,0.927305022578888,0.0699599999999236,0.2593799999999646,0.2686491876034077,-1.5903399999999692,0.5345000000000084,1.6777578983869843,-2.827409999999986,0.4692300000000102,2.86608166335154,-1.5450000000000728,0.69726,1.6950505914574423,-0.632900000000177,0.5095799999999997,0.8125479594462247,-1.7279399999999896,0.6794999999999902,1.856743626244601,-1.8364400000000387,0.3038899999999955,1.8614137115913107,0.1249599999999873,-0.0735899999999958,0.1450189287644761,1.447909999999979,-0.4698399999999765,1.522232897325477,-0.4261000000000194,0.0179799999999943,0.4264791793276858,0.1726999999999634,-0.4858499999999992,0.5156311787508457,0.6436700000000428,0.0600799999999992,0.6464678455267943,1.876630000000091,-0.1984200000000271,1.8870905259950708,0.0592400000000452,0.0469699999999875,0.0756013128193167,0.3940200000000686,-0.6609000000000265,0.7694417264485265,0.7815999999999121,0.0093400000000087,0.7816558037908136,0.8918399999998883,-0.1139100000000041,0.8990851315085806,0.3889500000000225,-0.010719999999992,0.389097700969843,-0.2717199999999593,-0.5720799999999997,0.6333303125541818,-0.0278050000000007,-0.4778450000000021,170.95519374999998,0.5575454156893885,122.5868255,0.5686268127319208,116.98111,1.197634235955756,0.06730685,-0.4635329474999999,0.049205179105335,0,0
4,133.33333333333334,541.03973,118.14688,0.87225,543.4125,113.825516,0.8903096,539.865,115.724686,0.39009392,552.86884,109.42212,0.9193421,545.07837,112.70294,0.1458506,571.4963,123.040665,0.9970169,554.06635,125.58264,0.95037615,583.74915,155.70137,0.99500185,558.55865,153.92596,0.7925487,560.1206,170.21304,0.9869545,550.0998,172.76276,0.7860254,583.7972,171.97061,0.996564,572.9842,171.00648,0.98618823,542.9285,183.07037,0.99217457,533.378,182.76566,0.9675886,569.0095,220.76492,0.97068304,562.06433,216.89308,0.93142515,0.98004902,0.11152303,0.90667732,-0.35495766,100.99264461918456,146.81083754047904,70.51524684089641,66.48703729423696,18.30778630102557,171.488545,124.3116525,118.14688,50.41919999999993,111.34279999999998,0.4528285578157849,171.70250968557977,0.8570819594117647,-0.8809200000000601,-0.0784600000000068,0.8844071562352416,-0.1414100000000644,-0.8826100000000139,0.893866433087205,-0.7110000000000127,-0.0689690000000098,0.7143372613556005,-0.0749000000000705,-0.8739380000000097,0.8771417433026588,-1.0173999999999523,-0.0520640000000014,1.018731279629669,-0.1159999999998717,-0.8695540000000079,0.8772571794610655,-0.4750900000000229,0.4101400000000126,0.6276347088076248,0.080979999999954,-0.4837099999999878,0.490441764636721,-1.4295299999999995,0.4958900000000028,1.513097126096009,-0.0154899999999997,-0.4822199999999981,0.482468722820452,-0.4152599999999893,0.7212850000000088,0.8322817544708065,0.189420000000041,-0.2069209999999799,0.2805284952389101,-1.247609999999895,1.0510400000000004,1.6313233259227733,0.0785300000001143,-0.0502199999999959,0.0932148555758016,-0.2276500000000396,-0.2618899999999939,0.3470027299604643,0.57974999999999,-0.7179599999999766,0.9228090940708998,-0.8189100000000735,0.3670500000000061,0.8974069815864621,0.7714299999998957,-0.1674500000000023,0.7893945448252349,-0.3351000000000113,-0.0144599999999854,0.3354118387892817,1.2099000000000617,-0.7117199999999855,1.4037105714498728,0.0347399999999424,0.3484599999999886,0.3501874343833429,1.762679999999932,-0.3310400000000015,1.793496100915684,-0.0327600000000529,0.098950000000002,0.1042320492938898,-0.1577200000000402,0.1725399999999979,0.2337640904844283,-0.6847999999999956,0.1866700000000207,0.7097863966715633,-0.2586999999999761,0.1686900000000264,0.3088397741548141,0.567229999999995,0.1427699999999845,0.5849214868681009,-0.0764400000000478,0.0826899999999852,0.1126086573048665,-0.2274999999999636,-0.0674899999999922,0.2372997052252328,-0.2867400000000089,-0.1144599999999798,0.3087408609173727,0.4043000000000347,-0.0308700000000214,0.4054768142570293,-0.3772999999998774,-0.0402100000000302,0.3794366008965265,0.1259800000000268,-0.4149600000000077,0.433662036613782,-0.2629699999999957,-0.4042400000000157,0.4822480673885697,0.1428099999999972,0.1706149999999979,171.061864,0.5385493283743873,122.93179089999998,0.9151546181405894,117.214264,1.1608401099763883,0.0400402099999999,-0.44181789,0.0646032572648825,0,0
5,166.66666666666666,538.84973,116.7841,0.8902889,541.24866,112.41154,0.9098212,537.6398,114.34815,0.41946638,550.81696,109.1974,0.931985,543.0928,112.4506,0.15230021,569.3504,123.94266,0.997329,554.26154,126.92656,0.95329046,581.6543,156.30835,0.99527836,557.87555,155.2328,0.7888007,558.7976,171.32376,0.98745316,548.0801,173.2219,0.7842522,586.4451,170.85184,0.9963103,577.0764,170.24506,0.98492694,542.4999,181.89568,0.9914847,534.465,182.58044,0.96378034,568.9564,220.92166,0.9669672,562.72577,217.85603,0.9219281,0.99189846,0.09555608,0.91355539,-0.37436365,102.48796029611675,144.1548657674752,69.97269132886198,67.44526382658933,23.86079553512601,170.54845,125.43461,116.7841,51.98009999999999,111.72426,0.4652534689846818,168.81379340691709,0.8609213617647059,-2.189999999999941,-1.3627800000000008,2.5793932093420238,-1.3090799999998808,-1.284319999999994,1.833894301425159,-2.16384000000005,-1.413975999999991,2.584865890946026,-1.4528400000000374,-1.3450069999999812,1.9798454221602904,-2.2251999999999725,-1.3765360000000015,2.6165562098483344,-1.2078000000000202,-1.324472,1.792486239496429,-2.051879999999983,-0.2247200000000049,2.064148883389939,-1.57678999999996,-0.6348600000000175,1.699798200875591,-1.9855699999999388,-0.2523400000000038,2.001540331969296,-0.556039999999939,-0.7482300000000066,0.9322170425925188,-2.1458999999999837,0.9019949999999994,2.327763259016029,-1.730639999999994,0.1807099999999906,1.7400491124390642,0.1951899999999113,1.3439199999999971,1.3580206561389108,1.4427999999998065,0.2928799999999967,1.4722263869389922,-2.0948499999999517,0.606979999999993,2.1810138107998736,-1.867199999999912,0.8688699999999869,2.059458889344395,-0.6830999999999676,1.306839999999994,1.4746038097061664,0.1358100000001059,0.939789999999988,0.949552315673026,-1.322999999999979,1.1107199999999864,1.727433911442031,-0.9878999999999678,1.125179999999972,1.4973230921881466,-2.0196999999999434,0.4591400000000192,2.071230945500716,-2.054439999999886,0.1106800000000305,2.057419202787691,2.6479000000000497,-1.1187699999999836,2.874547046562332,2.680660000000102,-1.2177199999999857,2.944279204491401,4.092200000000048,-0.7614200000000153,4.162434534788556,4.777000000000044,-0.948090000000036,4.870174909394989,-0.4285999999999603,-1.1746899999999982,1.2504377457914335,-0.9958299999999554,-1.3174599999999828,1.651477593096517,1.086999999999989,-0.1852199999999868,1.102667424203677,1.3144999999999527,-0.1177299999999945,1.319761570473953,-0.0530999999999721,0.1567400000000134,0.1654902945794745,-0.4574000000000069,0.1876100000000349,0.4943806955171484,0.6614399999999705,0.9629500000000064,1.1682360960439346,0.5354599999999436,1.3779100000000142,1.4782940775434292,-0.9400949999999852,-1.0829049999999825,171.135954,0.3921330261435598,123.5855709,1.312451328659093,117.494472,0.6762672187604508,-0.0194059899999999,-0.41862896,0.06364834180129,0,0
6,200.0,537.61084,117.96596,0.8742962,539.871,113.71297,0.90015787,536.60596,115.52408,0.37584683,549.2972,110.28386,0.9297672,542.3567,113.280174,0.13538904,567.62646,124.55313,0.99735403,552.8142,126.85533,0.94602776,580.20905,156.79613,0.9956132,556.60895,154.97285,0.7663521,558.6168,171.2625,0.9879804,547.80945,173.60336,0.765712,583.4479,170.85843,0.9966126,574.2494,170.03563,0.9849797,542.06165,182.41028,0.99235255,533.89246,182.38876,0.96493095,569.42957,221.0097,0.9706323,562.2019,216.93085,0.926941,0.99199564,0.1238053,0.91404668,-0.36502912,102.50343975726496,147.0316381646234,70.25807441462146,67.68238280675976,22.60403007565944,170.44702999999998,125.70423,117.96596,49.555439999999976,110.72584,0.4475508115580714,171.16547218257136,0.8535850429411764,-1.2388899999999694,1.1818600000000004,1.712203694570224,0.9511099999999716,2.544640000000001,2.716579275798877,-1.3776599999999917,1.3014299999999963,1.8951694173608773,0.7861800000000585,2.7154059999999878,2.826925668855837,-1.0338400000000547,1.175929999999994,1.56577026108561,1.1913599999999178,2.5524659999999955,2.8168104889672256,-1.519760000000019,1.0864600000000024,1.86817177721966,0.5321199999999635,1.3111800000000071,1.4150422915234655,-0.7360999999999649,0.829574000000008,1.1090699849315018,1.249469999999974,1.0819140000000118,1.6527895160291766,-1.7239400000000842,0.6104699999999923,1.828836445530404,0.4219599999998991,-0.2915250000000071,0.5128713944303377,-1.44733999999994,-0.0712299999999999,1.4490917115558375,-1.6425299999998515,-1.415149999999997,2.1680761802573967,-1.4452499999999873,0.487780000000015,1.5253448432731458,0.649599999999964,-0.1191999999999779,0.6604459099729122,-1.2665999999999258,-0.2599500000000034,1.293000217517311,-0.5834999999999582,-1.5667899999999977,1.6719160128726391,-0.1807999999999765,-0.0612600000000043,0.1908963792217967,1.1422000000000023,-1.1719799999999907,1.6365078552820893,-0.270650000000046,0.3814600000000041,0.4677212354597854,1.7490499999998974,-0.077680000000015,1.7507741387453846,-2.9972000000000207,0.0065899999999885,2.997207244769725,-5.64510000000007,1.1253599999999722,5.756178345013359,-2.826999999999998,-0.2094299999999975,2.834746889036125,-6.919200000000046,0.5519900000000177,6.941183011569473,-0.4382500000000391,0.5146000000000015,0.6759261960451273,-0.0096500000000787,1.6892899999999995,1.68931756239021,-0.5725400000000036,-0.1916800000000194,0.6037741912337853,-1.659539999999993,-0.0064600000000325,1.6595525731955514,0.4731699999999819,0.0880400000000065,0.4812908585252622,0.526269999999954,-0.0687000000000068,0.5307351532543823,-0.5238699999999881,-0.9251800000000115,1.0632016785633895,-1.1853099999999586,-1.888130000000018,2.2293484907030505,-0.1014200000000187,0.8386749999999665,171.04065999999997,0.4997869756831503,124.25734789999998,1.3769757051899123,117.708694,0.6047000226393203,0.00933453,-0.3903306039999999,0.0428614355387325,0,0
7,233.3333333333333,536.3804,120.04253,0.8962465,538.6117,115.7619,0.92296475,534.7889,117.61618,0.4351893,547.8855,111.18553,0.9389867,539.6526,114.38666,0.15124667,565.6407,123.895325,0.99746835,551.8965,126.43175,0.9435874,578.84235,155.73259,0.99541724,557.184,154.3412,0.73631847,558.69946,172.02527,0.9870989,547.4153,174.20746,0.73803425,583.4528,168.50256,0.9962573,574.8675,167.86942,0.9826972,541.89404,182.38237,0.9919938,534.02045,182.54614,0.9616488,569.26184,221.3588,0.97041166,562.0286,217.12796,0.92431,0.96680347,0.11913804,0.89242988,-0.35225556,106.44599717536276,143.08792833017912,73.39320371362932,70.7594818431747,25.359766293750983,168.18599,125.1635375,120.04253,49.43235000000004,110.17327,0.4486782461056279,169.54398428575712,0.8570516052941176,-1.2304400000000442,2.076570000000004,2.413736845329276,0.0084499999999252,0.8947100000000034,0.8947499017043841,-1.2592999999999392,2.0489299999999986,2.4049845394305223,0.1183600000000524,0.7475000000000023,0.7568126185523176,-1.8170599999999693,2.092100000000002,2.771026786878809,-0.7832199999999148,0.916170000000008,1.2053219641655426,-1.4116999999999962,0.9016699999999958,1.6750837826508804,0.1080600000000231,-0.1847900000000066,0.2140661292685217,-2.7041000000000395,1.106486000000004,2.9217234773667786,-1.9680000000000744,0.2769119999999958,1.9873862875003163,-1.9857599999999136,-0.6578049999999962,2.0918771942025307,-0.2618199999998296,-1.2682749999999885,1.2950178330914528,-0.9177000000000816,-0.4235800000000012,1.0107389902443416,0.5296399999998584,-0.3523500000000013,0.6361360327004366,-1.366700000000037,-1.0635400000000177,1.731758130224928,0.0785499999999501,-1.5513200000000325,1.5533073890573277,0.5750499999999192,-0.6316500000000076,0.8542038544749823,1.841649999999845,-0.3717000000000041,1.8787856749771727,0.0826600000000326,0.7627700000000175,0.7672357841628817,0.2634600000000091,0.8240300000000218,0.8651223107168378,-0.3941499999999678,0.6040999999999883,0.7213120215967294,-0.1234999999999217,0.2226399999999841,0.2545993314994634,0.0049000000000205,-2.35587000000001,2.3558750957765247,3.0021000000000413,-2.3624599999999987,3.820186076829274,0.618099999999913,-2.166210000000006,2.2526680567939703,3.4450999999999112,-1.956780000000009,3.962032556453748,-0.1676099999999678,-0.0279099999999914,0.1699178630985828,0.2706400000000712,-0.5425099999999929,0.606269832417902,0.1279899999999543,0.1573800000000176,0.2028543923606138,0.7005299999999579,0.349060000000037,0.7826781998369233,-0.1677300000000059,0.3490999999999928,0.3873037088642413,-0.6408999999999878,0.2610599999999863,0.6920297201710178,-0.1733000000000402,0.1971100000000092,0.2624599819020369,0.3505699999999478,1.1222900000000209,1.175769607108472,-2.26103999999998,-2.159619999999961,170.40314999999998,1.3233843733256514,124.807904,0.9327338733103832,118.232962,1.1675289841455665,0.0127735599999999,-0.3683207719999999,0.0172893226012694,0,0
8,266.6666666666667,533.94794,120.24924,0.8589802,535.9098,115.86192,0.8908312,532.78217,117.537834,0.3850791,544.8474,111.68476,0.91949964,538.6728,114.389275,0.1680526,562.96185,122.73424,0.99493587,550.7944,126.28696,0.9344572,577.65515,151.54599,0.9894916,556.9146,153.60036,0.7014144,559.1347,171.77298,0.9736641,547.4474,174.01274,0.6946226,581.0618,165.79515,0.9930448,573.1791,165.44751,0.9746302,542.78076,183.49638,0.98813057,534.387,183.53198,0.9564586,564.6123,220.01608,0.9634591,558.0815,215.16644,0.92326343,1.01215633,0.06902637,0.91895959,-0.41857983,110.50133958430388,142.48844384158872,83.94486085322403,78.16089271719059,26.21496616871401,165.62133,124.5106,120.24924,48.27963,108.33132,0.4456664015017411,163.72295666578052,0.8417656005882354,-2.432459999999992,0.206710000000001,2.441227288824201,-1.2020199999999477,-1.8698600000000027,2.2228874240500542,-2.7019000000000237,0.1000200000000006,2.703750656107202,-1.442600000000084,-1.948909999999998,2.4247360574091843,-2.0067300000000614,-0.0783459999999962,2.008258795229401,-0.1896700000000919,-2.1704459999999983,2.1787176383864035,-3.038099999999986,0.4992299999999972,3.078844296631434,-1.6263999999999896,-0.4024399999999986,1.6754506598524366,-0.9797999999999548,0.0026149999999915,0.9798034895962104,1.7243000000000848,-1.1038710000000125,2.047374336715521,-2.6788500000000117,-1.161085,2.919649927598352,-0.6930900000000975,-0.5032800000000037,0.8565421802223979,-1.1020999999999503,-0.1447900000000004,1.1115703100118728,-0.1843999999998686,0.2787900000000007,0.3342562252224362,-1.1871999999999616,-4.186599999999999,4.351673632063863,0.1795000000000755,-3.123059999999981,3.1282141892140167,-0.2694000000000187,-0.7408399999999915,0.7883021410601379,-0.844449999999938,-0.1091899999999839,0.851480040047852,0.4352399999999079,-0.2522900000000163,0.5030746482381399,0.3525799999998753,-1.0150600000000338,1.0745508177838687,0.032100000000014,-0.1947199999999895,0.1973481400976377,0.4262499999999818,-0.7988199999999779,0.905429431209274,-2.3910000000000764,-2.7074099999999817,3.6120561883919065,-2.395900000000097,-0.3515399999999715,2.421552638618546,-1.6884000000000017,-2.421909999999997,2.9523452725079413,-2.3064999999999145,-0.2556999999999902,2.320630246290779,0.8867199999999684,1.114009999999979,1.4238295679258446,1.0543299999999365,1.1419199999999703,1.554217821059776,0.3665499999999611,0.985839999999996,1.0517791631801627,0.2385600000000067,0.8284599999999784,0.8621234512527585,-4.649540000000002,-1.342720000000014,4.83953708633378,-4.481809999999996,-1.691820000000007,4.790498490606169,-3.9470999999999776,-1.9615200000000077,4.40762511114544,-3.7737999999999374,-2.1586300000000165,4.347556775580924,-2.5646600000000035,-0.3036200000000235,169.25826899999998,2.3679610589925373,125.024926,0.596195935134241,118.637742,1.4746677890019708,-0.0663242699999999,-0.373037164,0.0269200960710605,0,0
9,300.0,532.1123,121.704025,0.8686553,534.1716,117.18131,0.90053326,530.5129,119.09566,0.4178626,543.3771,112.944855,0.9223577,535.71716,116.37129,0.17486937,562.557,123.84346,0.99456364,548.7416,128.48833,0.93143976,578.2602,152.32837,0.9878418,556.3161,155.6733,0.68201846,558.24506,171.92241,0.9700586,548.195,175.03815,0.67413527,581.8402,166.584,0.99206674,572.8197,166.59976,0.9716833,543.5132,184.10178,0.98718053,534.34937,184.56244,0.95396745,564.677,220.70883,0.9626213,558.33923,216.30428,0.92248034,1.02298137,0.0594462,0.91699443,-0.44953115,105.52376086855098,141.6787888687196,84.52960552159772,77.94767752044133,28.2048754308506,166.59188,126.165895,121.704025,51.32730000000004,107.763975,0.4762936734999461,161.41686163308168,0.8420197305882352,-1.835640000000012,1.454785000000001,2.3422155335974204,0.5968199999999797,1.248075,1.3834324407158365,-1.7382000000000062,1.3193899999999985,2.182230329754405,0.9637000000000172,1.2193699999999978,1.5542139128511323,-2.269270000000006,1.5578259999999915,2.752527598258735,-0.2625399999999445,1.6361719999999875,1.6571017063487476,-1.470299999999952,1.2600950000000068,1.936393942106016,1.5678000000000338,0.7608650000000097,1.7426739190752585,-2.9556400000000167,1.982015000000004,3.5586783037843017,-1.975840000000062,1.9794000000000125,2.796778158095542,-0.4048500000000103,1.1092199999999934,1.1807931787150507,2.274000000000001,2.2703049999999934,3.2133099435045125,-2.0528000000000475,2.201369999999997,3.0099863316799604,-0.9507000000000972,2.3461599999999976,2.531461482148242,0.6050500000000056,0.7823800000000176,0.989041943953862,1.7922499999999673,4.968980000000016,5.282321677340376,-0.5984999999999445,2.072940000000017,2.157610366493451,-0.3290999999999258,2.8137800000000084,2.832960412430784,-0.8896399999999858,0.1494300000000237,0.9021023525631566,-1.3248799999998937,0.40172000000004,1.384444283024691,0.747600000000034,1.0254099999999935,1.2690041087798094,0.71550000000002,1.2201299999999833,1.414445992924434,0.7784000000000333,0.7888499999999965,1.108237737356045,3.1694000000001097,3.496259999999978,4.718996752234584,-0.3593999999999369,1.152250000000009,1.206999760770472,1.3290000000000646,3.574160000000006,3.813248051936855,0.7324399999999969,0.605400000000003,0.9502512897123576,-0.1542799999999715,-0.508609999999976,0.5314945441864543,-0.0376299999999218,1.030460000000005,1.0311468510837845,-0.4041799999998829,0.0446200000000089,0.4066354839409691,0.0647000000000161,0.692750000000018,0.6957647968243486,4.714240000000018,2.035470000000032,5.134899891770072,0.2577300000000377,1.1378400000000113,1.1666638841157488,4.204830000000015,3.0993600000000185,5.223660377407804,0.9705500000000028,3.5352100000000064,168.278936,2.2231167280599773,125.3957745,0.6179009822940639,119.349171,1.9576178236902928,-0.03095132,-0.391951862,0.040725909188828,0,0
10,333.3333333333333,530.00415,123.362656,0.8328005,531.6605,118.96423,0.87352806,528.5969,120.89325,0.34946075,540.2585,114.11108,0.91158503,534.30164,117.47089,0.15457855,559.7011,123.58769,0.9938379,547.73486,128.06165,0.9213581,576.36444,152.44748,0.987404,556.4609,155.49727,0.6674326,557.8652,171.91154,0.9688365,549.2002,174.00243,0.6616779,580.8904,165.55429,0.992397,573.1185,165.7428,0.9725886,541.8384,183.99722,0.98839605,534.2948,184.95851,0.95781785,564.2009,220.78781,0.966901,559.0473,216.89365,0.93061405,1.08461987,0.04225102,0.9747211,-0.47385005,106.4541465563452,140.93336896111472,83.98719552006351,78.55422864340723,30.316383362625555,165.648545,125.82467,123.362656,52.2935,106.67673,0.4902053100971006,159.50014201940945,0.8312479082352942,-2.1081500000000237,1.6586309999999995,2.682415556296432,-0.2725100000000111,0.2038459999999986,0.340315870649615,-2.511100000000056,1.7829200000000045,3.0796796808110245,-0.7729000000000497,0.4635300000000057,0.901240517786502,-1.91599999999994,1.7975899999999996,2.6272391988739376,0.3532700000000659,0.239764000000008,0.4269501945145949,-3.118600000000015,1.1662249999999972,3.329526499462812,-1.648300000000063,-0.0938700000000096,1.6509707650047014,-1.415520000000015,1.0995999999999952,1.7924332708360533,1.5401200000000017,-0.8824150000000088,1.7750002384859052,-2.85590000000002,-0.2557699999999983,2.8673303093470257,-2.4510500000000093,-1.3649899999999917,2.805502415361645,-1.0067399999999225,-0.4266800000000046,1.093426380695037,1.046060000000125,-2.6280500000000018,2.828584155739452,-1.8957600000001091,0.1191100000000062,1.8994981362718983,-2.500810000000115,-0.6632700000000114,2.5872722603159857,0.144800000000032,-0.1760300000000256,0.2279333255581954,0.7432999999999765,-2.2489700000000425,2.3686200520345504,-0.3798600000000078,-0.0108700000000112,0.3800154950788273,0.5097799999999779,-0.1603000000000349,0.5343891263863709,1.0051999999999452,-1.0357199999999978,1.4433097236559744,0.2575999999999112,-2.0611299999999915,2.077165048064289,-0.949799999999982,-1.0297099999999944,1.4008649913892324,-1.7282000000000153,-1.8185599999999909,2.508751823835913,0.2988000000000284,-0.856960000000015,0.9075581973625948,0.6581999999999653,-2.0092100000000244,2.114273412806407,-1.6748000000000047,-0.1045599999999922,1.6780607359687594,-2.4072400000000016,-0.7099599999999953,2.509750509353469,-0.0545700000000124,0.3960699999999804,0.3998116178902081,-0.0169400000000905,-0.6343900000000247,0.6346161325557634,-0.476099999999974,0.0789800000000013,0.482606517154478,-0.5407999999999902,-0.6137700000000166,0.8180331612471525,0.7080699999999069,0.5893700000000024,0.9212600728349574,0.4503399999998692,-0.5484700000000089,0.7096657357516227,-0.9433349999999904,-1.9138849999999932,167.298955,2.045448677014444,125.4737865,0.6479236623283396,120.6648822,2.0125893132775525,-0.0243189,-0.411849142,0.0525662866207065,0,0
11,366.6666666666666,527.57355,125.50725,0.7533533,528.64215,121.21582,0.81662047,526.68286,123.012985,0.23698092,536.7084,116.14819,0.89517164,533.968,119.0479,0.117430426,556.96326,125.09326,0.9922627,548.0175,128.28712,0.8948484,574.19977,155.31232,0.9865276,556.9151,156.04025,0.62304777,555.3199,173.07126,0.9667022,548.5875,173.38686,0.6283426,580.1868,166.95317,0.9914051,574.5585,166.73595,0.9679232,540.8031,184.55797,0.9872322,535.61804,185.17589,0.95206416,563.5345,222.03473,0.96380967,560.00366,217.81992,0.92283684,1.11038222,0.04102279,1.02286761,-0.43012516,103.54783270897228,136.57994947057813,82.84622824890745,78.5791888912196,31.78506084493765,166.84456,126.69019,125.50725,53.50393999999994,105.88654,0.5052950025065032,160.3521647958654,0.8056799527058824,-2.4306000000000267,2.144593999999998,3.241465684661203,-0.3224500000000034,0.4859629999999981,0.5832101163980272,-3.018349999999941,2.251589999999993,3.765646591304024,-0.5072499999998854,0.4686699999999888,0.6906186584504311,-1.91404,2.1197350000000057,2.856015684800247,0.00195999999994,0.3221450000000061,0.3221509624772269,-3.550100000000043,2.0371099999999984,4.09304619594017,-0.4315000000000282,0.8708850000000012,0.971922287647025,-0.3336400000000594,1.5770100000000014,1.6119169301487108,1.0818799999999555,0.4774100000000061,1.182533146469861,-2.7378400000000056,1.5055700000000058,3.124501382700934,0.118060000000014,1.761340000000004,1.7652922588625426,0.2826400000000149,0.2254700000000014,0.3615551002267967,1.2893799999999374,0.652150000000006,1.444922284034628,-2.164670000000001,2.8648399999999867,3.59069692880086,-0.2689099999998916,2.7457299999999805,2.758866763908659,0.4542000000000143,0.54298,0.7079017731295868,0.3093999999999823,0.7190100000000257,0.782753946077582,-2.545299999999997,1.159719999999993,2.7970524786639186,-2.1654399999999896,1.1705900000000042,2.4615871590703358,-0.612700000000018,-0.6155699999999911,0.868520417088747,-1.6178999999999633,0.4201500000000067,1.67156406772217,-0.7036000000000513,1.3988799999999912,1.5658602154726482,0.2461999999999307,2.4285899999999856,2.441037449139176,1.4399999999999409,0.9931500000000142,1.7492703971941723,1.1411999999999125,1.8501100000000288,2.1737627405261843,-1.0353000000000063,0.560750000000013,1.177406748961474,0.6394999999999982,0.6653100000000052,0.9228204842221506,1.3232399999999416,0.2173800000000199,1.340976570265064,1.377809999999954,-0.1786899999999605,1.3893489526392782,-0.6664000000000669,1.2469199999999887,1.413824050722034,-0.1903000000000929,1.167939999999987,1.18334184984729,0.956360000000018,0.9262699999999882,1.3313904620733965,0.2482900000001109,0.3368999999999857,0.4185087025380063,1.1960149999999885,2.139349999999979,166.578461,1.0530885232758138,125.6709785,0.8531310175787579,122.1731402,2.290862112376009,0.04372489,-0.42486835,0.0456816632946979,0,0
12,400.0,524.60596,125.87178,0.8375298,526.04095,121.42438,0.8938176,523.13336,123.36096,0.33842254,534.6189,116.44092,0.9302028,529.7034,119.7766,0.14194363,554.556,125.993,0.99421114,545.99396,129.94658,0.90139335,572.98804,155.87231,0.9878155,556.0133,157.26103,0.5793206,552.49194,173.88083,0.9681521,547.0365,174.7586,0.5891838,580.07574,166.63965,0.99023926,574.73505,166.85928,0.95991206,540.6499,184.85971,0.98507786,535.96594,186.57455,0.9383198,564.5227,222.52344,0.9571463,561.4971,219.4814,0.9031841,1.14794477,0.1346137,1.05676668,-0.42766871,99.63382693974982,132.69698311411275,82.43512931705882,79.1482073150042,34.976790750046504,166.749465,127.96979,125.87178,56.94237999999996,106.08252,0.5367743852919933,155.21454832956587,0.8174042494117648,-2.967589999999973,0.364530000000002,2.989895069897912,-0.5369899999999461,-1.780063999999996,1.859297207063983,-2.6012000000000626,0.2085600000000056,2.6095476070768147,0.4171499999998787,-2.0430299999999875,2.0851824148979983,-3.5494999999999663,0.3479750000000052,3.566516066222717,-1.6354599999999664,-1.7717600000000004,2.4111953278819804,-2.08949999999993,0.2927300000000059,2.10990547250338,1.4606000000001131,-1.7443799999999925,2.275129434647687,-4.264599999999973,0.7287000000000035,4.326409232839604,-3.9309599999999136,-0.8483099999999979,4.021452023548126,-2.407259999999951,0.8997399999999942,2.569909098625816,0.3305800000000545,-0.6058300000000116,0.6901544213435499,-2.023540000000025,1.659460000000024,2.616968021050349,-2.3061800000000403,1.4339900000000227,2.715657105103708,-1.2117299999999886,0.5599899999999991,1.33487017833195,0.9529400000000124,-2.304849999999988,2.4940786206733674,-0.901800000000094,1.220780000000019,1.5177440655130945,-1.3560000000001082,0.677800000000019,1.5159646565801983,-2.827959999999962,0.8095700000000079,2.941557639499828,-0.2826599999999644,-0.3501499999999851,0.4500018867737883,-1.5509999999999309,1.3717399999999884,2.070572777663165,-0.9382999999999128,1.9873099999999797,2.19768239882376,-0.1110599999999522,-0.3135200000000111,0.332609551877267,0.5925400000000991,-1.7124000000000024,1.8120202569508228,0.1765500000000202,0.1233300000000099,0.2153606078186296,-1.2634499999999207,-0.8698200000000043,1.5339141875932327,-0.1531999999999698,0.3017399999999952,0.3384040005673512,0.8821000000000367,-0.2590100000000177,0.9193403015750338,0.3479000000000951,1.3986599999999785,1.4412786703479674,-0.9753399999998464,1.1812799999999584,1.5318976969757483,0.9882000000000062,0.4887099999999975,1.102441247459478,1.6546000000000731,-0.7582099999999912,1.8200504289992157,1.4934400000000778,1.6614800000000116,2.234027489535496,0.53708000000006,0.7352100000000235,0.9104881495659892,-0.0950950000000148,-1.2911100000000033,166.291156,0.6058782506558138,126.232229,1.2612848070439755,123.3389902,2.415398637129028,0.0024564499999999,-0.43995098,0.0220513806338832,0,0
13,433.33333333333337,522.68475,127.93582,0.80962044,523.72766,123.87457,0.87057513,521.15814,125.359955,0.3005164,531.2248,118.66698,0.91850704,527.20966,121.01402,0.13833371,550.7664,126.53267,0.99362624,544.0994,129.63881,0.8980671,569.5122,154.81953,0.9877015,555.2475,156.3183,0.5943633,552.4711,174.01302,0.9678651,545.9882,175.12735,0.60452235,580.6279,163.84605,0.9907697,576.424,163.90598,0.9631603,541.55286,185.50157,0.9859553,537.3026,186.14987,0.9432625,564.39874,222.83954,0.9591398,561.5222,218.11183,0.90922034,1.03066296,0.07762396,0.89906231,-0.49792331,104.86688812097567,131.1121975488257,87.53427186474575,82.46845182991603,40.982707144190506,163.876015,128.08574,127.93582,59.46975999999995,104.17256,0.5708773925602151,155.01929640249278,0.8138356617647058,-1.9212099999999737,2.0640400000000056,2.819806551113023,1.0463799999999992,1.6995100000000036,1.9958069406884047,-2.313289999999938,2.4501900000000063,3.369679756326964,0.2879100000001244,2.2416300000000007,2.2600436334283627,-1.975220000000036,1.9989949999999936,2.810244661666509,1.5742799999999306,1.6510199999999884,2.281276957933811,-3.394100000000094,2.2260599999999897,4.058972521907557,-1.304600000000164,1.933329999999984,2.332326316984904,-2.4937400000000025,1.2374200000000002,2.7838727420627567,1.7708599999999706,0.5087199999999967,1.8424823412993383,-3.789600000000064,0.539670000000001,3.827833835069188,-1.382340000000113,-0.3600699999999932,1.4284657085489687,-1.8945600000000693,-0.307770000000005,1.9193957295201705,0.1289799999999559,-1.967230000000029,1.9714537055939465,-3.4758399999999483,-1.0527800000000127,3.6317777236499023,-2.26410999999996,-1.6127700000000118,2.7797879712308737,-0.7658000000000129,-0.9427300000000116,1.2145737906360574,0.1360000000000809,-2.1635100000000307,2.167780320996608,-0.020840000000021,0.1321900000000084,0.1338226501755331,2.8071199999999408,-0.6773799999999994,2.887692220233948,-1.0483000000000402,0.3687500000000057,1.1112647985516722,0.5026999999998907,-1.0029899999999827,1.121916320453471,0.552159999999958,-2.793599999999998,2.8476449261802186,0.6632199999999102,-2.4800799999999867,2.567227604790782,1.688949999999977,-2.953300000000013,3.402136533488919,1.512399999999957,-3.076630000000023,3.42826573020529,0.9029600000000072,0.6418599999999799,1.1078452153617795,1.0561599999999771,0.3401199999999846,1.1095744950204744,1.336659999999938,-0.424679999999995,1.4025024270923134,0.9887599999998428,-1.823339999999973,2.074178172963835,-0.1239600000000109,0.3161000000000058,0.3395368781148911,-1.1121600000000171,-0.1726099999999917,1.1254750453475346,0.0250999999999521,-1.3695700000000102,1.369799983537752,-1.4683400000001257,-3.031050000000022,3.3679795810100304,-2.873449999999991,-2.7783549999999764,165.94209300000003,1.2493366348017585,126.947257,1.0342302533139989,124.8763062,2.403340789269517,-0.0702546,-0.4558196759999999,0.0299584753494145,0,0
14,466.6666666666667,521.82983,129.79575,0.81386286,522.7109,125.60211,0.8713639,520.11334,127.316925,0.3100189,529.7859,120.616104,0.914434,525.5235,123.584854,0.13795847,549.23267,128.48085,0.9932254,542.6181,132.81474,0.8952929,566.4227,154.89043,0.987402,552.91125,158.18163,0.5941836,548.6512,174.4071,0.968012,543.4496,175.73886,0.610165,581.4072,164.65536,0.98964334,577.1634,165.29778,0.9593764,541.4398,184.86652,0.9840934,537.2873,185.94691,0.93604815,565.3915,223.19554,0.9536472,561.7726,218.2511,0.8975203,1.08994783,0.02898616,0.97668627,-0.48293893,104.6194601655659,129.59373303123323,84.824169029437,80.21588749306565,44.17995583833462,164.97656999999998,130.647795,129.79575,61.29386,102.579436,0.5975257984697265,146.76703922121916,0.8127204600000001,-0.8549199999999928,1.8599299999999916,2.0470045948409488,1.0662899999999809,-0.2041100000000142,1.0856496931330866,-1.0167599999999766,1.7275399999999903,2.004543676051964,1.2965299999999615,-0.7226500000000158,1.4843224256878704,-1.0448000000000093,1.9569699999999983,2.218409029214408,0.9304200000000264,-0.0420249999999953,0.931368604272792,-1.4388999999999896,1.949124000000012,2.4227087273083443,1.9552000000001044,-0.2769359999999778,1.974715318241188,-1.6861599999999726,2.570834000000005,3.0744630427370456,0.8075800000000299,1.3334140000000048,1.5589029321276104,-1.5337299999999914,1.948180000000008,2.479462245185436,2.2558700000000727,1.4085100000000068,2.6594830093460544,-1.4812999999999192,3.175929999999994,3.504394534709202,0.4132600000001503,3.483699999999999,3.508126211754662,-3.089500000000044,0.070900000000023,3.090313424233903,0.3863399999999046,1.1236800000000358,1.1882404377902676,-2.33624999999995,1.863330000000019,2.988321058955988,-1.570449999999937,2.80606000000003,3.21563149724902,-3.8198999999999614,0.3940800000000024,3.840173831534154,-3.799059999999941,0.2618899999999939,3.8080760569741177,-2.538599999999974,0.6115099999999813,2.6112132123018688,-1.4902999999999338,0.2427599999999756,1.5099425510925213,0.7793000000000347,0.8093100000000106,1.1235173190031702,0.2271400000000767,3.602910000000009,3.610062748443591,0.739400000000046,1.3917999999999893,1.5760138324266186,-0.9495499999999312,4.345100000000002,4.447644231781571,-0.1130600000000185,-0.6350499999999784,0.6450357091665365,-1.016020000000026,-1.2769099999999582,1.6318075218909691,-0.0153000000000247,-0.2029599999999902,0.2035358730052194,-1.3519599999999627,0.2217200000000048,1.3700202918204902,0.9927599999999756,0.3559999999999945,1.0546603328086004,1.1167199999999866,0.0398999999999887,1.1174325789057562,0.2504000000000133,0.1392700000000104,0.2865245066307759,0.2253000000000611,1.5088400000000206,1.5255681681262525,1.1005549999999855,3.974004999999977,165.619031,1.248152068777204,127.843637,1.826506108659352,126.4946512,2.456956674008811,0.01498438,-0.462501232,0.0318697874420432,0,0
15,500.0,516.3126,130.82193,0.7873344,516.98236,127.148865,0.8546059,515.4068,128.53188,0.27164423,524.52075,121.93425,0.9083383,521.7222,123.957596,0.11369707,544.4437,128.86014,0.9945486,539.0798,132.11337,0.89069706,561.5375,153.85896,0.99150836,549.8124,156.47833,0.62490124,547.0206,174.98174,0.9761597,540.5308,174.30836,0.6392585,580.15393,162.6479,0.99341077,576.58936,163.21469,0.971667,542.8385,185.07605,0.98831356,539.0989,185.42157,0.9481747,569.4275,222.06934,0.96212333,566.36487,216.94331,0.9088466,1.18586847,0.08008041,1.07912042,-0.48514974,111.13700179188928,128.72715220714753,85.30087978798211,79.78025079552874,48.45189288889545,162.93129499999998,130.48675500000002,130.82193,64.74712999999997,100.13509,0.6465978045598417,148.7629959477228,0.8132487835294119,-5.5172300000000405,1.0261800000000108,5.611851055160006,-4.662310000000048,-0.8337499999999807,4.73627212041289,-5.728540000000066,1.5467550000000043,5.933685327149206,-4.71178000000009,-0.1807849999999859,4.715246969632221,-4.706540000000018,1.2149550000000031,4.860826516511897,-3.661740000000009,-0.742014999999995,3.736164622687959,-5.265149999999949,1.3181459999999987,5.427643448110373,-3.826249999999959,-0.6309780000000131,3.877927577841508,-3.801299999999969,0.3727419999999881,3.819531160831622,-2.1151399999999967,-2.198092000000017,3.0504795786997265,-4.788969999999949,0.3792899999999974,4.80396654495007,-3.255239999999958,-1.5688900000000103,3.6135859322423434,-3.5383000000000493,-0.7013699999999972,3.6071438517059926,-2.05700000000013,-3.877299999999991,4.389157583181591,-4.885199999999941,-1.031470000000013,4.99290590747507,-1.795699999999897,-1.102370000000036,2.1070733510961857,-3.0988499999999704,-1.703300000000013,3.5361139987986614,-0.7626000000000204,-3.566630000000032,3.647246676179205,-1.6306000000000722,0.574639999999988,1.7288919832078062,2.189299999999889,0.1805599999999856,2.1967331207043586,-2.918800000000033,-1.430499999999995,3.250495914472156,-0.3802000000000589,-2.0420099999999763,2.0771030018032204,-1.2532700000000432,-2.007460000000009,2.366554741496622,-2.032570000000078,-2.8167700000000195,3.473547759539291,-0.5740399999999681,-2.0830899999999986,2.160737343986991,-1.3134400000000142,-3.474889999999988,3.7148331248792257,1.3986999999999623,0.2095300000000008,1.4143070780067162,1.5117599999999811,0.8445799999999792,1.7316852121560395,1.8115999999999983,-0.5253399999999999,1.886233462644536,1.8269000000000235,-0.3223800000000096,1.855125999602208,4.036000000000058,-1.126199999999983,4.190181671479225,3.0432400000000825,-1.4821999999999775,3.385000227119702,4.592269999999985,-1.307790000000011,4.77485690225371,4.341869999999972,-1.4470600000000218,4.576660107600281,-2.045275000000004,-3.145829999999989,165.075581,1.7304550387233084,128.776054,1.7253503966781507,127.986506,2.34170549762968,-0.00221081,-0.4647611699999999,0.0332466391241799,0,0
16,533.3333333333334,513.78577,131.59943,0.81070256,514.6696,127.79285,0.87352026,512.8739,129.24806,0.31021821,523.3858,122.86789,0.9193267,519.00836,125.2664,0.12546611,543.6697,129.62427,0.994882,535.6924,133.12416,0.90786844,560.15393,153.9636,0.9918268,546.50085,157.46272,0.6665629,546.32526,175.4899,0.976262,538.0978,173.84375,0.66403383,578.8938,161.13327,0.9927857,573.4455,161.48853,0.9709138,543.52985,185.60507,0.9842241,537.0539,185.11191,0.9345142,569.62616,220.9779,0.93949056,563.8296,214.9834,0.8619108,1.18720466,0.0405315,1.07027718,-0.51217074,113.17448418662842,128.89792661296983,88.26511970596547,81.1174900908981,50.63319802316058,161.3109,131.374215,131.59943,66.0199,98.11001,0.6729170583825539,156.31144197135032,0.8190887629411766,-2.526830000000018,0.7775000000000034,2.6437428201132,2.9904000000000224,-0.2486800000000073,3.0007222301306293,-2.3127600000000257,0.6439850000000007,2.4007447798183628,3.4157800000000407,-0.9027700000000038,3.5330647717385943,-2.532899999999927,0.7161800000000085,2.6322036779853573,2.1736400000000917,-0.4987749999999948,2.23013168898731,-1.1349500000000037,0.9336399999999968,1.469624153346699,4.130199999999945,-0.3845060000000018,4.148059414236439,-2.7138400000000047,1.3088040000000092,3.012954605701196,1.0874599999999646,0.936062000000021,1.434845399143741,-0.7740000000000009,0.7641299999999944,1.0876445452904149,4.014969999999948,0.3848399999999969,4.0333715334072044,-3.387399999999957,1.010789999999986,3.5349929538967517,0.1509000000000924,1.712159999999983,1.718796868626415,-1.383570000000077,0.1046400000000176,1.387521341998103,3.501629999999864,1.1361100000000306,3.681325656472015,-3.311550000000011,0.9843899999999906,3.454762954907334,-0.2127000000000407,2.6876900000000035,2.696093252485907,-0.6953399999999874,0.5081600000000037,0.8612341732653125,0.9352600000000848,-0.0664799999999843,0.9376197832811318,-2.4329999999999927,-0.4646099999999933,2.476964160439137,0.4858000000000402,0.9658900000000016,1.0811776598228628,-1.26012999999989,-1.5146299999999826,1.9702872008414587,-0.0068599999998468,0.4928300000000263,0.4928777419401527,-3.143860000000018,-1.726159999999993,3.586569955430967,-2.5698200000000497,0.3569300000000055,2.59448913223784,0.6913500000000568,0.5290200000000027,0.8705325857772823,-0.7073499999999058,0.3194900000000018,0.7761558365430669,-2.044999999999959,-0.309660000000008,2.068311948328839,-3.8565999999999576,0.2156799999999918,3.862626233846561,0.198660000000018,-1.0914400000000055,1.109372376256061,-3.83734000000004,0.0347599999999772,3.8374974310350103,-2.5352699999999686,-1.959910000000008,3.2045032658744272,-7.127539999999954,-0.6521199999999965,7.157310035620878,-1.6203949999999736,0.4248800000000301,163.968849,2.0553075374729133,129.712859,1.5747166316967862,129.20494200000002,2.313974753334385,-0.0270209999999999,-0.481170286,0.0321055865526987,0,0
17,566.6666666666666,512.4003,134.5725,0.8249432,512.9062,130.47046,0.8758784,511.2002,132.45955,0.35836157,521.3106,124.56204,0.9107,517.1466,128.22406,0.14836141,542.30646,130.29428,0.99366957,534.5329,135.39087,0.9158207,557.95746,154.66986,0.98927784,544.8758,159.7719,0.6960117,543.01495,177.47165,0.9707492,536.4763,173.7143,0.6872554,579.5056,161.57675,0.99067676,574.0442,162.70386,0.9680265,543.78436,185.50247,0.97964203,537.3385,186.43439,0.92788833,569.3121,220.80563,0.9251284,562.5569,216.37479,0.8458034,1.12134184,0.10931222,1.05529281,-0.36306396,114.05871268583104,125.9458493731904,87.94305135331568,82.776004382004,52.62551071794093,162.140305,132.842575,134.5725,68.30539999999996,96.24359,0.7097137512252629,146.74989310673098,0.8240114358823529,-1.3854699999999411,2.9730699999999786,3.280041515865266,1.141360000000077,2.195569999999975,2.474516169779472,-1.7633999999999332,2.6776100000000014,3.2061152306334484,0.5493600000000924,2.0336250000000007,2.1065201281319634,-1.6737000000000537,3.2114899999999977,3.621455468468467,0.8591999999998734,2.4953099999999893,2.639090115191167,-2.0751999999999957,1.6941499999999934,2.6789175542558152,-0.9402499999999918,0.7605099999999965,1.2093161384021878,-1.861760000000004,2.957660000000004,3.494839477458162,0.8520800000000008,1.648855999999995,1.8560081991025756,-1.3632400000000189,0.6700099999999907,1.5189920005385278,-0.589240000000018,-0.0941200000000037,0.5967096044140918,-1.15949999999998,2.266710000000017,2.546058615605704,2.227899999999977,1.2559200000000317,2.557513139047378,-2.1964699999999766,0.7062599999999861,2.307224230216881,-0.8128999999998996,0.6016199999999685,1.0113125305264437,-1.6250499999999874,2.309179999999998,2.8236677876301157,1.6865000000000236,1.3247900000000072,2.1446097067065835,-3.3103099999999586,1.9817500000000048,3.858171245369981,-2.614969999999971,1.4735900000000015,3.0015888440957155,-1.621499999999969,-0.1294499999999914,1.626659015436209,0.8115000000000236,0.3351600000000019,0.8779888812508047,0.6117999999999029,0.4434799999999939,0.7556280502997991,1.871929999999793,1.9581099999999765,2.7089327597781256,0.598700000000008,1.2153299999999945,1.3547947072896307,3.742560000000026,2.9414899999999875,4.760159532379153,0.254509999999982,-0.1026000000000237,0.2744122812484815,-0.4368400000000747,-0.6316200000000265,0.7679668026679921,0.2845999999999549,1.322480000000013,1.352756633840695,2.329599999999914,1.632140000000021,2.844453750652253,-0.3140600000000404,-0.1722699999999974,0.3582047410351021,-0.5127200000000585,0.9191700000000084,1.0524995426602688,-1.2726999999999862,1.3913900000000012,1.8856647162472888,1.2625699999999824,3.351300000000009,3.581242060361184,0.8294050000000084,2.449799999999982,163.047017,1.4370136510948863,130.687416,1.726771253758016,130.945086,2.4483729749424907,0.1491067799999999,-0.4682493359999999,0.059947905746976,0,0
18,600.0,509.77017,135.31071,0.84077686,510.5522,131.70601,0.8882038,508.70786,133.01001,0.3775166,518.4732,126.29544,0.9136495,514.6041,128.23387,0.15299636,537.65216,132.83958,0.994362,533.14685,135.8294,0.9152032,548.96924,157.98073,0.9895236,541.7695,159.90189,0.67722213,534.55084,178.56938,0.97071135,533.3774,176.56844,0.6725004,578.5862,163.50842,0.99254215,574.89716,164.35228,0.9731013,543.09656,186.8533,0.9869414,538.8859,187.51813,0.951254,568.00574,221.742,0.9593775,563.56854,217.63585,0.91241723,1.10879816,0.13854403,1.06806637,-0.26357756,120.76163430501498,133.5661161551377,87.81132145834249,83.4170104997957,54.40204433999335,163.93035,134.33449000000002,135.31071,69.87833999999998,95.44656,0.7321200394008957,146.43089794365463,0.8334293752941176,-2.6301300000000083,0.7382100000000094,2.731764598386921,-1.2446600000000672,-2.234859999999969,2.558080869558277,-2.353999999999985,1.2355499999999893,2.6585522004466835,-0.5906000000000518,-1.442060000000012,1.5583149243975352,-2.492340000000013,0.5504599999999868,2.552403746902133,-0.8186399999999594,-2.661030000000011,2.784107058016985,-2.8374000000000024,1.7334000000000032,3.3249833563493256,-0.7622000000000071,0.0392500000000097,0.763209933439032,-2.542500000000018,0.0098099999999874,2.542518925416307,-0.6807400000000143,-2.9478500000000167,3.02542998102751,-4.654300000000035,2.545300000000026,5.304814848795428,-3.291060000000016,1.8752900000000352,3.787847476826415,-1.3860500000000684,0.4385299999999859,1.4537686072412546,-0.2265500000000884,-1.828180000000032,1.8421636775542385,-8.988219999999956,3.310869999999994,9.578619886251838,-6.791749999999979,2.604610000000008,7.274053980731773,-3.106300000000033,0.1299900000000207,3.1090186699504088,-1.4812500000000457,-2.179189999999977,2.6349517298425096,-8.464110000000005,1.0977299999999843,8.534996733742787,-5.153800000000047,-0.8840200000000209,5.229067392987063,-3.0989000000000715,2.854140000000001,4.212991377821755,-1.4774000000001024,2.9835899999999924,3.32934228461122,-0.919399999999996,1.931669999999997,2.1393095495743437,-1.5311999999998989,1.488190000000003,2.135247741153166,0.8529599999999391,1.6484200000000158,1.85602512321357,0.2542599999999311,0.4330900000000213,0.502210210668783,-0.6878000000000384,1.350830000000002,1.5158530696937806,-0.9423100000000204,1.4534300000000258,1.7321682657871649,1.5474000000000387,1.083740000000006,1.8891636105960048,1.262800000000084,-0.238740000000007,1.2851694937245497,-1.3063600000000406,0.9363699999999824,1.6072850483035277,-0.9923000000000002,1.10863999999998,1.4878648929254148,1.011639999999943,1.2610600000000147,1.6166903887881323,2.284339999999929,-0.1303299999999865,2.2880548823180957,1.790044999999992,0.9606399999999836,163.057884,1.4450330428896987,131.937166,1.6317177521878816,132.420064,2.4032952089742627,0.0994864,-0.421380186,0.1053582111930796,0,0
19,633.3333333333333,505.92975,135.50496,0.8714724,506.6356,131.8489,0.91286814,504.86505,133.15784,0.4261018,513.99274,126.42464,0.9309069,510.86542,128.3108,0.17395286,531.76263,132.74425,0.9956708,531.71423,136.62755,0.92498964,543.7623,156.73538,0.9914027,540.9923,160.53606,0.68219787,532.9185,179.05832,0.9744606,531.6026,177.27747,0.67786133,577.1806,162.45169,0.9928919,576.3098,164.17499,0.9727491,541.79114,187.73735,0.9862938,540.1387,190.56293,0.94570965,567.24866,221.56335,0.9530902,563.9307,220.06848,0.8954413,1.14942678,0.12577047,1.10786093,-0.27929886,127.5180458720872,129.50386346412446,88.58049257482664,87.23070790706127,57.54079948037241,163.31334,134.6859,135.50496,72.31555000000003,95.13871000000002,0.7601064723275472,90.71407621045158,0.8416506464705882,-3.8404199999999946,0.1942500000000109,3.845329483789389,-1.2102899999999863,-0.5439599999999984,1.3269115892552772,-3.9166000000000167,0.1428899999999942,3.9192056736155263,-1.5626000000000315,-1.092659999999995,1.9067314010106635,-3.842809999999986,0.147829999999999,3.8456524030390336,-1.350469999999973,-0.4026299999999878,1.409212594962136,-4.480459999999994,0.1291999999999973,4.482322439494948,-1.6430599999999913,-1.6042000000000058,2.296323976184543,-3.738680000000045,0.0769300000000043,3.7394714021236126,-1.1961800000000269,0.0671200000000169,1.198061637312566,-5.889530000000036,-0.0953300000000183,5.890301471894323,-1.2352300000000014,-2.640630000000044,2.9152564123589944,-1.432619999999929,0.798150000000021,1.639952281897199,-0.0465699999998605,0.3596200000000351,0.362622819607388,-5.206940000000031,-1.245350000000002,5.353794989173599,3.781279999999924,-4.556219999999996,5.920913707089421,-0.7771999999999935,0.6341699999999832,1.0031009066389924,2.3291000000000395,0.5041799999999625,2.383045170029336,-1.6323399999999992,0.4889400000000137,1.7039941898962012,6.831770000000006,-0.6087899999999706,6.858841490878765,-1.7747999999999138,0.7090299999999843,1.9111877408825308,1.3241000000001577,-2.1451100000000167,2.5208605122260312,-1.4055999999999358,-1.0567299999999875,1.7585191647803535,-0.4861999999999398,-2.9883999999999844,3.027693016142794,1.4126400000000103,-0.1772899999999992,1.4237217121685082,0.5596800000000712,-1.825710000000015,1.9095702936786945,-1.3054199999999128,0.884050000000002,1.576599435145077,-0.6176199999998744,-0.46678,0.7741692533289117,1.2527999999999793,3.044799999999981,3.292463345278096,-0.2946000000000595,1.961059999999975,1.983064669545584,-0.7570799999999736,-0.1786499999999762,0.7778727073885234,0.549280000000067,-1.1150199999999586,1.2429714875249478,0.3621600000000171,2.432629999999989,2.459440705221404,-0.6494799999999259,1.1715699999999742,1.339552363776737,-0.6170099999999934,-2.407054999999985,162.725238,1.0226334845550051,132.74478700000003,1.822211151330332,133.56190600000002,2.191680578991516,-0.0157212999999999,-0.380652172,0.114570043288333,0,0
20,666.6666666666666,504.63525,136.52187,0.8785353,505.2909,132.85239,0.92185223,503.5018,133.98343,0.42067078,512.34076,126.972595,0.939117,509.20746,128.47824,0.16510403,529.60693,133.28522,0.9964006,531.072,136.36186,0.92247087,540.4815,159.35953,0.9930274,540.4468,161.4761,0.66292375,529.8884,181.75156,0.97825056,530.52124,178.38322,0.667322,577.6045,161.89017,0.9933549,577.60675,163.37637,0.97169614,540.7909,187.5404,0.98696053,539.87744,190.20764,0.94235027,566.8923,221.43025,0.95323855,563.5589,219.63602,0.8886002,1.11648611,0.13780709,1.07838348,-0.25424303,132.0432602687848,129.1144316460741,87.26435891096807,86.59445032173441,59.52895666255112,162.63327,134.82354,136.52187,74.10495000000003,94.457655,0.7845309013384795,64.53660433634381,0.8401103005882353,-1.2945000000000275,1.0169099999999958,1.646158011279617,2.545919999999967,0.8226599999999848,2.6755332406830243,-1.344699999999989,1.0034900000000275,1.677858834973916,2.571900000000028,0.8606000000000336,2.7120659966159013,-1.3632499999999936,0.8255900000000054,1.593753246459436,2.479559999999992,0.6777600000000064,2.5705206498295183,-1.6519799999999805,0.5479550000000017,1.740486312047566,2.828480000000013,0.4187550000000044,2.859310207099796,-1.657959999999946,0.1674399999999991,1.6663935655180082,2.080720000000099,0.0905099999999947,2.082687633443962,-2.1556999999999107,0.5409700000000157,2.222541570117336,3.733830000000125,0.6363000000000341,3.7876594565643016,-0.6422300000000405,-0.2656900000000064,0.6950183803325315,0.7903899999998885,-1.0638400000000274,1.3253195455058686,-3.2807999999999997,2.6241500000000144,4.201167916484661,1.926140000000032,3.869500000000016,4.322388870705671,-0.5454999999999472,0.9400400000000104,1.0868511634993827,0.2317000000000462,0.3058700000000272,0.383720401985662,-3.030099999999948,2.693240000000003,4.05401624412134,-1.3977599999999484,2.2042999999999893,2.6101094819182986,-1.081360000000018,1.1057500000000005,1.5466164722063578,0.6934399999998959,0.3967200000000161,0.7989028676878489,0.4239000000000033,-0.5615200000000016,0.7035594647220692,1.829499999999939,0.4952099999999859,1.895337224374534,1.296950000000038,-0.7986199999999997,1.523112998729936,-0.1156899999999723,-0.6213300000000004,0.6320088171853254,-1.0002400000000762,-0.1969499999999868,1.0194456140962829,0.3051799999998366,-1.0809999999999889,1.123252345824337,-0.2612599999999929,-0.3552899999999965,0.4410076775975605,-1.5140599999999722,-3.4000899999999774,3.721960463478859,-0.3563599999999951,-0.1331000000000131,0.3804051256226708,0.4007199999999784,0.0455499999999631,0.4033005342173245,-0.3718000000000074,-0.4324599999999918,0.5703129768819911,-0.7339600000000246,-2.865089999999981,2.957606801063983,-0.6800700000000006,-0.0630600000000072,162.665633,1.0162863548949268,133.612144,1.4784095013620893,134.70189399999998,1.8688171554029895,0.02505583,-0.33447083,0.1082833401255922,0,0
21,700.0,499.36694,138.02411,0.8516087,500.06525,134.39902,0.91542923,498.91858,135.46704,0.3362422,508.0908,128.34259,0.9442825,506.10852,129.6724,0.11920088,525.6459,134.1723,0.99650264,528.1302,137.05421,0.8956726,536.64624,161.35023,0.9940211,536.8215,163.32935,0.5922986,525.94696,184.46265,0.980415,527.31885,181.03862,0.6140177,573.57196,160.78445,0.99327034,574.1411,162.36581,0.9662408,539.0254,186.61816,0.9866868,538.5471,190.08327,0.9317227,566.00995,219.76558,0.9506707,562.4725,219.44373,0.8715516,1.11771204,0.14247435,1.08354203,-0.23434575,133.12370485046162,133.4791549810309,87.64067873018487,88.7322285535177,61.06833280946587,161.57513,135.613255,138.02411,75.22252000000003,91.42299,0.8227965326577429,49.23759433681897,0.8199902405882353,-5.268309999999985,1.5022400000000005,5.478304050862808,-3.9738099999999577,0.4853300000000047,4.003337498263127,-5.22565000000003,1.5466299999999933,5.449723137866757,-3.880950000000041,0.5431399999999655,3.918771996697471,-4.583219999999983,1.4836099999999988,4.817364860636968,-3.2199699999999893,0.6580199999999934,3.2865174761896405,-4.249960000000044,1.369995000000003,4.465315924055697,-2.597980000000064,0.8220400000000012,2.724931162800325,-3.098940000000028,1.1941600000000108,3.3210611601113573,-1.4409800000000814,1.0267200000000116,1.7693437537121663,-3.9610300000000502,0.8870799999999974,4.059146411168289,-1.80533000000014,0.3461099999999817,1.8382079700078804,-2.941800000000057,0.6923500000000047,3.0221740126108463,-2.299570000000017,0.9580400000000112,2.491156925306011,-3.835259999999949,1.990700000000004,4.321123205556585,-0.5544599999999491,-0.6334500000000105,0.8418341844448685,-3.6253000000000384,1.8532500000000027,4.071527434821027,-3.079800000000091,0.9132099999999924,3.2123387965936203,-3.941440000000057,2.7110899999999845,4.783822557505698,-0.9113400000001092,0.0178499999999814,0.9115147931329468,-3.2023900000000367,2.6554000000000144,4.160102267024251,-2.121030000000019,1.549650000000014,2.626820013514463,-4.03254000000004,-1.1057200000000194,4.181386799854848,-4.456440000000043,-0.5442000000000178,4.489544644348734,-3.4656499999999824,-1.010559999999998,3.609980808273068,-4.76260000000002,-0.2119399999999984,4.767313428294829,-1.7654999999999743,-0.9222400000000164,1.9918626628359548,-0.7652599999998984,-0.7252900000000295,1.0543568900993094,-1.3303399999999783,-0.1243699999999989,1.3361408655152875,-1.0690799999999854,0.2309199999999975,1.0937349280332815,-0.882349999999974,-1.664670000000001,1.884056191147164,-0.5259899999999789,-1.531569999999988,1.619373997876939,-1.086400000000026,-0.192290000000014,1.103286184133592,-0.7146000000000186,0.2401699999999778,0.7538798239109572,-1.0581400000000087,-0.3780700000000081,162.718479,0.9315690545690176,134.459952,1.0179643431661756,135.98683,1.334770008296715,0.0198972799999999,-0.278905832,0.0497783979561341,0,0
22,733.3333333333333,497.60107,139.91328,0.85312456,498.15723,136.21275,0.91105044,496.88016,137.4447,0.3539889,506.04187,129.7673,0.9368379,503.14316,131.52873,0.12770243,523.92444,135.09503,0.9963007,524.42566,138.06946,0.9022741,535.3368,163.05557,0.99371755,532.891,164.80707,0.62313795,522.27704,185.5267,0.9798972,522.9548,183.00143,0.6406192,571.2611,159.63507,0.9933055,570.37854,161.34506,0.96852475,538.8934,187.12773,0.98650336,537.3141,190.80678,0.9352036,566.69434,219.40227,0.94929665,561.64386,219.58917,0.873185,1.11663692,0.17711036,1.0855072,-0.19283167,127.63243033705515,133.79221404038577,89.6028408835213,91.49445425661968,62.86255016273621,160.49006500000002,136.582245,139.91328,74.38094000000007,89.82186999999999,0.8280938614605353,80.43497031915999,0.824980575882353,-1.7658700000000067,1.8891699999999787,2.58597373261987,3.5024399999999787,0.3869299999999782,3.5237481150757404,-1.908019999999965,1.8137299999999923,2.6325191040712013,3.317630000000065,0.2670999999999992,3.328364647525934,-2.0384200000000305,1.9776600000000144,2.8401223867995866,2.5447999999999524,0.4940500000000156,2.592314109536068,-2.0489299999999844,1.4247100000000046,2.4955786361082573,2.20103000000006,0.0547150000000016,2.201709970029037,-2.965359999999976,1.8563299999999856,3.498474095730852,0.1335800000000517,0.6621699999999748,0.6755092340597428,-1.7214599999999791,0.9227300000000014,1.9531654268135945,2.239570000000072,0.0356500000000039,2.239853724554423,-3.704539999999952,1.0152499999999804,3.8411390464417714,-0.7627399999998943,0.3228999999999757,0.828273335077149,-1.309439999999995,1.7053399999999783,2.1500738659869136,2.5258199999999533,-0.2853600000000256,2.5418884715895342,-3.930500000000052,1.477720000000005,4.199105458118481,-0.3052000000000134,-0.3755299999999977,0.4839109638146324,-3.6699199999999337,1.0640500000000088,3.8210620524795895,0.2715200000001232,-1.6470399999999756,1.669270461009835,-4.36405000000002,1.9628099999999904,4.78513902604722,-1.1616599999999837,-0.692590000000024,1.3524551244680894,-2.310859999999934,-1.1493799999999794,2.580920053779204,1.7216800000001058,-0.04365999999996,1.722233496945278,-3.762560000000008,-1.020750000000021,3.898562339645231,-0.2969100000000253,-0.0101900000000227,0.2970848097766284,-0.1319999999999481,0.509570000000025,0.5263891952728625,1.6335000000000264,1.431810000000041,2.172188326573045,-1.2329999999999472,0.7235100000000045,1.4295998461457236,0.097340000000031,0.8478800000000035,0.8534492193446614,0.6843900000000076,-0.3633100000000127,0.7748443896680286,1.5667399999999816,1.3013599999999883,2.0367160030794453,-0.8286399999999503,0.1454400000000077,0.84130674738761,0.2577600000000757,0.3377300000000218,0.4248549993822054,-1.085064999999986,-0.0269249999999772,162.388431,1.374606214823212,135.207886,0.8994718577825337,137.054986,1.9260281638720256,0.0415140799999999,-0.2448593739999999,0.0333238651574441,0,0
23,766.6666666666667,496.51385,143.31418,0.80612904,496.60962,139.63701,0.87398714,495.86786,140.87694,0.2948812,503.90247,132.366,0.9135115,501.70514,134.19186,0.1125132,522.9005,136.82053,0.99491334,521.5627,138.8255,0.8849004,533.9933,166.3375,0.99227685,529.2683,165.84317,0.61742276,517.92584,189.16551,0.9765553,519.2971,186.20352,0.6381484,570.17224,160.14365,0.9922133,568.0417,161.42627,0.9659908,538.9204,187.47304,0.9852506,536.6096,190.17744,0.9340193,567.70013,220.61371,0.9473358,561.7548,219.7969,0.87385184,1.01617901,0.13412241,1.0071463,-0.01694954,124.26349069300517,137.98887191449225,90.1979228339981,92.12006093918755,63.90203295676,160.78496,137.823015,143.31418,74.30437999999998,88.24770999999998,0.8419978168045628,123.71287900501171,0.8119941629411764,-1.087220000000002,3.400900000000007,3.570457693125638,0.6786500000000046,1.5117300000000284,1.657073750742583,-1.54761000000002,3.424260000000004,3.75774576836966,0.3604099999999448,1.6105300000000111,1.6503642776672054,-1.012299999999982,3.432239999999979,3.5784106398790816,1.0261200000000483,1.4545799999999645,1.7800913546220023,-2.1394000000000237,2.598700000000008,3.366047244172331,-0.0904700000000389,1.1739900000000034,1.1774707389145664,-1.4380200000000514,2.663129999999996,3.026576104660202,1.5273399999999242,0.8068000000000097,1.7273371748445017,-1.0239400000000387,1.7254999999999825,2.006440473475358,0.6975199999999404,0.8027699999999811,1.0634725305807793,-2.862960000000044,0.7560400000000129,2.9611039230665765,0.8415799999999081,-0.2592099999999675,0.880594526726023,-1.3435000000000628,3.281930000000017,3.5462736463646287,-0.0340600000000677,1.5765900000000386,1.5769578661778274,-3.622700000000009,1.0360999999999765,3.7679514991570704,0.3078000000000429,-0.4416200000000287,0.538302019687881,-4.351200000000063,3.638810000000007,5.672202363817831,-0.6812800000001289,2.5747599999999977,2.6633684491636083,-3.657699999999977,3.2020899999999983,4.8612909456336615,0.7063500000000431,1.239280000000008,1.4264449659556029,-1.088860000000068,0.5085799999999949,1.20177773152948,1.2219999999998663,1.6579599999999743,2.0596396193508197,-2.336840000000052,0.0812099999999986,2.338250681535289,1.4257199999999557,1.1019600000000196,1.8019415528812015,0.0269999999999299,0.3453099999999836,0.3463639647826905,0.1589999999998781,-0.1642600000000413,0.2286095964739337,-0.7045000000000528,-0.6293400000000133,0.9446634774352668,0.5284999999998945,-1.352850000000018,1.4524170793886777,1.0057899999999336,1.2114400000000105,1.5745476803513736,0.3213999999999259,1.574750000000023,1.607213589570479,0.1109400000000278,0.2077299999999979,0.2354982728174568,0.939579999999978,0.0622899999999901,0.9416425120500654,0.2948949999999968,1.3799599999999828,161.759353,1.2013615586265385,135.90559100000002,1.311327216074532,138.65568000000002,3.0887797877718746,0.17588213,-0.19553377,0.1047250756183529,0,0
24,800.0,495.1227,143.49307,0.6818428,494.5244,139.65477,0.74419856,494.55905,140.7335,0.18016624,500.19797,133.14108,0.86434525,502.62134,134.46085,0.12209753,517.27673,137.4313,0.9895839,522.16895,139.33249,0.8915139,530.4238,167.38344,0.98414975,532.6074,165.71288,0.6503661,513.612,191.06053,0.9565999,520.9169,186.52686,0.63650346,564.3377,160.8879,0.98721224,567.3587,162.7013,0.9584122,538.246,189.87004,0.9763017,540.30597,194.2235,0.92295605,563.1138,222.20319,0.91938305,561.2963,222.69081,0.8494134,1.07436955,0.33383215,1.02114809,-0.00908888,120.92513719030792,129.09037098818058,100.43999631751298,102.9602572052619,63.08817234060351,161.7946,138.381895,143.49307,72.83429999999998,89.54973000000001,0.813339126613345,21.23687230708872,0.7832380017647058,-1.391149999999982,0.1788899999999955,1.40260470361394,-0.3039299999999798,-3.222010000000012,3.236313007884136,-2.0852199999999925,0.0177600000000097,2.08529563036035,-0.5376099999999724,-3.406499999999994,3.4486615899650013,-1.308809999999994,-0.1434399999999982,1.3166467444610888,-0.296510000000012,-3.575679999999977,3.587952848422042,-3.704499999999996,0.7750799999999742,3.784715214702413,-1.5650999999999726,-1.8236200000000335,2.403149582194175,0.9162000000000036,0.2689900000000023,0.9548707033415612,2.354220000000055,-2.394139999999993,3.357716210164317,-5.623769999999922,0.6107700000000023,5.656839135577317,-4.599829999999884,-1.1147299999999802,4.732975702641931,0.6062500000000455,0.5069900000000018,0.790302424771718,3.469210000000089,-0.2490500000000111,3.478137997061161,-3.569499999999948,1.0459400000000016,3.719586097081184,-2.2259999999998854,-2.2359900000000152,3.1551112944077837,3.3391000000000304,-0.1302899999999738,3.341640958286841,6.961800000000039,-1.16638999999995,7.058833109806495,-4.313840000000027,1.895019999999988,4.711721165985971,0.0373600000000351,-1.7437900000000184,1.7441901655783023,1.6198000000000548,0.3233400000000017,1.6517568815053196,5.277500000000032,-2.8787499999999966,6.011589458080144,-5.834539999999947,0.7442499999999939,5.881816477424247,-4.745679999999879,0.2356699999999989,4.751528071189189,-0.6829999999999927,1.2750300000000152,1.4464406316541405,1.6538400000000593,1.1938200000000163,2.039704130014997,-0.6743999999999915,2.396999999999992,2.490065131678276,-0.7013999999999214,2.051690000000008,2.16826977475127,3.6963700000000017,4.046060000000011,5.480305894792744,4.400870000000055,4.675400000000025,6.42082719880396,-4.586329999999975,1.5894800000000089,4.853954010834857,-5.592119999999909,0.3780399999999986,5.60488361484866,-0.4585000000000718,2.8939100000000053,2.9300063716825084,-0.5694400000000996,2.686180000000008,2.745874160627204,1.0096399999999903,0.7147449999999935,161.45560500000002,0.8511948800806899,136.64479,1.4824536946732207,140.253302,3.1174335409384324,0.0078606599999999,-0.141491774,0.1193857046500572,0,0
25,833.3333333333334,492.9354,145.75836,0.61087775,492.1688,142.22989,0.68261814,492.57074,142.95601,0.13685648,497.29712,136.00117,0.8465218,500.52353,136.48103,0.10552187,513.8339,139.46292,0.9888626,519.21655,139.96086,0.8756719,528.347,167.47435,0.9854683,530.23584,164.66087,0.6429935,511.79657,190.44435,0.9605101,517.0924,187.12863,0.6387315,559.365,160.17125,0.9882174,562.70087,161.23532,0.95990676,535.03394,190.59418,0.9776725,536.2562,193.02841,0.9241509,560.7931,223.90988,0.9212962,558.06946,221.96246,0.8490645,0.98715318,0.31737391,0.9346809,0.0108084,116.837071526644,125.62990397955906,103.63794221530696,103.23470333732634,64.7497939429327,160.703285,139.71188999999998,145.75836,70.53207000000003,87.90870999999999,0.8023331157705185,5.285294713012966,0.7702907176470588,-2.1872999999999934,2.2652900000000216,3.148939515789414,-0.7961500000000115,2.086400000000026,2.2331412365768823,-2.355600000000038,2.5751199999999983,3.489999194040046,-0.2703800000000456,2.5573599999999885,2.5716134067934795,-1.988310000000013,2.22251,2.9821011646488538,-0.6795000000000186,2.365949999999998,2.4615929095811144,-2.9008499999999917,2.860090000000014,4.073701698774719,0.8036500000000046,2.08501000000004,2.234529038209209,-2.0978099999999813,2.0201800000000105,2.912376010837193,-3.0140099999999848,1.7511900000000082,3.4858173641486063,-3.442830000000072,2.031620000000004,3.997569040467032,2.1809399999998504,1.4208500000000015,2.602943335168738,-2.9524000000000115,0.6283699999999897,3.018528551612533,-3.558650000000057,0.1213799999999878,3.560719439509437,-2.0768000000000484,0.0909099999999796,2.0787887983391187,1.4926999999998998,-0.955030000000022,1.7720709892382254,-2.3715599999999317,-1.052010000000024,2.594421298420849,-5.710659999999962,-0.9217200000000504,5.784566137058134,-1.815429999999992,-0.6161800000000142,1.917149936050905,2.4984100000000358,-2.5112000000000023,3.5423407470343937,-3.824500000000057,0.6017699999999877,3.871553613589824,-5.444300000000112,0.2784299999999859,5.451415023175287,-4.972700000000032,-0.7166500000000156,5.024075289294572,0.8618399999999156,-1.4609000000000094,1.696171275431783,-4.65782999999999,-1.4659800000000018,4.883080755967478,-3.974829999999997,-2.741010000000017,4.828292591486153,-3.2120599999999517,0.7241400000000056,3.292674928261169,-2.53765999999996,-1.6728599999999858,3.0394372596254966,-4.049769999999967,-1.195089999999993,4.222425506862106,-7.746139999999968,-5.241150000000005,9.352664765835431,-2.320699999999988,1.7066899999999805,2.8807011726487493,2.265629999999988,0.1172099999999716,2.2686598425061293,-3.2268399999999247,-0.728350000000006,3.308019061024214,-2.768339999999853,-3.6222600000000114,4.558999217284344,-1.0913150000000087,-2.100954999999999,161.06960800000002,0.5771163239833562,137.62246,1.5891533540222875,142.1006,3.090028189086287,0.01989728,-0.088481488,0.1155896092443072,0,0
26,866.6666666666667,488.58554,147.10065,0.8142489,489.17944,143.82849,0.8724997,488.45868,144.37793,0.32568306,496.2218,137.0028,0.91391987,493.71765,137.01706,0.13688898,512.90094,141.34305,0.9952177,513.4269,140.68208,0.909378,520.11426,171.59366,0.991755,521.33386,167.14697,0.66904396,505.02655,195.37505,0.9741266,511.9793,188.94179,0.6684347,563.5891,158.07167,0.9932401,562.2298,158.40948,0.9736042,532.8314,188.15976,0.9884476,531.49554,188.21552,0.95312107,566.0069,220.99472,0.9601864,562.86163,217.63861,0.909681,0.87754457,0.33800812,0.80940172,-0.02652971,134.1957471271237,140.13583809395828,89.07390404809131,87.29087724625329,70.89786556730064,158.240575,141.012565,147.10065,77.54821999999996,83.99192,0.9232818951717984,-51.48934482238719,0.8264398141176471,-4.349860000000035,1.342289999999991,4.552254876838541,-2.162560000000042,-0.9230000000000302,2.351296398500248,-2.9893599999999765,1.5985999999999765,3.3899550394658307,-0.6337599999999384,-0.976520000000022,1.16414906605639,-4.112059999999985,1.42192,4.350964712566614,-2.1237499999999727,-0.8005899999999997,2.269638387629158,-1.0753200000000334,1.0016300000000058,1.469549508965276,1.825529999999958,-1.858460000000008,2.605078377419742,-6.805880000000002,0.5360299999999825,6.826956183783517,-4.708070000000021,-1.484150000000028,4.936458684867146,-0.93295999999998,1.8801300000000083,2.0988814112521923,2.509870000000092,-0.1514899999999954,2.5144376383200395,-5.789649999999938,0.7212200000000166,5.8343984617867255,-2.8372499999999263,0.0928500000000269,2.838768867836828,-8.232740000000035,4.119310000000013,9.205798324083617,-6.155939999999987,4.028400000000033,7.356874597517624,-8.901980000000094,2.4861000000000217,9.242615491861692,-6.530420000000163,3.538110000000046,7.427288048036272,-6.770019999999988,4.930700000000002,8.375259595403588,-4.954589999999996,5.546880000000016,7.43746191939832,-5.113099999999974,1.8131600000000103,5.425065971543551,-1.2885999999999171,1.2113900000000228,1.7686027513548206,4.224100000000021,-2.0995799999999747,4.717123804438471,9.196800000000051,-1.3829299999999591,9.300194924027176,-0.4710700000000543,-2.8258399999999995,2.864834838258577,4.186759999999936,-1.3598599999999976,4.402065255899719,-2.202539999999999,-2.4344199999999887,3.282922964067226,1.0095199999999522,-3.1585599999999943,3.3159662097192526,-4.76066000000003,-4.81289000000001,6.769622868941843,-0.7108900000000631,-3.617800000000017,3.686982700271349,5.213799999999992,-2.915159999999986,5.973430192577782,7.53449999999998,-4.621849999999967,8.839128219032654,4.792169999999942,-4.323849999999993,6.45450014574323,8.019009999999867,-3.595499999999987,8.788181929733689,-2.462709999999987,-1.3713949999999784,160.402697,1.3092246578253977,138.702322,1.7122376451723442,143.915908,2.743132809648087,-0.03733811,-0.04691828,0.0827163370098478,0,0
27,900.0,483.27206,148.56067,0.6756556,482.89868,145.17073,0.7399559,482.92215,146.12161,0.17054619,490.09906,138.5115,0.8486496,491.29346,139.49413,0.09698725,508.37872,141.11789,0.9867699,511.0403,140.72493,0.86599207,521.8143,171.3604,0.98305523,520.04706,164.90137,0.6329843,504.84402,194.17831,0.9602612,506.9862,188.85645,0.64995444,556.3146,158.63475,0.9812733,557.9228,159.3634,0.9411925,530.27106,189.64896,0.96184313,530.72406,191.5812,0.87964123,560.03,221.23781,0.8787809,555.80096,219.07211,0.7811558,0.75751912,0.27168386,0.70254596,0.08032606,119.4071168632436,130.96724833343123,96.687374593871,97.45773116347472,69.12758077707625,158.999075,140.92140999999998,148.56067,77.13131999999996,82.72630999999998,0.9323674544124176,-8.398568661929081,0.7667469729411766,-5.31347999999997,1.460019999999986,5.510419957752734,-0.9636199999999348,0.1177299999999945,0.9707851756696088,-6.280759999999987,1.342240000000004,6.422581598952235,-3.29140000000001,-0.2563599999999724,3.301368566155565,-5.536530000000028,1.743680000000012,5.804617505340067,-1.424470000000042,0.3217600000000118,1.4603575858330478,-6.122739999999965,1.5087000000000046,6.305879859115585,-5.047419999999931,0.5070699999999988,5.072826494302689,-2.42419000000001,2.477070000000026,3.465915887756103,4.381689999999992,1.941040000000044,4.792373476441512,-4.522220000000004,-0.2251600000000166,4.527821855373735,-3.5892600000000243,-2.105290000000025,4.161133659437087,-2.386600000000044,0.0428499999999871,2.386984642284112,3.4030499999998938,-0.6783700000000294,3.4700050661921686,1.7000400000000582,-0.2332600000000013,1.7159680152031385,9.932780000000092,-4.352570000000014,10.844583170103956,-1.286799999999971,-2.2456000000000245,2.5881602732443048,7.615180000000123,-4.731700000000046,8.965486675156141,-0.1825299999999856,-1.196739999999977,1.210579955434559,6.5874900000000025,-6.127439999999979,8.996696363315802,-4.993100000000027,-0.0853400000000021,4.993829244737976,0.1199999999999477,-1.8985000000000127,1.9022886873448088,-7.274499999999989,0.5630799999999851,7.296259955374385,-11.49860000000001,2.66265999999996,11.802862374678442,-4.306999999999903,0.9539200000000108,4.4113730704168725,-3.835929999999848,3.77976000000001,5.385252512417492,-2.5603399999999965,1.4891999999999823,2.961934765588184,-0.3577999999999974,3.9236199999999712,3.93990034701384,-0.7714799999999968,3.3656799999999976,3.452967311284597,3.989180000000033,8.178570000000008,9.099591436833876,-5.9769000000000005,0.2430899999999951,5.981841385234149,-11.190699999999993,3.158249999999981,11.627824798839193,-7.060669999999959,1.433500000000009,7.204719501750186,-11.8528399999999,5.757350000000002,13.177135314175752,0.758499999999998,3.221209999999985,160.104499,1.4469094766149075,139.57015499999997,1.448359891441986,145.645386,2.2746660641350425,0.10685577,0.007713266,0.0428524947415544,0,0
28,933.3333333333334,481.90906,150.71872,0.7026128,481.29382,147.1752,0.7588914,481.4011,148.54178,0.19029559,487.95938,140.05878,0.8525055,489.34808,142.09834,0.10349504,506.20007,141.74966,0.9879248,508.882,143.03082,0.87440765,519.3218,170.80077,0.9846867,516.9935,166.79774,0.6485816,502.87225,194.84335,0.9637975,504.05725,189.78581,0.66501474,554.6111,158.62659,0.98169476,556.15753,160.1593,0.9417333,528.8758,188.8675,0.96094394,529.1267,191.48755,0.8744267,561.56586,221.46951,0.8727918,555.4696,219.01616,0.7682215,0.81834514,0.32007601,0.74921859,-0.07688702,121.31306927421387,131.787458938938,94.52463635289976,95.47239428639855,70.43563447843337,159.392945,142.39024,150.71872,80.27204000000006,81.41073,0.986013010987459,25.533841610235413,0.7724720776470588,-1.3629999999999995,2.158050000000003,2.552439774509873,3.9504799999999705,0.698030000000017,4.01167522505247,-1.6048600000000306,2.0044699999999978,2.567776392231241,4.675899999999956,0.6622299999999939,4.722561739448155,-1.5210500000000025,2.4201699999999846,2.8584639111592667,4.015480000000025,0.6764899999999727,4.072065612253831,-2.1396799999999985,1.5472800000000009,2.640512431479919,3.9830599999999663,0.038579999999996,3.983246838949317,-1.94538,2.604209999999995,3.250601954792369,0.4788100000000099,0.1271399999999687,0.4954024583104141,-2.1786500000000046,0.6317700000000173,2.268402335433475,2.34357,0.8569300000000339,2.4953255037770234,-2.158299999999997,2.305890000000005,3.1583836977321185,0.228300000000047,2.263040000000018,2.2745265291044867,-2.49249999999995,-0.5596299999999985,2.5545531873303693,-4.192540000000008,-0.3263699999999971,4.205224016446694,-3.053559999999948,1.8963700000000188,3.594502448253409,-1.7667599999999766,4.141970000000043,4.503038571731345,-1.9717699999999925,0.6650399999999763,2.0809024807760546,-1.7892400000000066,1.8617799999999531,2.582170510636323,-2.928949999999986,0.9293600000000026,3.0728582967816664,2.064150000000041,1.0147000000000048,2.3000720233288736,-1.7035000000000764,-0.0081600000000037,1.7035195436508088,5.570999999999913,-0.5712399999999889,5.600210365477266,-1.7652700000001005,0.795899999999989,1.9363974238002737,2.541729999999802,-0.1580200000000218,2.546637334466571,-1.3952600000000075,-0.7814599999999814,1.5991967356144745,1.165079999999989,-2.270659999999964,2.552118383225945,-1.5973599999999806,-0.0936499999999966,1.600102900472322,-0.8258799999999837,-3.4593299999999942,3.5565491453514224,1.5358600000000706,0.2317000000000177,1.5532388192419817,7.512760000000071,-0.0113899999999773,7.512768634112265,-0.3313600000000178,-0.0559499999999957,0.3360503713731192,6.729309999999941,-1.489450000000005,6.892174865642864,0.3938699999999926,-0.3646300000000053,159.826096,1.416856459245439,140.4836,1.5099220085861589,147.126294,2.740217908858245,-0.15721308,-0.0042742299999999,0.0573929423188031,0,0
29,966.6666666666666,481.12347,153.36493,0.6871209,480.65393,149.72125,0.7677957,480.41678,151.12555,0.16963284,486.8938,142.28964,0.882662,487.31848,144.51517,0.097193144,503.6946,144.25775,0.9925168,505.84598,146.32848,0.8855607,514.81036,172.27614,0.99080724,514.77106,170.3239,0.64816326,498.36923,195.9479,0.9730876,502.54797,192.30133,0.6483901,552.18494,161.0889,0.9915719,553.28595,163.0452,0.96661645,526.04144,190.61772,0.9836601,525.61926,193.21008,0.9329566,561.65826,222.39673,0.94019926,556.61786,219.33298,0.86909616,0.7692703,0.36945074,0.66103188,-0.13535064,123.57848162047269,130.51604456099716,90.22060483014111,87.59475691915051,70.72471472562822,162.06705,145.293115,153.36493,81.24148000000002,80.10709,1.014160906179954,43.90567921820203,0.7898253384705881,-0.7855900000000133,2.6462099999999964,2.760358493420737,0.5774099999999862,0.4881599999999935,0.7561101068627358,-0.6398899999999799,2.546050000000008,2.625229478464695,0.9649700000000508,0.5415800000000104,1.1065604354485612,-0.9843199999999684,2.5837700000000154,2.7649146958450666,0.5367300000000341,0.1636000000000308,0.5611096620982807,-1.0655800000000113,2.2308599999999785,2.4722857998216807,1.0740999999999872,0.6835799999999779,1.2731741539946302,-2.0295999999999594,2.4168300000000045,3.15600117377986,-0.0842199999999593,-0.1873799999999903,0.2054367854109617,-2.5054700000000025,2.508089999999981,3.545122757959154,-0.3268199999999979,1.876319999999964,1.904570307129633,-3.036020000000008,3.297660000000008,4.482407714164353,-0.8777200000000107,0.9917700000000024,1.3243867000615883,-4.511440000000107,1.475369999999998,4.746557437817534,-2.018940000000157,2.0349999999999966,2.8665909585430254,-2.222440000000006,3.5261600000000044,4.1680983552694695,0.8311199999999417,1.6297899999999856,1.82947421367448,-4.503019999999992,1.1045500000000177,4.636509443848893,-2.53125,0.4395100000000411,2.5691235086309177,-1.5092799999999895,2.5155200000000093,2.9335587583684117,1.4196699999999964,1.586160000000007,2.1287006493398763,-2.4261599999999817,2.462310000000002,3.4567647998815194,-0.7226599999999053,2.470470000000006,2.573996794189902,-2.8715799999999945,2.8858999999999924,4.071165742929158,-1.106309999999894,2.0900000000000034,2.364745613401108,-2.8343600000000606,1.7502199999999846,3.3311959801249,-1.4391000000000531,2.531679999999966,2.9121147697850063,-3.507439999999974,1.722530000000006,3.907588124981936,-1.9100799999999936,1.8161800000000028,2.63570017240201,0.0923999999999978,0.9272199999999772,0.9318125822288283,-1.4434600000000728,0.6955199999999593,1.6022873780942524,1.1482599999999366,0.3168199999999785,1.1911657903078987,1.4796199999999544,0.3727699999999743,1.5258547825071185,2.6741049999999973,2.2802350000000047,159.880586,1.5134356557202888,141.86584399999998,2.1377988760972886,149.100666,3.0110096017162187,-0.0584636199999999,-0.0295265819999999,0.0823790587896037,0,0
30,1000.0,476.23123,154.08762,0.7825653,476.55392,150.63077,0.8609681,475.46298,151.8974,0.26807564,483.70618,144.14,0.91919446,480.52316,146.02176,0.11871434,499.9694,147.48657,0.9953461,498.60562,149.83928,0.89827186,509.5171,176.04756,0.9929517,506.3939,176.59903,0.6230724,491.5926,197.90277,0.9766467,494.99582,196.99213,0.62430406,549.40216,158.40042,0.99315953,547.8078,160.51245,0.9694772,523.5318,192.10733,0.9870701,522.9761,194.2128,0.9396918,563.3136,219.767,0.9530638,560.7669,217.00215,0.8853144,0.73132591,0.33874506,0.64604751,-0.05207683,122.15883738392482,134.57101906857716,87.3037249088997,84.70744107223153,77.65502198549017,159.456435,148.662925,154.08762,87.85061999999994,75.62700000000001,1.1616303547459184,120.09930214210004,0.8110522052941177,-4.892240000000015,0.72269,4.945330429172569,-4.106650000000002,-1.9235199999999963,4.53481018488095,-4.1000099999999975,0.9095200000000148,4.199679586647058,-3.4601200000000176,-1.6365299999999934,3.827618169998165,-4.953800000000001,0.7718500000000006,5.013570271024434,-3.9694800000000328,-1.8119200000000149,4.36346485683113,-3.187619999999981,1.850359999999995,3.685750044970475,-2.12203999999997,-0.3804999999999836,2.1558835802519254,-6.795320000000004,1.5065899999999883,6.96032954180332,-4.765720000000044,-0.910240000000016,4.851868091364444,-3.725199999999973,3.228820000000013,4.929745797949412,-1.21972999999997,0.7207300000000316,1.416754391487802,-7.24036000000001,3.510799999999989,8.046647101097454,-4.204340000000002,0.2131399999999814,4.209739124363884,-5.293259999999918,3.771420000000006,6.499400760377774,-0.7818199999998114,2.296050000000008,2.425507805573864,-8.37716000000006,6.27512999999999,10.466807831545436,-6.154720000000054,2.7489699999999857,6.740728027394414,-6.776630000000012,1.95487,7.052959015462954,-2.2736100000000192,0.8503199999999822,2.427415608110828,-7.55215000000004,4.690799999999996,8.890364124292129,-6.04287000000005,2.1752799999999866,6.422470001121106,-2.7827800000000025,-2.6884799999999984,3.86933963859468,-0.3566200000000208,-5.150790000000001,5.163120708302298,-5.478149999999914,-2.532749999999993,6.035308607270967,-2.60656999999992,-5.418649999999985,6.0129838672159615,-2.5096399999999903,1.489609999999999,2.918429523168231,0.3247200000000703,-0.2606099999999856,0.4163660054567833,-2.64316000000008,1.0027199999999823,2.8269669584203467,0.8642799999998942,-0.7198100000000238,1.1247694672686717,1.65533999999991,-2.629729999999995,3.1073510243452827,1.5629399999999125,-3.556949999999972,3.885186578029365,4.149040000000014,-2.330829999999992,4.758918092434464,3.000780000000077,-2.6476499999999703,4.001840967717271,-2.610614999999996,-5.284719999999993,159.631216,1.4451724272316155,143.656051,3.309732727531448,150.766518,3.003668659217788,0.08327381,-0.0421036279999999,0.0794291032772852,0,0
31,1033.3333333333337,471.3796,154.2752,0.8067205,472.28857,150.92796,0.8822871,470.90643,151.65535,0.2902455,480.23743,145.29713,0.9346551,476.77393,145.7338,0.13005917,495.52408,150.45908,0.9960743,496.1141,150.68904,0.9109458,501.60062,182.47252,0.99324566,503.35095,179.53989,0.6284805,483.3193,202.22733,0.97567546,489.0831,200.09323,0.6159603,547.81635,160.42781,0.99271506,547.31195,161.88951,0.9677582,522.5759,196.25513,0.9847268,522.7254,197.9633,0.9301276,562.4497,219.7358,0.94090265,560.9038,218.03867,0.85927707,0.82834199,0.3876285,0.73177776,0.01989728,126.4709054702079,131.15079242326408,85.32794690833613,83.45988258355067,78.4394621810945,161.15866,150.57406,154.2752,91.54327,74.43867,1.229781090530217,21.29332479590878,0.8141092217647058,-4.85163,0.1875800000000254,4.8552548762449135,0.0406100000000151,-0.5351099999999747,0.5366487530964495,-4.265350000000012,0.2971900000000005,4.275690882021303,-0.1653400000000147,-0.6123300000000143,0.6342596822280463,-4.556550000000016,-0.2420500000000061,4.562974479985632,0.3972499999999854,-1.013900000000007,1.0889447977285176,-3.46875,1.1571300000000235,3.656661920303825,-0.2811300000000187,-0.6932299999999714,0.7480654448642651,-3.7492300000000114,-0.2879599999999982,3.7602721383564894,3.0460899999999924,-1.7945499999999868,3.5354029460020406,-4.445319999999981,2.97251,5.347586895273403,-0.7201200000000085,-0.2563100000000133,0.7643740121825303,-2.49151999999998,0.8497600000000034,2.632444485264581,4.74884000000003,-2.6610399999999856,5.443584777258476,-7.9164800000000355,6.424959999999999,10.195624875013818,-2.623220000000117,2.6535399999999925,3.731294373270564,-3.042949999999962,2.940860000000015,4.231808389105047,5.334210000000098,-3.334269999999975,6.290560607529418,-8.273300000000006,4.324559999999991,9.335379589689968,-1.4966699999999946,2.3696899999999914,2.8027578891156373,-5.912719999999979,3.1011000000000024,6.676606848422315,1.6394300000000612,-1.5896999999999937,2.283610477927481,-1.585809999999924,2.027389999999997,2.573927654033762,1.1969700000000785,4.715869999999995,4.8654051257629245,-0.4958500000000185,1.3770600000000002,1.46361247128467,4.982299999999896,3.909809999999993,6.333239891722001,-0.9558999999999288,4.147800000000018,4.256523188002153,1.5537400000000616,2.658190000000019,3.078974190164687,-0.250699999999938,3.7505000000000166,3.758869609337373,2.392460000000142,2.7477800000000343,3.643372034256297,-0.8638999999999442,-0.0311999999999841,0.8644632149489662,-2.5192399999998543,2.598530000000011,3.61924416674246,0.1369000000000824,1.036519999999996,1.045521554249368,-4.012139999999931,3.367349999999988,5.237968442258827,1.7022249999999983,4.312839999999994,160.214833,1.3276155454923615,145.56834999999998,4.074423759123813,152.201428,2.4832201523761683,0.07197411,-0.03281823,0.0842709949813639,0,0
32,1066.6666666666667,468.40646,158.43121,0.6726777,468.6368,155.46658,0.78081465,468.01904,155.8966,0.14967564,475.81653,148.81886,0.9074321,475.01645,148.69458,0.08931932,490.0478,151.36734,0.9949261,493.5128,149.50122,0.88951945,495.54236,184.96396,0.99353,502.58917,176.95596,0.6234122,478.5187,205.80194,0.97561944,487.94592,200.41437,0.60080355,542.0116,162.84659,0.99422616,543.7689,163.88155,0.9732179,521.4843,199.2388,0.9873804,521.4066,200.84378,0.93975115,560.5153,219.81662,0.9502143,557.4691,217.75757,0.87883157,0.7180765,0.33284957,0.63548475,0.03168826,131.46456481225462,129.73312097331765,88.37347674780817,83.95308981265032,75.8031774433269,163.36407,150.43428,158.43121,92.49626,71.12204,1.300528762947059,-28.305252039728614,0.7883148017647059,-2.973140000000001,4.156009999999981,5.109988315025764,1.8784899999999995,3.9684299999999553,4.390576425140512,-3.651769999999999,4.53861999999998,5.825332234070415,0.6135800000000131,4.24142999999998,4.2855815079519655,-2.887389999999982,4.241250000000008,5.130811102993362,1.6691600000000335,4.483300000000014,4.783939171394243,-4.420900000000017,3.521729999999991,5.65216232984334,-0.9521500000000174,2.3645999999999674,2.549102348376753,-1.7574799999999868,2.96078,3.4431024031823325,1.9917500000000248,3.248739999999998,3.810692804477958,-5.476280000000031,0.9082600000000128,5.551088079466976,-1.03096000000005,-2.064249999999987,2.30738089272232,-2.6012999999999806,-1.1878200000000163,2.859663973686408,-0.1097800000000006,-2.03758000000002,2.0405352005785344,-6.058260000000018,2.491439999999983,6.55055627418009,1.858220000000017,-3.933520000000016,4.3503518431042085,-0.7617799999999875,-2.5839300000000094,2.6938825166105573,2.2811699999999746,-5.524790000000024,5.977210144624342,-4.800599999999974,3.574610000000007,5.985281698642078,3.472700000000032,-0.7499499999999841,3.5527553099672087,-1.1371800000000007,0.3211399999999855,1.1816553016848832,4.775539999999978,-2.779960000000017,5.525754237495537,-5.804750000000013,2.418779999999998,6.288530770450292,-4.218940000000089,0.3913900000000012,4.237055682393229,-3.543049999999994,1.992040000000003,4.064655786668776,-3.0471999999999757,0.6149800000000027,3.108637682393986,-1.091600000000085,2.9836699999999894,3.1770862797381065,-0.1357000000001562,-1.1641300000000283,1.172012434618383,-1.3188000000000102,2.8804800000000057,3.168027536243973,-1.0681000000000722,-0.8700200000000109,1.3775966065580203,-1.9343999999999824,0.0808199999999885,1.9360876096912376,-1.0705000000000382,0.1120199999999727,1.0763450796097298,-3.4347000000000207,-0.2811000000000092,3.446183584778987,-3.571600000000103,-1.3176200000000051,3.806894932146244,2.2054100000000005,0.503185000000002,161.087832,1.7087453031487527,147.47092400000002,3.5492252728436884,154.175536,2.771961502046336,0.01179098,-0.0425457899999999,0.0694491399430984,0,0
33,1100.0,464.6403,160.83682,0.7129595,465.04935,157.67464,0.8112309,463.79782,158.52457,0.18106961,472.04962,151.21347,0.9159403,469.494,152.23766,0.10012811,485.3704,152.96623,0.99571216,487.99387,154.45879,0.9022298,489.55826,186.09181,0.9941195,497.03894,184.34966,0.6300714,474.55112,210.10248,0.97594506,481.8526,207.0737,0.59229136,539.59595,163.81363,0.9950133,540.58826,166.59071,0.97621685,521.2602,199.50465,0.9894104,520.2983,202.8906,0.947492,561.8048,219.0628,0.9592405,558.65576,218.23152,0.8971278,0.77829741,0.29551146,0.71875856,0.04249666,140.78848605985078,129.4094519380928,88.56083106313872,82.59557988737991,77.85943853330609,165.20217,153.71251,160.83682,98.00698,67.84933000000001,1.4444796810155724,29.636668362673976,0.7985999147058824,-3.7661599999999567,2.405609999999996,4.468883598584736,-0.7930199999999559,-1.7503999999999849,1.9216609691618023,-3.58744999999999,2.208060000000017,4.212520203642946,0.0643200000000092,-2.330559999999963,2.3314473993637144,-4.221220000000017,2.627970000000005,4.972416375294829,-1.3338300000000345,-1.6132800000000032,2.093268933343277,-3.766909999999996,2.39461,4.463604821240335,0.6539900000000216,-1.1271199999999908,1.3031125870392042,-5.522449999999992,3.543080000000004,6.561316170472197,-3.764970000000005,0.5823000000000036,3.809733900274407,-4.677399999999977,1.598889999999983,4.943128563177346,0.7988800000000538,0.6906299999999703,1.0560203839415436,-5.518930000000012,4.957570000000004,7.418631184376277,-2.917630000000031,6.14539000000002,6.802821699045215,-5.984099999999955,1.1278500000000236,6.08945797526344,0.074160000000063,-1.3635899999999594,1.3656051382811574,-5.550229999999999,7.3936999999999955,9.245098849817666,-4.788450000000012,9.977630000000005,11.06717460869757,-3.967579999999998,4.300540000000012,5.851182388885181,0.8330199999999763,0.7259300000000053,1.1049419375243064,-6.093320000000006,6.659330000000011,9.026362759788697,-4.956140000000005,6.338190000000026,8.045867024485327,-2.415650000000028,0.9670399999999972,2.602024458782071,3.389099999999985,-1.451740000000001,3.6869428850471633,-3.1806400000000394,2.709159999999997,4.178040056677322,0.3624099999999544,0.7171199999999942,0.8034936854138672,-0.2240999999999076,0.2658500000000003,0.3477025057429969,0.8675000000001774,-2.717819999999989,2.8529111101470104,-1.1082999999999856,2.0468199999999968,2.3276170222783548,0.2105000000000245,-0.833660000000009,0.859825125010909,1.2894999999999754,-0.7538199999999904,1.4936715979089654,3.223899999999958,-0.834639999999979,3.3301884540667803,1.1866599999999607,0.4739500000000021,1.2778069330301465,4.6213599999999815,0.7550500000000113,4.682634808748152,1.8380999999999967,-0.3673100000000033,162.24967700000002,2.1785865979736405,149.735378,3.0778761527443086,156.199156,3.266612175638063,0.0108083999999999,-0.0186690539999999,0.0749918958444267,0,0
34,1133.3333333333333,463.09003,163.22357,0.7815529,464.00766,159.936,0.8365704,462.75638,160.94714,0.3220292,470.18515,154.21558,0.9080957,466.23312,155.69194,0.16975906,484.00027,158.31517,0.9951509,480.47327,161.21036,0.9325636,482.6598,191.5144,0.9904585,482.5589,192.3766,0.7040862,465.92865,218.23843,0.9624747,469.7783,214.94725,0.63728684,537.7974,165.69792,0.9929559,534.20184,168.9488,0.9756777,521.24615,202.23477,0.9857787,517.9278,204.39105,0.94855654,565.0162,219.01064,0.9508706,561.642,217.6246,0.8967681,0.74593594,0.26333191,0.69689611,0.03758375,150.2626453975705,146.65085194264157,86.5998693627114,82.17938155607368,81.99506832349596,167.32336,159.762765,163.22357,102.25982000000003,64.79506,1.5782039313150742,140.61863367105596,0.8229785611764706,-1.5502700000000118,2.3867500000000064,2.846034545714452,2.215889999999945,-0.0188599999999894,2.2159702596604847,-1.0416900000000169,2.2613599999999963,2.489752418554909,2.545759999999973,0.0532999999999788,2.5463179038760773,-1.0414400000000228,2.422569999999979,2.6369381256487503,3.179779999999994,-0.2054000000000257,3.1864070688472887,-1.864469999999983,3.002109999999988,3.5339655958992955,1.9024400000000128,0.6074999999999875,1.9970814213747103,-3.260880000000043,3.454279999999983,4.750304063194288,2.261569999999949,-0.0888000000000204,2.263312683855188,-1.3701300000000174,5.348939999999999,5.521631583191696,3.30726999999996,3.750050000000016,5.000090984712164,-7.520600000000002,6.751570000000015,10.106588040723745,-2.00166999999999,1.7940000000000111,2.687958107727872,-6.89846,5.422589999999985,8.774578775058085,-0.9143600000000448,4.294739999999962,4.390996000590271,-14.48004000000003,8.026939999999996,16.55606608362025,-8.929810000000032,0.6332400000000007,8.952234331925219,-8.622470000000021,8.13594999999998,11.854985082377794,-4.654890000000023,3.835409999999968,6.031448481103023,-12.074299999999994,7.873549999999994,14.414628336953395,-5.980979999999988,1.2142199999999832,6.102987134903679,-1.7985499999999774,1.8842900000000211,2.60486677329187,0.6171000000000504,0.917250000000024,1.1055134429305264,-6.386420000000044,2.358090000000004,6.807859345234784,-3.2057800000000043,-0.3510699999999929,3.2249458217619758,-0.0140500000001111,2.7301199999999994,2.730156152475532,0.2100499999997964,2.464269999999999,2.473205942779515,-2.3704999999999927,1.5004500000000007,2.805462609356961,-1.262200000000007,-0.546369999999996,1.3753795901132218,3.211400000000026,-0.0521600000000148,3.211823567009896,1.9219000000000503,0.7016599999999755,2.045978095092946,2.986240000000066,-0.6069200000000023,3.047290800695004,1.7995800000001054,-1.0808700000000044,2.099230366896494,2.121190000000013,0.2830900000000156,163.300939,3.129221383172708,152.629308,4.382748045137523,158.170884,4.017275784611592,-0.0049129099999999,0.015917824,0.0389347613541485,0,0
35,1166.6666666666667,460.42654,167.21158,0.7931641,460.74484,163.60501,0.81139785,459.41434,165.55585,0.39546087,466.2646,157.72386,0.8647694,461.39798,161.11404,0.22987156,482.12732,162.18178,0.9933698,473.6952,166.85904,0.94827366,486.41833,193.06015,0.9860541,477.77396,195.05847,0.7832712,467.1429,219.31311,0.9520722,464.91336,216.80106,0.7126994,532.6904,170.1253,0.99180484,526.2841,174.37932,0.9789003,517.5286,204.8772,0.982749,513.19904,209.1774,0.9535477,563.8387,218.20108,0.942824,559.6619,219.8607,0.8993445,0.78002333,0.26259497,0.73202341,-0.06018313,135.80172987473586,141.1657889783688,82.48004302000831,82.34138896559338,81.47412203508931,172.25231000000002,164.52041,167.21158,104.42436000000004,62.13684000000001,1.6805546970113918,150.9830600431547,0.8364455576470589,-2.6634900000000243,3.9880100000000023,4.795664994575846,-1.1132200000000123,1.6012599999999964,1.950203157622307,-3.2628199999999765,3.669009999999986,4.909952009184992,-2.22112999999996,1.4076499999999896,2.6296191738348336,-3.342039999999997,4.608710000000002,5.69292887938186,-2.3005999999999744,2.186140000000023,3.173636472502795,-3.920550000000048,3.5082800000000134,5.261058910609202,-2.0560800000000654,0.5061700000000258,2.117468544111174,-4.835139999999967,5.4221,7.264829470097676,-1.5742599999999245,1.9678200000000172,2.520041686163114,-1.872950000000003,3.866610000000009,4.296348984265603,-0.5028199999999856,-1.4823299999999904,1.5652891685883337,-6.778070000000014,5.648679999999985,8.823254426077716,0.7425299999999879,-1.1028900000000306,1.329555246313612,3.758530000000008,1.5457499999999982,4.063974756737553,10.656990000000008,-3.876839999999987,11.340252388977069,-4.784940000000006,2.6818700000000035,5.485260021229629,9.695100000000023,-5.345069999999993,11.07089595809212,1.2142499999999927,1.0746800000000007,1.6215240253847565,9.836720000000014,-7.061269999999979,12.108781704667898,-4.86493999999999,1.85381000000001,5.20617448033582,7.209360000000004,-6.0197399999999845,9.39213188137815,-5.107000000000085,4.427379999999999,6.758930585854604,-3.308450000000107,2.543089999999978,4.172906439234002,-7.917739999999981,5.430520000000001,9.601101716886438,-1.531319999999937,3.072429999999997,3.4328948494382683,-3.71754999999996,2.6424299999999903,4.560988303799918,-3.703499999999849,-0.0876900000000091,3.704537999008633,-4.728760000000079,4.786349999999999,6.728322038970841,-2.3582600000000866,3.285899999999998,4.044567843120003,-1.177500000000009,-0.8095600000000047,1.428948439797612,-4.388900000000035,-0.7573999999999899,4.453773452927337,-1.9801000000001068,2.2361000000000217,2.9867941375328364,-4.966340000000173,2.843020000000024,5.722525291862139,4.928950000000015,2.807760000000002,165.860114,4.235801406762384,155.80080500000005,6.168631701505928,160.795676,4.877691384582107,-0.09776688,0.014296564,0.042481179285686,0,0
36,1200.0,458.61053,178.99751,0.6757046,459.1343,176.17651,0.7040331,458.52756,176.46692,0.29878175,462.76282,167.86421,0.8111882,459.70395,167.77571,0.19903126,476.40192,168.15324,0.98744655,468.77145,167.35687,0.9169779,477.18665,204.86351,0.9747747,471.1482,198.65076,0.71356297,464.23932,224.48434,0.9195673,459.3751,219.48997,0.62816894,527.2479,170.30316,0.9864877,521.1561,172.39005,0.9681299,516.7514,209.37024,0.97723824,509.19968,209.66507,0.9434259,563.8582,217.9617,0.9370009,556.0157,217.18,0.8938137,0.81262114,0.35053604,0.72318017,-0.12036627,145.3555213717972,146.19250971266308,85.29714526873775,81.33507071070785,86.01960196686241,171.346605,167.755055,178.99751,105.33064000000002,57.12747000000002,1.843782652307504,-174.04177665805076,0.7961960947058824,-1.8160100000000057,11.785930000000008,11.92501732849895,0.8474800000000187,7.797920000000005,7.843836986883403,-1.6105400000000143,12.571500000000016,12.67424362009822,1.652279999999962,8.902490000000029,9.054521378764337,-0.8867799999999875,10.911069999999995,10.947046510968146,2.4552600000000098,6.302359999999993,6.763729979619231,-3.501779999999997,10.140350000000012,10.727961655920486,0.4187700000000518,6.632069999999999,6.645278082804363,-1.694029999999998,6.661670000000015,6.873687862406919,3.141109999999969,1.2395700000000147,3.3768485037087235,-5.725399999999979,5.971460000000008,8.272758892388914,-3.852449999999976,2.104849999999999,4.389961790835976,-4.923749999999984,0.4978299999999933,4.948853278427219,1.8543200000000295,-5.150849999999991,5.474464209847391,-9.23168000000004,11.803359999999998,14.984766361608736,-12.990210000000047,10.25761,16.551861489155872,-6.625760000000014,3.5922899999999918,7.536925302913657,-1.840820000000008,0.9104199999999878,2.0536511020131942,-2.9035799999999767,5.171230000000008,5.93063205141745,-4.1178299999999695,4.096550000000008,5.808463291732143,-5.538260000000037,2.688909999999993,6.1565055685591945,-0.6733200000000465,0.8350999999999829,1.0727310158655965,-5.442499999999996,0.1778599999999812,5.445405442168649,-0.3354999999999108,-4.249520000000018,4.262743304539941,-5.127999999999929,-1.9892700000000048,5.5003253660942,2.789740000000052,-7.419790000000006,7.926911940453254,-0.7771999999999935,4.493040000000008,4.559764059860999,2.9403499999999667,1.8506100000000172,3.474250350017953,-3.999359999999968,0.48766999999998,4.02898280444329,0.729400000000112,-4.298680000000019,4.36012317514085,0.0194999999999936,-0.2393799999999828,0.2401729260345377,1.1970000000000027,0.5701800000000219,1.325863579860323,-3.646199999999908,-2.6807000000000016,4.525585810698913,-1.6660999999998012,-4.916800000000023,5.191417094589835,-0.9057050000000118,-5.834655000000026,167.89770300000004,3.8408047120518938,159.237004,7.224195114418698,165.74013799999997,8.088867725501903,-0.0601831399999999,-0.0137561459999999,0.073120688801954,0,0
37,1233.3333333333337,447.6483,179.30154,0.5572058,447.4422,176.90668,0.59676945,447.55872,177.28064,0.15684693,451.60455,170.82332,0.80134344,450.56122,171.12172,0.12658367,465.75275,170.85529,0.99172485,461.41595,170.54622,0.9150686,473.99753,207.23935,0.98852485,468.78186,201.89806,0.7439352,464.2947,226.85764,0.95807177,457.58264,220.58586,0.6713577,515.55554,173.02806,0.99420434,512.1891,175.52092,0.9819239,512.76654,210.8801,0.9878554,507.4439,212.3986,0.96129984,554.54614,219.89812,0.95733273,548.9108,219.067,0.91612726,0.64629002,0.17121487,0.51610107,-0.34930782,140.91604646176526,135.84511527819083,97.96625046173644,91.8034774831998,85.93508606256675,174.27449,170.70075500000002,179.30154,107.10394000000002,56.31142,1.9019932031194888,-175.92360323281625,0.7827162194117647,-10.962229999999977,0.3040299999999831,10.96644522230424,-9.146219999999971,-11.481900000000024,14.679487998510032,-11.692099999999982,0.7301699999999869,11.714877320693528,-10.081559999999968,-11.841330000000028,15.551686345940109,-10.96884,0.8137200000000178,10.998981370290617,-10.082060000000013,-10.097349999999976,14.269001747357796,-11.15826999999996,2.9591099999999813,11.543973379430454,-7.656489999999962,-7.181240000000031,10.497239973331078,-9.142730000000029,3.346010000000007,9.735773968873794,-7.448700000000031,-3.3156600000000083,8.153326494480673,-10.649170000000026,2.7020499999999856,10.986623498209106,-4.923770000000047,-3.269410000000022,5.910376702123191,-7.355500000000006,3.189350000000019,8.01718988626939,-2.4317500000000223,2.691520000000025,3.627352749995546,-3.1891200000000026,2.375840000000011,3.976820599423624,6.042560000000037,-9.427519999999989,11.197797314829383,-2.36633999999998,3.247299999999996,4.018024674588233,4.259420000000034,-0.3449899999999957,4.27336832446026,0.0553799999999569,2.3733000000000004,2.3739460470701514,2.9589599999999336,-2.797930000000008,4.072328150640571,-1.7924599999999486,1.0958899999999971,2.100925449343648,3.745800000000088,-1.5930199999999957,4.0704705330465965,-11.692360000000008,2.7249000000000194,12.005680421350563,-6.249860000000012,2.547040000000038,6.748937900232922,-8.966999999999985,3.1308699999999874,9.497864810413953,-3.839000000000056,5.120139999999992,6.399512061055932,-3.984860000000026,1.5098600000000033,4.2613127600776055,-3.2076600000000326,-2.9831800000000044,4.380461800769439,-1.7557800000000157,2.733530000000002,3.248838203004278,2.243579999999952,2.2458600000000217,3.174513877115657,-9.312059999999974,1.9364199999999985,9.51126615440865,-9.331559999999968,2.175799999999981,9.581863997865932,-7.104900000000043,1.8870000000000005,7.351215750472885,-3.4587000000001358,4.567700000000002,5.729440546859785,2.9278850000000034,3.833590000000015,170.079787,3.7185096037888457,163.290299,6.718251550616848,169.91420399999998,8.73350137627091,-0.22894155,-0.089955362,0.1603782013054805,0,0
38,1266.6666666666663,445.77722,183.67883,0.46993434,445.31592,181.54869,0.4334473,446.5274,182.1041,0.14360496,449.59454,176.0376,0.68311024,450.85306,176.5661,0.15125135,464.31357,175.03532,0.9854982,459.3919,175.67543,0.9343166,472.73816,205.91483,0.9804263,467.0032,202.87764,0.8406581,464.45123,227.41357,0.9417406,457.49362,218.47342,0.77242845,510.79483,178.15652,0.9936771,507.1253,180.89182,0.98696625,513.08716,211.60663,0.9871975,506.98453,212.66243,0.97340775,552.3977,221.39642,0.95829874,548.13586,220.70337,0.93730855,0.50917714,0.09064317,0.43847711,-0.24245205,143.66014819404057,132.9952496605938,107.9046566818338,100.80238013913942,84.94274586090319,179.52417,175.355375,183.67883,107.08177999999998,52.37824999999998,2.044393960386345,172.5897347602651,0.7748983723529411,-1.8710800000000063,4.377290000000016,4.760421001392646,9.09114999999997,4.073260000000033,9.961950378821395,-2.1262800000000084,4.642009999999999,5.105812714788903,9.565819999999974,3.911840000000012,10.334766782951592,-1.0313199999999938,4.823459999999983,4.932482875185663,9.937520000000006,4.009739999999965,10.715984258013814,-2.0100100000000225,5.214280000000002,5.588278457494769,9.148259999999937,2.255170000000021,9.42212570264794,0.291840000000036,5.444379999999995,5.452196270311623,9.434570000000065,2.0983699999999885,9.665105676701168,-1.4391799999999648,4.180030000000016,4.420847189544108,9.209990000000062,1.4779800000000307,9.327826149779016,-2.0240499999999884,5.1292100000000005,5.514124919386571,5.331450000000018,1.9398599999999817,5.673395449120405,-1.25936999999999,-1.3245200000000068,1.82766682612012,1.9297500000000127,-3.7003600000000176,4.173319924484604,-1.778660000000002,0.979580000000027,2.030568484932252,0.5876799999999776,-2.2677199999999686,2.342631379624168,0.156530000000032,0.5559299999999894,0.5775463667966393,0.1011500000000751,-1.817370000000011,1.8201826939623549,-0.0890200000000049,-2.1124399999999923,2.1143148568744365,1.7034399999999437,-3.208329999999989,3.632504538538079,-4.7607099999999605,5.12845999999999,6.997532541953593,6.931650000000047,2.4035599999999704,7.336543627356176,-5.063800000000072,5.370900000000006,7.381641907462106,3.903199999999913,2.2400300000000186,4.500300505621753,0.3206200000000763,0.7265299999999968,0.7941303578758617,4.305480000000102,-0.7833300000000065,4.376158580227743,-0.4593699999999785,0.2638300000000129,0.5297424523294193,1.2964100000000371,-2.469699999999989,2.789282520308769,-2.1484400000000505,1.4983000000000004,2.619293287052868,7.163619999999924,-0.4381199999999978,7.177004990857879,-0.7749400000000151,1.6363699999999994,1.8105907269452204,6.329960000000028,-0.250630000000001,6.334919809950269,5.249679999999984,2.3217949999999803,172.944187,4.463477919343798,167.618872,5.930617827534318,174.48260599999998,8.772267802935875,0.1068557699999999,-0.146945104,0.1519516519068426,0,0
39,1300.0,448.76868,197.24802,0.6679408,449.00986,195.09727,0.6610569,449.09576,195.20978,0.31176305,453.19238,187.50253,0.7408702,450.14212,187.14638,0.19420172,467.84735,184.89809,0.98281074,457.11426,183.71815,0.9126684,474.6529,206.23988,0.9715929,462.02814,200.11412,0.77709395,462.94797,223.24904,0.93104917,451.33936,218.07773,0.7374965,509.27332,182.39893,0.98601574,501.26898,183.873,0.971563,509.13797,212.45073,0.9739401,499.66235,210.99583,0.9465803,549.3031,214.78311,0.9366331,540.55115,213.02281,0.9054077,0.91687739,-0.4686915,-0.30263518,0.72760179,127.77938327465873,132.56283814031448,93.0653685124232,89.44802612543464,91.569109623692,183.135965,184.30812,197.24802,100.53441999999995,40.85011,2.4610562257713315,-173.7263931007979,0.8005108394117647,2.9914600000000178,13.569189999999992,13.89502609525077,4.862540000000024,9.191899999999976,10.398813435272304,3.693939999999998,13.548580000000015,14.043119765208884,5.820220000000006,8.906570000000016,10.639640502070565,2.568359999999984,13.105680000000008,13.354973655983006,3.599679999999978,8.282220000000024,9.030662446952617,3.5978400000000192,11.46493000000001,12.0162004215351,5.607850000000042,6.250650000000007,8.397535772177488,-0.7109400000000505,10.580279999999988,10.604138841131787,-1.0027800000000866,5.135899999999992,5.23288032907309,3.533779999999979,9.862769999999983,10.476728170631302,4.972959999999944,5.682739999999967,7.551414772689887,-2.2776400000000194,8.042720000000003,8.359006458186292,-0.253590000000031,2.9135100000000023,2.9245253304083434,1.9147399999999948,0.3250500000000045,1.9421345911393428,3.1741099999999847,1.6495700000000113,3.5771574576750096,-4.975059999999985,-2.76352,5.6910688621734185,-3.196399999999983,-3.7431000000000263,4.922171326762213,-1.5032600000000116,-4.164529999999985,4.427538904233357,-1.6597900000000436,-4.720459999999974,5.003763129455661,-6.154260000000022,-0.3956900000000019,6.166967384679465,-6.065240000000017,1.7167499999999905,6.303520192725663,-1.521509999999978,4.242410000000007,4.506998478832669,3.2391999999999825,-0.8860499999999831,3.3581991070363677,-5.856319999999982,2.981179999999995,6.571447187248769,-0.7925199999999109,-2.389720000000011,2.517707216655644,-3.949190000000044,0.8440999999999974,4.038391569189439,-4.2698100000001205,0.1175700000000006,4.27142834904216,-7.322180000000003,-1.6665999999999883,7.509452410955142,-6.8628100000000245,-1.9304300000000008,7.129145887201379,-3.094600000000014,-6.613310000000013,7.301535339646056,-0.9461599999999636,-8.111610000000013,8.166604896632391,-7.584709999999973,-7.680560000000014,10.794388713479789,-6.809769999999958,-9.316930000000012,11.540283882028191,3.6117950000000008,-1.637884999999983,176.106708,5.048799060321861,172.527943,7.697509377388237,181.287496,10.81406807135154,0.97005384,-0.008941496,0.4265892669800421,0,0
40,1333.3333333333333,447.74377,198.1299,0.6586305,447.9424,195.49951,0.7441982,446.8225,196.2402,0.19373293,452.45663,190.51585,0.79692566,449.7556,191.62115,0.051587343,466.6523,187.8313,0.97591466,458.2042,190.98964,0.88331485,478.1297,204.90834,0.98045945,465.34225,207.82591,0.62622696,465.96347,225.01295,0.9664269,457.72083,220.41083,0.6949815,505.9559,187.14977,0.9855753,499.4104,190.6483,0.9656185,511.32498,207.96118,0.98236936,504.52734,210.83524,0.94508547,544.2158,224.91965,0.96319103,535.5843,226.08038,0.91374993,1.90706156,-1.16583326,0.55147401,1.40484627,114.91506048893304,125.82550736788636,131.74172858485673,130.36897691236723,90.7278987097318,188.899035,189.41047,198.1299,97.39329999999995,38.93061,2.5017151670185696,159.5016373064448,0.7839993260588236,-1.024910000000034,0.8818799999999953,1.3520920244199583,-4.016370000000052,-12.687309999999997,13.307857190885402,-1.0674599999999828,0.4022399999999777,1.1407312870259785,-4.7613999999999805,-13.146340000000038,13.982030802269062,-2.2732599999999934,1.0304199999999923,2.495891905511926,-4.841619999999978,-12.075260000000014,13.009734366696351,-0.7357499999999959,3.013319999999993,3.101842272730829,-4.333590000000015,-8.451610000000016,9.497879441233207,-0.3865199999999618,4.474770000000007,4.491432317568643,0.3244200000000887,-6.105509999999981,6.114123052122833,-1.1950499999999806,2.9332100000000025,3.167312015984527,-4.72882999999996,-6.929559999999981,8.389316716068082,1.0899400000000128,7.27149,7.352723034611056,3.367580000000032,-0.7712300000000027,3.4547634896328607,3.4768000000000256,-1.3315399999999895,3.723054795675206,1.5620600000000309,-1.6565899999999942,2.276910598091211,3.314109999999971,7.711789999999979,8.393749465894219,8.289169999999956,10.47530999999998,13.358235620208188,3.0154999999999745,1.7639099999999814,3.493510947184763,4.518759999999986,5.928439999999966,7.454233211484564,6.381469999999979,2.3331000000000017,6.794594540581486,12.53573,2.728790000000004,12.829295440397342,-3.317420000000027,4.750839999999982,5.79445909140793,-1.795910000000049,0.5084299999999757,1.866492376893126,-1.8585800000000177,6.775300000000016,7.025596750910222,3.9977399999999648,3.794120000000021,5.51155800858522,2.1870099999999866,-4.48954999999998,4.993903477501318,6.136200000000031,-5.333649999999977,8.1302381737868,4.8649899999999775,-0.1605900000000133,4.867639761547663,12.18716999999998,1.506009999999975,12.279868840056862,-5.087300000000028,10.136539999999997,11.341519495270472,-1.9927000000000132,16.74985000000001,16.867967521681454,-4.966850000000022,13.057569999999998,13.970316146293904,2.6178599999999506,20.73813000000001,20.90270860143489,5.763069999999999,2.1512749999999983,179.43605300000002,6.987954695285082,177.505955,9.137870625299374,187.47116,9.514763947978125,0.6772444799999999,0.284064384,0.7574334169538744,0,0
