frame_id,timestamp_ms,nose_x,nose_y,nose_conf,left_eye_x,left_eye_y,left_eye_conf,right_eye_x,right_eye_y,right_eye_conf,left_ear_x,left_ear_y,left_ear_conf,right_ear_x,right_ear_y,right_ear_conf,left_shoulder_x,left_shoulder_y,left_shoulder_conf,right_shoulder_x,right_shoulder_y,right_shoulder_conf,left_elbow_x,left_elbow_y,left_elbow_conf,right_elbow_x,right_elbow_y,right_elbow_conf,left_wrist_x,left_wrist_y,left_wrist_conf,right_wrist_x,right_wrist_y,right_wrist_conf,left_hip_x,left_hip_y,left_hip_conf,right_hip_x,right_hip_y,right_hip_conf,left_knee_x,left_knee_y,left_knee_conf,right_knee_x,right_knee_y,right_knee_conf,left_ankle_x,left_ankle_y,left_ankle_conf,right_ankle_x,right_ankle_y,right_ankle_conf,acc_x,acc_y,acc_z,acc_mag,left_elbow_angle,right_elbow_angle,left_knee_angle,right_knee_angle,spine_angle,hip_height,shoulder_height,head_height,bbox_width,bbox_height,bbox_aspect_ratio,shoulder_tilt,avg_confidence,nose_vx,nose_vy,nose_speed,nose_ax,nose_ay,nose_accel,left_eye_vx,left_eye_vy,left_eye_speed,left_eye_ax,left_eye_ay,left_eye_accel,right_eye_vx,right_eye_vy,right_eye_speed,right_eye_ax,right_eye_ay,right_eye_accel,left_ear_vx,left_ear_vy,left_ear_speed,left_ear_ax,left_ear_ay,left_ear_accel,right_ear_vx,right_ear_vy,right_ear_speed,right_ear_ax,right_ear_ay,right_ear_accel,left_shoulder_vx,left_shoulder_vy,left_shoulder_speed,left_shoulder_ax,left_shoulder_ay,left_shoulder_accel,right_shoulder_vx,right_shoulder_vy,right_shoulder_speed,right_shoulder_ax,right_shoulder_ay,right_shoulder_accel,left_elbow_vx,left_elbow_vy,left_elbow_speed,left_elbow_ax,left_elbow_ay,left_elbow_accel,right_elbow_vx,right_elbow_vy,right_elbow_speed,right_elbow_ax,right_elbow_ay,right_elbow_accel,left_wrist_vx,left_wrist_vy,left_wrist_speed,left_wrist_ax,left_wrist_ay,left_wrist_accel,right_wrist_vx,right_wrist_vy,right_wrist_speed,right_wrist_ax,right_wrist_ay,right_wrist_accel,left_hip_vx,left_hip_vy,left_hip_speed,left_hip_ax,left_hip_ay,left_hip_accel,right_hip_vx,right_hip_vy,right_hip_speed,right_hip_ax,right_hip_ay,right_hip_accel,left_knee_vx,left_knee_vy,left_knee_speed,left_knee_ax,left_knee_ay,left_knee_accel,right_knee_vx,right_knee_vy,right_knee_speed,right_knee_ax,right_knee_ay,right_knee_accel,left_ankle_vx,left_ankle_vy,left_ankle_speed,left_ankle_ax,left_ankle_ay,left_ankle_accel,right_ankle_vx,right_ankle_vy,right_ankle_speed,right_ankle_ax,right_ankle_ay,right_ankle_accel,hip_velocity,hip_acceleration,hip_height_mean_5,hip_height_std_5,shoulder_height_mean_5,shoulder_height_std_5,head_height_mean_5,head_height_std_5,acc_mag_diff,acc_mag_mean_5,acc_mag_std_5,label_binary,label_3class
0,0.0,521.9395,61.39634,0.95047057,524.3612,58.92993,0.9464747,519.867,59.38758,0.85616314,529.13055,60.40873,0.86852825,517.7521,61.64193,0.47375718,535.80597,74.72435,0.99418265,515.9733,76.09383,0.9887566,542.5089,91.909744,0.97775286,513.66144,91.05473,0.9019776,544.9712,106.16773,0.95867044,517.1931,94.98448,0.86780506,535.5435,108.26571,0.9924269,522.8152,109.00012,0.9890682,537.88293,134.05428,0.9777671,524.60284,134.65952,0.96281,539.35406,156.14975,0.9375895,526.3168,156.40363,0.9108704,1.09044988,-0.0967843,1.02556971,0.35765976,168.49052272254482,129.26976139670657,178.62571903953176,179.47826425384972,5.654826466796218,108.632915,75.40908999999999,61.39634,31.309759999999983,97.4737,0.3212123852771322,176.0498980560565,0.9150041852941178,0.0,0.0,0.0,0.0,0.0,0.0,0.0,0.0,0.0,0.0,0.0,0.0,0.0,0.0,0.0,0.0,0.0,0.0,0.0,0.0,0.0,0.0,0.0,0.0,0.0,0.0,0.0,0.0,0.0,0.0,0.0,0.0,0.0,0.0,0.0,0.0,0.0,0.0,0.0,0.0,0.0,0.0,0.0,0.0,0.0,0.0,0.0,0.0,0.0,0.0,0.0,0.0,0.0,0.0,0.0,0.0,0.0,0.0,0.0,0.0,0.0,0.0,0.0,0.0,0.0,0.0,0.0,0.0,0.0,0.0,0.0,0.0,0.0,0.0,0.0,0.0,0.0,0.0,0.0,0.0,0.0,0.0,0.0,0.0,0.0,0.0,0.0,0.0,0.0,0.0,0.0,0.0,0.0,0.0,0.0,0.0,0.0,0.0,0.0,0.0,0.0,0.0,0.0,0.0,108.632915,0.0,75.40908999999999,0.0,61.39634,0.0,0.0,0.35765976,0.0,0,0
1,33.333333333333336,521.1819,61.706207,0.9509797,523.4906,59.19484,0.94339544,518.94525,59.749435,0.8652945,527.9794,60.712593,0.8534191,516.49384,62.16571,0.50770706,534.72766,75.04585,0.9940402,514.81433,76.67732,0.9897245,542.4806,91.84646,0.9760374,512.4809,91.0283,0.9130525,545.39655,105.59659,0.9561925,515.57825,93.275635,0.8791786,535.1885,108.64414,0.9926541,522.4123,109.580414,0.9900738,537.17194,134.2888,0.9782693,524.10944,135.12393,0.9660855,539.2114,156.23224,0.93906474,526.26306,156.84457,0.91700536,1.1350001,-0.01670389,1.06364475,0.3957348,167.20136242903678,116.72808500434792,179.11271627101058,178.13878790536404,6.909573756207461,109.112277,75.86158499999999,61.706207,32.91565000000003,97.64973,0.3370787575441454,175.31630133859773,0.918363194117647,-0.7575999999999112,0.309866999999997,0.8185201999272002,-0.7575999999999112,0.309866999999997,0.8185201999272002,-0.8706000000000813,0.2649100000000004,0.9100119054716492,-0.8706000000000813,0.2649100000000004,0.9100119054716492,-0.9217499999999744,0.3618549999999985,0.9902333581156272,-0.9217499999999744,0.3618549999999985,0.9902333581156272,-1.151149999999916,0.3038629999999997,1.1905792897866174,-1.151149999999916,0.3038629999999997,1.1905792897866174,-1.258260000000064,0.523779999999995,1.3629246919768367,-1.258260000000064,0.523779999999995,1.3629246919768367,-1.0783099999999877,0.3215000000000003,1.1252176261061562,-1.0783099999999877,0.3215000000000003,1.1252176261061562,-1.158969999999954,0.5834899999999976,1.2975638870590882,-1.158969999999954,0.5834899999999976,1.2975638870590882,-0.0283000000000583,-0.0632840000000101,0.0693235505149915,-0.0283000000000583,-0.0632840000000101,0.0693235505149915,-1.1805399999999509,-0.0264300000000048,1.1808358211452954,-1.1805399999999509,-0.0264300000000048,1.1808358211452954,0.425350000000094,-0.5711399999999998,0.7121260577314101,0.425350000000094,-0.5711399999999998,0.7121260577314101,-1.614849999999933,-1.7088450000000108,2.3511469023701643,-1.614849999999933,-1.7088450000000108,2.3511469023701643,-0.3550000000000182,0.3784299999999945,0.5188778901630023,-0.3550000000000182,0.3784299999999945,0.5188778901630023,-0.4029000000000451,0.5802940000000092,0.7064485377124416,-0.4029000000000451,0.5802940000000092,0.7064485377124416,-0.710990000000038,0.2345200000000034,0.7486697606422044,-0.710990000000038,0.2345200000000034,0.7486697606422044,-0.4934000000000651,0.4644100000000151,0.6775840966995007,-0.4934000000000651,0.4644100000000151,0.6775840966995007,-0.142659999999978,0.0824899999999786,0.1647922197799101,-0.142659999999978,0.0824899999999786,0.1647922197799101,-0.0537399999999479,0.4409400000000119,0.4442027365967086,-0.0537399999999479,0.4409400000000119,0.4442027365967086,0.4793620000000089,0.4793620000000089,108.872596,0.3389601208431521,75.63533749999999,0.3199622829530061,61.5512735,0.2191090569659298,0.03807504,0.37669728,0.026923118977949,0,0
2,66.66666666666667,520.06696,61.421738,0.95275366,522.29486,58.836105,0.94236517,517.6368,59.539703,0.87550086,526.89935,60.47728,0.8404095,515.1238,62.267654,0.5400453,533.8877,74.866394,0.9939866,513.8025,76.949165,0.9911696,542.32495,91.60556,0.97117865,510.3789,91.97498,0.91871154,545.4247,105.020485,0.94660187,513.36786,95.224754,0.8786151,535.42163,108.78314,0.9918384,522.50916,109.90484,0.9899368,536.7931,134.39456,0.9719731,523.5753,135.39005,0.96025234,538.2619,157.5315,0.92411053,525.7052,158.37723,0.9037966,1.11318312,0.00417597,1.02630665,0.43110775,166.2607844048776,124.55829263875908,179.43277576296452,177.10181143958684,8.706433556248413,109.34399,75.9077795,61.421738,35.04580000000004,99.541125,0.3520735740923811,174.0797705384993,0.9172497423529412,-1.114940000000047,-0.2844690000000014,1.1506579924378508,-0.3573400000001356,-0.5943359999999984,0.6934891177921215,-1.1957400000000007,-0.3587349999999958,1.24839294608108,-0.3251399999999194,-0.6236449999999962,0.703312949990929,-1.3084499999999937,-0.2097319999999953,1.325152411733828,-0.3867000000000189,-0.5715869999999938,0.6901076644763537,-1.0800500000000284,-0.2353129999999978,1.1053869053272978,0.0710999999998875,-0.5391759999999977,0.5438436990312395,-1.3700400000000172,0.1019440000000031,1.3738275658670007,-0.1117799999999533,-0.4218359999999919,0.4363947516824449,-0.8399600000000191,-0.1794560000000018,0.8589163274359342,0.2383499999999685,-0.5009560000000022,0.5547680924818831,-1.0118300000000318,0.271844999999999,1.0477116267967364,0.1471399999999221,-0.3116449999999986,0.3446342780760152,-0.1556500000000369,-0.2408999999999963,0.2868095753283173,-0.1273499999999785,-0.1776159999999862,0.2185531193005253,-2.1020000000000323,0.9466800000000006,2.305343146345059,-0.9214600000000814,0.9731100000000056,1.3401610364803778,0.0281499999999823,-0.5761050000000125,0.57679233136807,-0.3972000000001117,-0.0049650000000127,0.3972310300380483,-2.210390000000075,1.9491190000000105,2.9470135439562157,-0.5955400000001418,3.657964000000021,3.706125809642237,0.2331300000000737,0.13900000000001,0.2714232799522494,0.588130000000092,-0.2394299999999845,0.6349989148023016,0.0968599999999924,0.3244259999999883,0.3385765630931813,0.4997600000000375,-0.2558680000000208,0.5614521270990503,-0.3788399999999683,0.1057600000000036,0.3933254672659485,0.3321500000000696,-0.1287599999999997,0.3562341366293329,-0.5341399999999794,0.2661200000000008,0.596762426766279,-0.0407399999999142,-0.1982900000000143,0.2024318939791817,-0.9495000000000572,1.299260000000004,1.6092317414220112,-0.8068400000000793,1.2167700000000252,1.4599726088184632,-0.5578600000000051,1.5326599999999928,1.6310286494111574,-0.5041200000000572,1.091719999999981,1.2024930489612056,0.2317129999999849,-0.247649000000024,109.02972733333333,0.3626537598127631,75.7261515,0.2755530421611261,61.508095,0.172039350176056,0.03537295,0.3948341033333333,0.0367322780347752,0,0
3,100.0,518.15576,61.59665,0.95202065,520.5071,59.087845,0.9463705,516.08826,59.660583,0.8593486,525.73645,60.707886,0.8621753,514.4108,62.189125,0.48486966,533.20264,75.10689,0.9945596,513.3617,76.50138,0.99073875,541.89844,92.10133,0.9765869,509.78424,90.74134,0.91483444,545.2476,104.781456,0.9558151,513.1506,92.316734,0.87885404,534.3368,109.006096,0.9926311,521.8273,109.78453,0.990194,535.8301,134.68373,0.9744315,524.56024,135.34424,0.960716,537.33307,158.09744,0.9279098,527.83954,158.36957,0.9032548,1.17269558,0.11201432,1.03367601,0.54238513,167.69731853235692,100.97633980623084,179.6554254367893,177.99745439840098,8.132020224567418,109.395313,75.804135,61.59665,35.46336000000002,99.281725,0.3571992694808712,175.97966525990725,0.9156065141176472,-1.911200000000008,0.174911999999999,1.9191872362393487,-0.7962599999999611,0.4593810000000005,0.9192719351535424,-1.7877599999999347,0.2517399999999981,1.8053971433454097,-0.592019999999934,0.6104749999999939,0.8503925011575034,-1.5485400000000027,0.1208799999999996,1.553250818766888,-0.2400900000000092,0.330611999999995,0.4085920981174271,-1.162900000000036,0.2306060000000016,1.1855444054256612,-0.0828500000000076,0.4659189999999995,0.4732278912543097,-0.7129999999999654,-0.0785290000000031,0.7173115110194115,0.6570400000000518,-0.1804730000000063,0.681375128199636,-0.6850600000000213,0.2404960000000073,0.7260478838313853,0.1548999999999978,0.4199520000000092,0.447608860841703,-0.4407999999999674,-0.4477849999999961,0.6283438916906632,0.5710300000000643,-0.7196299999999951,0.9186634845252456,-0.4265099999998938,0.4957700000000073,0.6539867529238774,-0.2708599999998569,0.7366700000000037,0.7848871437983476,-0.5946599999999762,-1.2336400000000085,1.369484634890071,1.507340000000056,-2.180320000000009,2.65063561773402,-0.1770999999999958,-0.2390289999999879,0.2974882734512282,-0.2052499999999781,0.3370760000000246,0.3946489481501345,-0.2172599999998965,-2.908020000000008,2.916124522032624,1.9931300000001784,-4.857139000000018,5.250177755297614,-1.0848300000000108,0.2229559999999963,1.10750417915059,-1.3179600000000846,0.0839559999999863,1.3206313533822451,-0.6818599999999151,-0.1203099999999892,0.6923926311709864,-0.7787199999999075,-0.4447359999999776,0.8967691721373098,-0.9629999999999654,0.2891699999999844,1.005479133995293,-0.5841599999999971,0.1834099999999807,0.6122761907015408,0.9849400000000514,-0.0458099999999888,0.9860047462868018,1.5190800000000309,-0.3119299999999896,1.55077540969029,-0.928829999999948,0.5659400000000119,1.087664126695331,0.0206700000001092,-0.733319999999992,0.7336112535260025,2.1343400000000656,-0.0076599999999871,2.134353745563345,2.6922000000000708,-1.54031999999998,3.1016973647344,0.0513230000000106,-0.1803899999999743,109.12112375,0.3479823552838824,75.745647375,0.2283418692755011,61.53023375,0.1472826840203893,0.1112773799999999,0.43172186,0.0796387669460014,0,0
4,133.33333333333334,517.45544,61.51117,0.95120806,519.72253,58.989624,0.94251853,515.2868,59.579697,0.8628685,524.6807,60.54309,0.8478872,513.37616,62.058647,0.50559974,531.81635,74.82051,0.99435186,512.4973,76.19571,0.9911618,541.06244,91.82894,0.9756738,509.15604,90.108116,0.92324007,545.19055,104.98076,0.95487016,512.1147,91.247185,0.88878256,533.14606,108.749504,0.9925712,521.06824,109.60036,0.99059075,534.79706,134.67235,0.9734004,524.74963,135.43925,0.961368,536.52985,157.95883,0.92351913,528.3105,158.42369,0.9014177,1.07750386,0.03979456,0.95752592,0.49251911,168.89679277394185,97.55182945312364,179.3885380639936,179.30207318436425,8.364767752876825,109.174932,75.50811,61.51117,36.03451000000001,99.434066,0.3623960186602848,175.92834664993637,0.9165311447058824,-0.7003200000000334,-0.0854799999999968,0.7055174929086069,1.2108799999999746,-0.2603919999999959,1.2385614106954634,-0.7845700000000306,-0.0982210000000023,0.7906942833618114,1.003189999999904,-0.3499610000000004,1.0624795892725694,-0.80146000000002,-0.0808859999999995,0.8055313008170645,0.7470799999999826,-0.2017659999999992,0.7738462671331909,-1.055749999999989,-0.1647960000000026,1.068534409420669,0.1071500000000469,-0.3954020000000042,0.4096631104993631,-1.0346399999999676,-0.1304779999999965,1.042834808626914,-0.3216400000000021,-0.0519489999999933,0.3258082076943438,-1.3862899999999172,-0.2863800000000083,1.415561185007478,-0.7012299999998959,-0.5268760000000157,0.8771099316937818,-0.864400000000046,-0.3056699999999921,0.9168541371996284,-0.4236000000000786,0.142115000000004,0.4468037972366256,-0.8360000000000127,-0.2723900000000014,0.8792566815782648,-0.4094900000001189,-0.7681600000000088,0.8704894288273183,-0.6281999999999925,-0.6332239999999985,0.8919685387814913,-0.0335400000000163,0.6004160000000098,0.6013520638162082,-0.0570500000000038,0.1993039999999979,0.2073084342616084,0.120049999999992,0.4383329999999859,0.4544753253907033,-1.0359000000000833,-1.069548999999995,1.4889673849353322,-0.8186400000001868,1.8384710000000128,2.012497718617676,-1.1907400000000052,-0.2565919999999977,1.218072740875524,-0.1059099999999944,-0.4795479999999941,0.4911040749209816,-0.7590600000000904,-0.1841700000000088,0.7810830125538133,-0.0772000000001753,-0.0638600000000195,0.1001895184140016,-1.0330400000000282,-0.0113800000000026,1.033102679311238,-0.0700400000000627,-0.300549999999987,0.3086031498543088,0.189390000000003,0.0950099999999736,0.2118855167301346,-0.7955500000000484,0.1408199999999624,0.8079171213064286,-0.8032200000000103,-0.1386099999999999,0.8150920809945441,0.1256099999999378,-0.7045500000000118,0.7156595381883769,0.4709599999999909,0.0541199999999832,0.4740593802468101,-1.663380000000075,0.0617799999999704,1.6645268975898964,-0.2203810000000032,-0.2717040000000139,109.13188540000002,0.3023207820268085,75.6981399,0.2244767423421649,61.526421000000006,0.1278351558531526,-0.04986602,0.44388131,0.0741350863088601,0,0
5,166.66666666666666,516.4584,61.76204,0.9484407,518.60236,59.179344,0.9396427,514.1848,59.749832,0.86316043,523.32416,60.468124,0.83124024,511.8826,61.867912,0.506823,530.69995,74.581314,0.9930067,511.04337,75.973305,0.98825675,541.5781,91.05467,0.96458423,508.95724,89.984436,0.8847526,545.7623,104.04932,0.93178344,511.56018,90.80896,0.83321816,532.406,110.003975,0.98972344,519.9902,110.89877,0.98655534,535.0731,136.17448,0.95970285,523.21045,137.02307,0.9410667,538.1043,159.50381,0.89904463,527.314,160.11584,0.8698755,0.88734416,0.00712372,0.79539993,0.39327835,164.4095454973954,99.10784574092364,178.41604220216425,176.95100402948478,8.610939809588725,110.4513725,75.2773095,61.76204,36.80505999999997,100.936496,0.3646357967029505,175.94933150590032,0.901816318235294,-0.99703999999997,0.250869999999999,1.028116977050734,-0.2967199999999366,0.3363499999999959,0.4485243370208128,-1.12017000000003,0.1897200000000012,1.1361225758253677,-0.3355999999999994,0.2879410000000035,0.4421960871389543,-1.1019999999999754,0.1701349999999948,1.1150560157341622,-0.3005399999999554,0.2510209999999944,0.3915811972515667,-1.3565399999999954,-0.0749659999999963,1.3586098309507355,-0.3007900000000063,0.0898300000000063,0.3139172709488997,-1.4935600000000022,-0.1907350000000036,1.5056896472464063,-0.4589200000000346,-0.0602570000000071,0.462859020057979,-1.1164000000001124,-0.2391959999999926,1.1417371354283996,0.2698899999998048,0.0471840000000156,0.2739834702238369,-1.453930000000014,-0.222405000000009,1.4708420815726766,-0.5895299999999679,0.083264999999983,0.5953811225802842,0.5156599999999116,-0.7742700000000013,0.9302683851985464,1.3516599999999244,-0.5018799999999999,1.441828106953043,-0.1988000000000056,-0.1236799999999931,0.2341328306752398,0.4293999999999869,0.5095440000000053,0.6663478430489546,0.5717499999999518,-0.9314400000000091,1.0929220173918914,0.6287999999999556,-1.130744000000007,1.2938204796400312,-0.5545199999999681,-0.4382250000000027,0.706776896216173,0.4813800000001151,0.6313239999999922,0.7939122730982946,-0.740060000000085,1.2544709999999952,1.4564979551791737,0.4506799999999202,1.511062999999993,1.5768398309178098,-1.0780399999999872,1.298410000000004,1.6876133353644676,-0.3189799999998968,1.4825800000000129,1.5165064117239904,0.2760399999999663,1.502129999999994,1.527282756564731,1.3090799999999945,1.5135099999999966,2.00110043888356,-1.5391799999999876,1.583820000000003,2.208520062123043,-1.7285699999999906,1.4888100000000293,2.281339400659195,1.5744499999999562,1.5449799999999811,2.205868537084612,2.3776699999999664,1.683589999999981,2.913381182921277,-0.9965000000000828,1.692149999999998,1.9637677745854163,-1.4674600000000737,1.6380300000000148,2.199222847394112,1.2764404999999923,1.4968214999999958,109.4955769,0.5468794730354595,75.6717838,0.270015921867719,61.599561,0.1389381669016878,-0.0992407599999999,0.451005028,0.0649168914338365,0,0
6,200.0,515.70215,62.038605,0.94165653,517.7836,59.418106,0.92932665,513.4167,60.111282,0.8462779,522.418,60.48967,0.8202697,511.19022,62.29155,0.4971881,529.9627,74.17668,0.993016,510.24512,76.30534,0.9888353,540.7268,90.24183,0.9697409,507.68774,90.30437,0.9070606,544.6508,103.22959,0.9449718,511.19904,91.5195,0.8683312,531.96265,108.785965,0.9914927,519.7136,110.08774,0.98911613,534.3921,134.56747,0.9719706,524.89185,135.80489,0.95967275,535.648,158.02927,0.92332643,528.7392,159.10432,0.90180695,0.88734416,0.00712372,0.79539993,0.39327835,162.98798207299842,98.73604383431793,177.68087587759752,177.991924645272,9.519230717558376,109.4368525,75.24101,62.038605,36.963059999999984,99.686214,0.3707940962549333,173.83835641001238,0.9084741317647058,-0.7562500000000227,0.2765649999999979,0.8052342899585395,0.2407899999999472,0.0256949999999989,0.2421570918329143,-0.8187599999999975,0.2387620000000012,0.8528629609990086,0.3014100000000326,0.049042,0.3053737150836981,-0.768100000000004,0.3614500000000049,0.8488955839795668,0.3338999999999714,0.1913150000000101,0.3848254659257684,-0.90616,0.0215459999999936,0.9064161162049136,0.4503799999999955,0.0965119999999899,0.4606047226679228,-0.6923800000000142,0.4236380000000039,0.8117014349155871,0.801179999999988,0.6143730000000076,1.0096254629955557,-0.7372499999999036,-0.4046340000000015,0.8409912225795576,0.3791500000002088,-0.1654380000000088,0.4136719163106934,-0.7982499999999959,0.3320350000000047,0.8645520827139315,0.655680000000018,0.5544400000000138,0.8586733814437472,-0.8512999999999238,-0.8128400000000084,1.177038892985225,-1.3669599999998354,-0.0385700000000071,1.3675040352772458,-1.2694999999999936,0.3199340000000035,1.3091936504413646,-1.070699999999988,0.4436139999999966,1.1589615485407492,-1.1114999999999782,-0.8197299999999927,1.3810827357185882,-1.68324999999993,0.1117100000000164,1.6869527813782363,-0.3611399999999776,0.7105399999999946,0.7970503065678954,0.1933799999999905,1.1487649999999974,1.1649278302216797,-0.4433499999998957,-1.2180099999999925,1.296189639906094,0.2967100000001892,-2.472480999999988,2.4902206969385365,-0.2765999999999167,-0.8110300000000024,0.8568997729606175,0.8014400000000705,-2.1094400000000064,2.2565556025057614,-0.6809999999999263,-1.6070100000000025,1.7453487159017558,-0.9570399999998926,-3.1091399999999965,3.2531026883883905,1.6813999999999396,-1.2181799999999896,2.076311265778754,3.220579999999927,-2.8019999999999925,4.268880360984539,-2.456299999999942,-1.4745399999999904,2.8649045187579443,-4.030749999999898,-3.019519999999972,5.036312797364656,1.425200000000018,-1.0115199999999902,1.7476749555910078,2.4217000000001008,-2.703669999999988,3.6296642212332015,-1.0145199999999903,-2.290960499999983,109.560492,0.5078800357578228,75.5476688,0.3017255778718078,61.6660406,0.2431582999957057,0.0,0.450513738,0.0654468784476258,0,0
7,233.3333333333333,514.5443,62.251945,0.9341032,516.709,59.674416,0.9207017,512.39294,60.228798,0.81422275,521.6257,60.485878,0.81989616,510.5201,62.0355,0.42425916,529.3119,73.68832,0.99271214,509.42218,75.61416,0.9867748,540.3894,88.940865,0.97420985,506.42053,88.813126,0.90917444,544.7742,103.38808,0.9537705,508.57074,93.36938,0.87903446,529.9774,108.165665,0.993038,517.73773,109.34119,0.9906565,532.25653,133.7481,0.9822552,522.7014,134.87444,0.9728932,533.4794,156.6962,0.9494199,526.01447,157.56769,0.93085235,0.76846846,0.11201432,0.70303725,0.28937033,160.8934356500418,141.92415795006715,177.9592988926503,177.30503539605502,7.501477261850926,108.7534275,74.65124,62.251945,38.353669999999966,97.893274,0.3917906516050257,174.46952490256675,0.9075279005882352,-1.1578499999999394,0.2133400000000023,1.1773404682163358,-0.4015999999999167,-0.0632249999999956,0.4065463818864122,-1.0746000000000322,0.2563099999999991,1.1047443034929254,-0.2558400000000347,0.0175479999999979,0.2564411002628434,-1.0237600000000384,0.1175159999999948,1.030482677125665,-0.2556600000000344,-0.2439340000000101,0.3533635973838031,-0.7922999999999547,-0.0037919999999971,0.7923090743289062,0.1138600000000451,-0.0253379999999907,0.1166452478415208,-0.6701199999999972,-0.2560500000000019,0.7173718818715974,0.022260000000017,-0.6796880000000058,0.6800524133800341,-0.6508000000000038,-0.4883600000000001,0.8136560265861768,0.0864499999998997,-0.0837259999999986,0.1203480185793785,-0.82293999999996,-0.6911800000000028,1.0746906699138772,-0.0246899999999641,-1.0232150000000075,1.0235128393552344,-0.3374000000000023,-1.3009649999999908,1.3440047214295705,0.5138999999999214,-0.4881249999999824,0.7087730423943212,-1.267210000000034,-1.491244000000009,1.9569440083037923,0.0022899999999594,-1.8111780000000124,1.8111794477036351,0.1233999999999468,0.1584900000000004,0.2008647308513543,1.234899999999925,0.9782199999999932,1.5754022909719922,-2.6283000000000243,1.849880000000013,3.2140343657777177,-2.2671600000000467,1.1393400000000184,2.537343118539598,-1.9852500000000648,-0.6203000000000003,2.079901356435025,-1.5419000000001688,0.5977099999999922,1.653696723737612,-1.9758699999999865,-0.7465499999999992,2.1122024428070203,-1.6992700000000696,0.0644800000000032,1.7004929295060998,-2.1355700000000297,-0.8193699999999922,2.287362328491076,-1.4545700000001034,0.7876400000000103,1.654131389733088,-2.1904499999999416,-0.9304500000000075,2.379875712090814,-3.871849999999881,0.287729999999982,3.882526365061681,-2.168599999999969,-1.3330699999999922,2.545565081646872,0.2876999999999725,0.1414699999999982,0.3206010775090809,-2.7247300000000223,-1.5366300000000024,3.1281600550163877,-4.14993000000004,-0.5251100000000122,4.183020382092388,-0.6834249999999997,0.3310949999999906,109.4423795,0.6257986299043133,75.2963609,0.4249352514122661,61.832082,0.30913399539278,-0.1039080199999999,0.4221662539999999,0.0983690524505806,0,0
8,266.6666666666667,514.36725,62.74237,0.92972106,516.41705,60.185028,0.90799236,512.0604,60.73706,0.8197012,520.91876,61.02334,0.78974855,509.9206,62.510254,0.47033283,528.74445,74.18723,0.99188304,508.51855,75.954346,0.98771787,540.1388,89.87471,0.96394014,505.457,89.45508,0.90874106,543.6281,104.31007,0.93508714,507.46146,94.1251,0.8690794,529.3406,108.206665,0.9919457,516.89154,109.31923,0.9903099,531.85864,133.71881,0.97675973,522.2332,134.84213,0.9685773,531.57965,157.48625,0.9382012,524.65894,158.41891,0.92271674,0.76851847,0.16310857,0.71212613,0.23852172,157.59664170521236,143.993256133316,173.69065613361346,174.05355804038638,7.581760037710608,108.7629475,75.070788,62.74237,38.17110000000002,98.233882,0.388573665565068,175.00680605232952,0.9036738364705882,-0.1770500000000083,0.4904250000000019,0.5214052005158798,0.9807999999999312,0.2770849999999996,1.0191882736888531,-0.2919499999999289,0.5106120000000018,0.5881831492349643,0.7826500000001033,0.2543020000000027,0.8229280221891603,-0.3325399999999945,0.508262000000002,0.6073821797221238,0.6912200000000439,0.3907460000000071,0.7940198517140905,-0.7069400000000314,0.5374619999999979,0.8880481772088957,0.0853599999999232,0.541253999999995,0.5479436304182954,-0.5995000000000346,0.4747540000000043,0.7647166864375626,0.0706199999999626,0.7308040000000062,0.73420819310057,-0.567450000000008,0.4989099999999951,0.7555863224013549,0.0833499999999958,0.9872699999999952,0.990782153351578,-0.903630000000021,0.3401860000000027,0.9655432105794332,-0.0806900000000609,1.0313660000000056,1.034517618050085,-0.2506000000000767,0.9338449999999908,0.966885124523602,0.0867999999999256,2.2348099999999818,2.23649502036108,-0.9635299999999916,0.6419539999999984,1.157797477547771,0.3036800000000426,2.1331980000000077,2.154705374199465,-1.146099999999933,0.921989999999994,1.4709217416639933,-1.26949999999988,0.7634999999999934,1.4814055825464156,-1.1092800000000125,0.7557199999999966,1.3422424657266745,1.5190200000000118,-1.0941600000000165,1.8720597923143565,-0.6367999999999938,0.0409999999999968,0.6381185156379588,1.3484500000000708,0.6612999999999971,1.5018771895531895,-0.8461900000000924,-0.0219599999999928,0.8464749008093246,1.129679999999894,0.7245900000000063,1.3420907460003475,-0.3978899999999612,-0.0292900000000031,0.3989666103823343,1.7376800000000685,0.790079999999989,1.9088630618250804,-0.4682000000000244,-0.0323099999999954,0.4693135157866461,1.7222499999999172,0.8981400000000122,1.9423698211462557,-1.89975000000004,0.7900500000000079,2.057481242927907,0.2688499999999294,2.12312,2.140074497978975,-1.3555299999999306,0.8512200000000121,1.6006364575692484,1.3692000000000917,2.3878500000000145,2.752550864652699,0.0095199999999948,0.6929449999999946,109.3159064,0.6974831651810955,75.14969149999999,0.3192839268085046,62.061226,0.4724712851248273,-0.05084861,0.361393572,0.0993881585679457,0,0
9,300.0,513.02716,63.09636,0.92773986,515.11426,60.543747,0.91250753,510.81647,61.08528,0.80010974,519.8324,61.30345,0.8121126,508.9688,62.783127,0.4199541,527.74677,74.30028,0.99233574,507.92505,76.02,0.98615485,539.1784,90.06434,0.96879816,505.07727,89.42029,0.8943377,542.8788,104.86079,0.9424291,506.93497,94.01645,0.8561471,528.3473,108.07388,0.99239904,516.17633,109.14702,0.98991853,530.8723,133.76962,0.9788725,521.638,134.87013,0.9682281,530.8733,157.75787,0.94348913,524.25726,158.60571,0.9236162,1.04460101,0.07271105,0.9752124,0.36723993,158.092423612637,145.99437454447573,174.39021725767944,174.30987484872026,7.537199021683929,108.61045,75.16014,63.09636,37.80152999999996,98.061963,0.385486160566802,175.0414704788565,0.900538234117647,-1.340090000000032,0.353989999999996,1.386055600688545,-1.1630400000000236,-0.1364350000000058,1.171015179587804,-1.3027900000000727,0.3587190000000007,1.3512738823277797,-1.0108400000001438,-0.1518930000000011,1.0221883334539146,-1.2439299999999776,0.3482199999999977,1.2917503680277944,-0.911389999999983,-0.1600420000000042,0.9253351683924969,-1.086360000000013,0.2801100000000005,1.1218911095556596,-0.3794199999999819,-0.2573519999999973,0.4584643806273121,-0.9517999999999917,0.272872999999997,0.9901428756139096,-0.352299999999957,-0.2018810000000073,0.4060433821169514,-0.9976800000000594,0.1130500000000012,1.0040645820364935,-0.4302300000000514,-0.3858599999999939,0.5779150391710182,-0.5935000000000059,0.065653999999995,0.5971203377176215,0.3101300000000151,-0.2745320000000077,0.4141840604417481,-0.960399999999936,0.1896300000000081,0.9789421315378556,-0.7097999999998592,-0.7442149999999828,1.02843181894804,-0.379729999999995,-0.0347900000000009,0.3813203600648623,0.5837999999999965,-0.6767439999999993,0.8937588497665324,-0.749300000000062,0.5507199999999983,0.9299155920835456,0.396799999999871,-0.3712699999999955,0.543407446489183,-0.526489999999967,-0.1086499999999972,0.5375839865546264,0.5827900000000454,-0.8643699999999939,1.0424872569964787,-0.9932999999999764,-0.1327849999999983,1.002136091668668,-0.3564999999999827,-0.1737849999999952,0.3966024158083079,-0.7152099999999564,-0.1722100000000068,0.7356504796436552,0.130980000000136,-0.1502500000000139,0.1993259212948477,-0.9863400000000412,0.0508100000000126,0.987647837895716,-0.5884500000000799,0.0801000000000158,0.5938765970301376,-0.5951999999999771,0.0279999999999915,0.595858238174125,-0.1269999999999527,0.0603099999999869,0.1405926601924382,-0.7063500000000431,0.2716199999999844,0.7567745680848772,1.193399999999997,-0.5184300000000235,1.301143045518062,-0.4016800000000557,0.1867999999999767,0.442991040992971,0.9538499999998749,-0.6644200000000353,1.1624473144619538,-0.1524974999999955,-0.1620174999999903,109.20301,0.7681142538751883,75.0800975,0.2525854456926571,62.378264,0.5383520661867144,0.12871821,0.336337736,0.0693060654847191,0,0
10,333.3333333333333,511.32413,63.43833,0.9354892,513.5411,60.84648,0.9268171,509.23315,61.42572,0.80463827,518.87604,61.542793,0.842476,507.9973,63.102554,0.3993254,527.1467,74.61431,0.9933937,507.56897,76.00127,0.9872012,538.48267,90.96461,0.97375804,504.2475,88.42864,0.8979871,542.7181,106.35809,0.95066875,507.14893,90.97616,0.8638706,528.204,107.91061,0.99303436,516.26447,108.84051,0.9904694,530.241,133.33836,0.98029387,521.73096,134.31075,0.96909136,529.59503,157.04047,0.94569004,524.25305,157.63965,0.9243317,1.06873516,0.05969184,0.98577515,0.40850837,160.649646613148,116.32013577052128,173.8587185651077,174.0570753129674,8.38877992227925,108.37556,75.30779000000001,63.43833,38.47060000000005,96.79317,0.3974515929434738,175.94772175695496,0.90461977,-1.7030299999999556,0.3419700000000034,1.7370246577984585,-0.3629399999999236,-0.0120199999999925,0.3631389871659946,-1.5731599999999162,0.3027329999999963,1.6020236124629168,-0.2703699999998434,-0.0559860000000043,0.2761057208677789,-1.583319999999958,0.3404400000000009,1.61950659646692,-0.3393899999999803,-0.0077799999999967,0.3394791606269619,-0.956360000000018,0.2393430000000052,0.9858547160961584,0.1299999999999954,-0.0407669999999953,0.1362422412066039,-0.9714999999999918,0.3194269999999974,1.0226660541589236,-0.0197000000000002,0.0465540000000004,0.0505506173651722,-0.6000699999999597,0.3140300000000025,0.6772730954348867,0.3976100000000997,0.2009800000000012,0.4455184311564223,-0.3560800000000199,-0.0187299999999908,0.3565722637839542,0.2374199999999859,-0.0843839999999858,0.2519700693653731,-0.6957300000000259,0.9002699999999919,1.1377725193552626,0.26466999999991,0.7106399999999837,0.7583267227916535,-0.8297699999999963,-0.9916499999999928,1.293015071605888,-0.4500400000000013,-0.9568599999999918,1.0574105452472022,-0.1606999999999061,1.4973000000000098,1.505898993956766,0.5886000000001559,0.9465800000000116,1.114658538028667,0.2139599999999859,-3.040290000000013,3.04780940442477,0.740449999999953,-2.931640000000016,3.023702910687493,-0.1433000000000674,-0.1632699999999971,0.2172371581935705,0.849999999999909,-0.0304849999999987,0.8505464921007231,0.088139999999953,-0.3065100000000029,0.318931089265367,0.8033499999999094,-0.1342999999999961,0.8144984422943076,-0.6313000000000102,-0.4312600000000088,0.7645422667191268,0.3550400000000309,-0.4820700000000215,0.5987026695280744,0.0929599999999482,-0.559379999999976,0.5670516255156699,0.6881599999999253,-0.5873799999999676,0.9047538062919984,-1.2782700000000204,-0.7173999999999978,1.4658229609676774,-0.5719199999999773,-0.9890199999999822,1.142476716086564,-0.0042099999999436,-0.9660599999999988,0.9660691733514724,0.3974700000001121,-1.1528599999999756,1.2194542141876556,-0.2348899999999929,-0.0823924999999974,108.7878475,0.3951148858520288,75.0861936,0.2588257710020586,62.713522,0.5790747063268306,0.04126844,0.33938374,0.0726864826486218,0,0
11,366.6666666666666,510.5331,63.507904,0.9355646,512.8465,60.946396,0.9338041,508.51846,61.434593,0.78547525,518.43787,61.716393,0.8679679,507.48984,63.087776,0.3472021,526.3752,74.79562,0.9937926,507.61697,76.0096,0.98493963,537.1089,90.998276,0.9770472,504.20627,88.794876,0.8714535,540.77405,105.51472,0.9557347,506.39798,92.26532,0.83953744,527.0358,107.88823,0.9930441,515.7085,108.63945,0.98917365,528.2418,133.4633,0.9813239,521.03894,134.25461,0.96622455,527.3678,157.25354,0.9486974,523.53754,157.55302,0.9207378,1.06990056,-0.02186244,0.97938837,0.43012516,160.6469435937524,132.7892905179051,175.19622727672026,174.36588107401022,7.585349948061422,108.26384,75.40261000000001,63.507904,36.56777999999997,96.606624,0.3785224874588049,176.2971417702971,0.8995129658823529,-0.7910300000000348,0.0695740000000029,0.7940837502279312,0.9119999999999208,-0.2723960000000005,0.951810685386467,-0.6946000000000367,0.0999160000000003,0.7017495044929145,0.8785599999998794,-0.202816999999996,0.9016664622180348,-0.7146900000000187,0.0088730000000012,0.7147450777927937,0.8686299999999392,-0.3315669999999997,0.9297605887479282,-0.4381700000000137,0.1735999999999933,0.4713065975562083,0.5181900000000041,-0.0657430000000118,0.5223437739161881,-0.5074599999999805,-0.0147779999999997,0.5076751332141256,0.4640400000000113,-0.3342049999999972,0.5718619620371761,-0.77150000000006,0.1813099999999963,0.7925184957463713,-0.1714300000001003,-0.1327200000000061,0.2168013913701571,0.0480000000000018,0.0083300000000008,0.0487174393826295,0.4040800000000217,0.0270599999999916,0.4049850491067752,-1.373770000000036,0.0336660000000108,1.3741824523898198,-0.67804000000001,-0.8666039999999811,1.1003366459479484,-0.0412299999999845,0.3662360000000006,0.36854948188269,0.7885400000000118,1.3578859999999937,1.570238746368208,-1.944050000000061,-0.8433700000000073,2.11910437671207,-1.783350000000155,-2.340670000000017,2.9426303321009644,-0.7509499999999889,1.2891600000000096,1.4919314354553992,-0.9649099999999748,4.329450000000023,4.435672283949768,-1.1681999999999562,-0.0223800000000125,1.168414354756008,-1.024899999999889,0.1408899999999846,1.0345385454876814,-0.5559700000000021,-0.2010599999999982,0.5912087317521635,-0.6441099999999551,0.1054500000000047,0.6526847589762942,-1.9991999999999732,0.1249400000000093,2.003100258000057,-1.3678999999999633,0.5562000000000182,1.476654614322496,-0.6920199999999568,-0.0561399999999991,0.6942934394043632,-0.784979999999905,0.5032399999999768,0.9324398629401404,-2.227229999999963,0.2130699999999876,2.237398555867915,-0.9489599999999428,0.9304699999999856,1.329022009787597,-0.7155099999999948,-0.0866299999999853,0.7207352613824233,-0.7113000000000511,0.8794300000000135,1.1310812591940935,-0.1117200000000195,0.1231699999999733,108.553245,0.2250820945163425,75.1185136,0.291071910109534,63.0073818,0.5208339362946763,0.0216167899999999,0.346753102,0.0809183815249086,0,0
12,400.0,510.00577,63.664284,0.9377762,512.27325,61.123154,0.93596375,508.02234,61.611313,0.7881496,517.9255,61.87166,0.87245095,507.1667,63.235382,0.3483091,525.76526,74.89588,0.9940135,507.6722,75.96008,0.9858174,535.9489,91.28325,0.9777789,503.84177,88.73847,0.87825364,539.2076,105.36226,0.9573279,506.07538,92.23257,0.8476613,526.593,107.6365,0.9931284,515.7881,108.28104,0.98945063,526.9478,133.18259,0.98129267,520.88043,133.86449,0.966403,525.1813,156.8337,0.9475995,522.98126,156.99152,0.9194977,1.04379892,-0.05207683,0.94106768,0.44854857,161.17393028692518,130.7246302395442,174.9328034486123,173.93296417410886,7.827077754729281,107.95877,75.42798,63.664284,35.36582999999996,95.868366,0.3688998895746285,176.63384749195276,0.9012278905882354,-0.5273300000000063,0.1563799999999986,0.5500287567936846,0.2637000000000284,0.0868059999999957,0.2776201931344589,-0.57325000000003,0.1767579999999995,0.59988244937157,0.1213500000000067,0.0768419999999991,0.1436332672607621,-0.496120000000019,0.1767200000000031,0.5266545478774678,0.2185699999999997,0.1678470000000018,0.2755820391625704,-0.512369999999919,0.155267000000002,0.535379172352565,-0.0741999999999052,-0.0183329999999912,0.0764312690525652,-0.3231400000000235,0.1476060000000032,0.3552562326490784,0.1843199999999569,0.1623840000000029,0.2456469536875739,-0.6099399999999378,0.1002600000000057,0.6181252876237351,0.1615600000001222,-0.0810499999999905,0.1807504802207672,0.0552299999999945,-0.0495200000000011,0.0741793994313752,0.0072299999999927,-0.0578500000000019,0.058300046312161,-1.1599999999999682,0.2849739999999912,1.1944915992487857,0.2137700000000677,0.2513079999999803,0.3299292708506159,-0.3645000000000209,-0.0564059999999955,0.3688385647353253,-0.3232700000000363,-0.4226419999999962,0.5320993826946431,-1.5664500000000317,-0.1524599999999907,1.5738518526532592,0.3776000000000294,0.6909100000000166,0.7873616628335705,-0.3226000000000226,-0.0327500000000071,0.3242581109240215,0.4283499999999662,-1.3219100000000168,1.3895789904140086,-0.4428000000000338,-0.2517299999999949,0.509352366147471,0.7253999999999223,-0.2293499999999824,0.7607933901525954,0.0796000000000276,-0.3584099999999921,0.3671428715091698,0.6355700000000297,-0.1573499999999938,0.6547581594757226,-1.2939999999999827,-0.2807099999999991,1.324097467749242,0.7051999999999907,-0.4056500000000085,0.8135471482956558,-0.1585099999999784,-0.3901200000000244,0.4210926673548379,0.5335099999999784,-0.3339800000000252,0.6294247854191903,-2.186500000000024,-0.4198399999999935,2.2264428749914287,0.0407299999999395,-0.6329099999999812,0.6342192057955761,-0.5562800000000152,-0.5614999999999952,0.7903984364863151,0.1592299999999795,-0.4748700000000099,0.5008549788112352,-0.3050699999999864,-0.1933499999999668,108.3943135,0.3121214430894508,75.2738616,0.1546376873301533,63.2898496,0.3697862247877915,0.0184234099999999,0.37858875,0.0839540502886522,0,0
13,433.33333333333337,509.49747,63.051933,0.93432105,511.811,60.492157,0.9310087,507.41095,60.956345,0.7839574,517.425,61.417297,0.863525,506.3571,62.741226,0.35157654,525.22095,74.60102,0.9932018,506.81467,75.871216,0.9841591,535.2744,90.767715,0.9739788,502.92862,89.559166,0.8660966,538.07355,104.25976,0.9505609,505.2956,94.827774,0.83221364,526.04315,107.45828,0.9917207,515.0717,108.13993,0.98738235,526.09143,132.71523,0.97728854,520.13995,133.37683,0.959843,523.8718,155.93071,0.9375928,522.267,156.048,0.90551066,1.03317324,0.01007146,0.95040221,0.40506933,159.84478870807163,139.95807262675868,174.4290318852371,174.0044177533846,7.936481037469457,107.799105,75.236118,63.051933,35.14492999999993,95.555843,0.3677946688430686,176.05234341483344,0.8955257400000001,-0.5082999999999629,-0.6123510000000039,0.7958282711747346,0.0190300000000434,-0.7687310000000025,0.768966508543126,-0.4622499999999832,-0.6309970000000007,0.782197082907489,0.1110000000000468,-0.8077550000000002,0.8153460247189598,-0.6113899999999717,-0.6549680000000038,0.8959803642513435,-0.1152699999999526,-0.8316880000000069,0.8396380781289046,-0.5005000000001019,-0.4543630000000007,0.6759777997605414,0.011869999999817,-0.6096300000000028,0.6097455484052335,-0.809599999999989,-0.4941560000000038,0.9484947613645456,-0.4864599999999655,-0.641762000000007,0.8052960922815753,-0.5443099999999959,-0.2948599999999999,0.6190442598877688,0.0656299999999419,-0.3951200000000057,0.4005335333027646,-0.857529999999997,-0.0888640000000009,0.8621220977309392,-0.9127599999999916,-0.0393439999999998,0.9136075568514004,-0.6744999999999663,-0.5155349999999999,0.8489561745019317,0.4855000000000018,-0.800508999999991,0.9362290900634244,-0.9131499999999731,0.8206959999999981,1.2277560209243317,-0.5486499999999523,0.8771019999999936,1.0345650008114216,-1.134050000000002,-1.1025000000000065,1.58163701666976,0.4324000000000296,-0.9500400000000156,1.0438130874826466,-0.7797800000000166,2.5952040000000096,2.7098229923771915,-0.4571799999999939,2.6279540000000168,2.6674249339983467,-0.5498499999999922,-0.178219999999996,0.5780115837074461,-0.1070499999999583,0.0735099999999988,0.129859241488586,-0.7164000000000215,-0.1411099999999976,0.7301650444249095,-0.7960000000000491,0.2172999999999945,0.825127438642102,-0.8563700000000836,-0.4673600000000135,0.9755997880791876,0.4376299999998991,-0.1866500000000144,0.4757712048873041,-0.7404800000000478,-0.4876599999999769,0.8866357233949285,-0.5819700000000694,-0.0975399999999524,0.59008739395116,-1.3094999999999573,-0.9029899999999884,1.5906543276588625,0.8770000000000664,-0.4831499999999948,1.001280641229077,-0.7142599999999675,-0.9435200000000066,1.1833838506587648,-0.1579799999999522,-0.3820200000000113,0.4133968563015369,-0.1596650000000039,0.1454049999999824,108.20154499999998,0.3249087720037699,75.30692760000001,0.1122164737407942,63.3517622,0.2667732905093894,-0.0434792399999999,0.411898272,0.0305284997348842,0,0
14,466.6666666666667,509.02393,62.617683,0.9355238,511.3394,60.07202,0.93166703,506.95078,60.551216,0.7877929,516.9611,61.12961,0.86412686,505.938,62.496567,0.35786638,524.7616,74.38131,0.9934303,506.42642,75.83743,0.98510844,534.73846,90.382195,0.974459,502.52444,89.77143,0.8724873,537.67694,103.873604,0.9516268,504.65756,95.6967,0.83894897,525.8753,106.91695,0.99230325,515.01544,107.66854,0.9884453,525.17975,131.90974,0.9795807,519.6024,132.62534,0.96414554,523.0431,155.40482,0.9444297,522.12286,155.6073,0.9159917,0.94170431,-0.05551587,0.83347498,0.43479243,160.3430042927146,144.5569271644219,176.39792672358922,175.844182483168,8.572304913684373,107.292745,75.10937,62.617683,35.15249999999992,95.53528,0.3679530706566919,175.45928678734344,0.8987019982352941,-0.473540000000014,-0.4342499999999987,0.6425054039461553,0.0347599999999488,0.1781010000000051,0.1814613562194394,-0.4715999999999667,-0.4201369999999969,0.6316024531055638,-0.0093499999999835,0.2108600000000038,0.2110671980673484,-0.4601700000000051,-0.4051290000000023,0.6130953723043476,0.1512199999999666,0.2498390000000014,0.2920394054250053,-0.4638999999999669,-0.2876869999999982,0.5458635543512392,0.0366000000001349,0.1666760000000025,0.1706471475765437,-0.4191000000000144,-0.2446589999999986,0.4852863446265631,0.3904999999999745,0.2494970000000052,0.4633993990166395,-0.4593499999999721,-0.2197100000000063,0.5091904423690385,0.0849600000000236,0.0751499999999936,0.1134271753152791,-0.3882499999999709,-0.0337860000000063,0.3897172773896197,0.4692800000000261,0.0550779999999946,0.4725011158547924,-0.5359399999999823,-0.3855199999999996,0.660194936363481,0.138559999999984,0.1300150000000002,0.1900072993992484,-0.4041799999999966,0.2122639999999904,0.456527631251377,0.5089699999999766,-0.6084320000000076,0.7932464683337617,-0.3966100000000097,-0.3861559999999997,0.553548505946866,0.7374399999999923,0.7163440000000065,1.0280887510015846,-0.6380399999999895,0.8689260000000019,1.0780201459508951,0.141740000000027,-1.7262780000000078,1.7320871689623576,-0.1678499999999303,-0.5413300000000021,0.566755495253446,0.3820000000000618,-0.363110000000006,0.5270416227396577,-0.056259999999952,-0.4713900000000137,0.4747354207345472,0.6601400000000694,-0.3302800000000161,0.7381528960859683,-0.911679999999933,-0.8054899999999918,1.2165420512665663,-0.0553099999998494,-0.3381299999999783,0.3426238360067329,-0.5375500000000102,-0.7514900000000182,0.9239573705534462,0.2029300000000375,-0.2638300000000413,0.3328465919910207,-0.8287000000000262,-0.525890000000004,0.9814805052063172,0.480799999999931,0.3770999999999844,0.6110425926233963,-0.1441400000001067,-0.4406999999999925,0.4636731926691732,0.5701199999998607,0.502820000000014,0.7601741687270459,-0.5063600000000008,-0.3466949999999968,107.938004,0.4282836933826736,75.29677360000001,0.1297469027947034,63.2560268,0.4220449052407918,0.0297231,0.4254087719999999,0.0183375577254804,0,0
15,500.0,508.79645,62.180893,0.93863404,510.9828,59.606873,0.9290394,506.72122,60.15822,0.8023418,516.5228,60.701836,0.8502231,505.66592,62.27031,0.38879722,524.366,74.16701,0.99373335,506.1911,75.81348,0.98801756,534.0255,90.50003,0.97748667,502.59277,89.71302,0.9106931,536.1495,104.54872,0.95999545,505.5697,95.54628,0.8861533,525.5457,106.569214,0.9940289,514.8156,107.44396,0.99182093,524.3203,131.85983,0.9863201,519.5514,132.71626,0.9779424,521.0289,155.7976,0.9613457,521.417,156.28769,0.94475085,0.86770808,-0.02603842,0.77697653,0.38541769,157.9968846144394,138.44892643006975,174.94499321433858,173.91171675972086,8.705102154751842,107.006587,74.990245,62.180893,33.556730000000016,96.680817,0.3470877749503528,174.82368615504305,0.91066611,-0.2274800000000141,-0.436790000000002,0.4924760445950728,0.2460599999999999,-0.0025400000000033,0.2460731094613956,-0.3566000000000144,-0.4651470000000017,0.5861103066906534,0.1149999999999522,-0.0450100000000048,0.1234945346968417,-0.2295599999999922,-0.3929959999999965,0.4551303655173908,0.2306100000000128,0.0121330000000057,0.2309289539858657,-0.4383000000000265,-0.4277739999999994,0.6124520267547678,0.0255999999999403,-0.1400870000000011,0.1424069084314285,-0.2720799999999599,-0.2262569999999968,0.3538640366708331,0.1470200000000545,0.0184020000000018,0.148167182614829,-0.3956000000000585,-0.2142999999999943,0.4499153809329527,0.0637499999999136,0.0054100000000119,0.0639791419135104,-0.2353200000000015,-0.0239499999999992,0.2365356313539266,0.1529299999999693,0.009836000000007,0.1532459845998934,-0.7129600000000664,0.1178349999999994,0.7226320286460424,-0.1770200000000841,0.5033549999999991,0.5335750522888312,0.0683299999999462,-0.0584099999999949,0.0898928083886139,0.4725099999999429,-0.2706739999999854,0.5445457872171432,-1.527439999999956,0.6751160000000027,1.669986397266717,-1.1308299999999465,1.0612720000000024,1.5508303411024311,0.9121400000000222,-0.1504200000000111,0.9244596021460558,1.5501800000000117,-1.019346000000013,1.855296283647456,-0.3296000000000276,-0.3477359999999976,0.4791205335779469,-0.1617500000000973,0.1935940000000044,0.25227306502287,-0.1998399999999947,-0.2245799999999889,0.300619696626806,-0.1435800000000426,0.2468100000000248,0.285535273652879,-0.859450000000038,-0.0499100000000112,0.8608979675896944,0.0522299999998949,0.7555799999999806,0.7573830664201304,-0.0510000000000445,0.0909200000000112,0.1042470450420854,0.4865499999999656,0.8424100000000294,0.9728234735038088,-2.01419999999996,0.3927799999999877,2.0521398023526145,-1.1854999999999336,0.9186699999999915,1.4997882580217208,-0.705859999999916,0.6803899999999885,0.9803922131983024,-0.5617199999998093,1.121089999999981,1.2539426408332015,-0.2861580000000003,0.2202020000000004,107.6642094,0.508668027272512,75.23326460000001,0.1877554867928423,63.0045394,0.6162256643343521,-0.04937474,0.420790636,0.0252591134273253,0,0
16,533.3333333333334,507.39685,62.268738,0.9442264,509.72406,59.72415,0.93946975,505.47424,60.307236,0.8291841,515.39014,61.129547,0.8676777,504.60797,62.846977,0.44471842,524.14777,74.873566,0.9946498,504.47067,77.02844,0.9898314,534.66394,90.83723,0.97907364,502.11536,91.20529,0.9147588,536.9602,103.52509,0.9612814,506.4911,94.13426,0.8853765,525.3462,106.70131,0.9946666,513.49475,107.78674,0.99255943,524.754,132.21878,0.98729265,519.1447,133.23392,0.9795894,520.69666,156.87367,0.96421957,520.6731,157.50769,0.94975734,0.86770808,-0.02603842,0.77697653,0.38541769,156.8832397773886,114.3641579365223,171.9843214989308,171.08475221487984,9.276518784802922,107.244025,75.951003,62.268738,34.84483999999998,97.78354,0.3563466780160884,173.75034220278351,0.9187254647058825,-1.3996000000000208,0.0878450000000015,1.4023540580128324,-1.1721200000000067,0.5246350000000035,1.2841756802030708,-1.2587399999999889,0.1172770000000014,1.264191552862529,-0.9021399999999744,0.5824240000000032,1.0738129703891444,-1.2469800000000075,0.1490160000000031,1.2558522559027476,-1.0174200000000155,0.5420119999999997,1.1527881264759936,-1.1326599999999871,0.4277110000000022,1.210725144333334,-0.6943599999999606,0.8554850000000016,1.101812322868531,-1.0579500000000053,0.5766670000000005,1.2049078933217308,-0.7858700000000454,0.8029239999999973,1.1235117296566453,-0.2182299999999486,0.706555999999992,0.7394901716966671,0.1773700000001099,0.9208559999999864,0.9377824319297168,-1.7204300000000217,1.214960000000005,2.1061830847531007,-1.48511000000002,1.2389100000000042,1.9340242243053916,0.6384400000000596,0.3372000000000099,0.7220176407817768,1.351400000000126,0.2193650000000104,1.3690883693996327,-0.4774099999999635,1.4922700000000049,1.566776965939945,-0.5457399999999097,1.5506799999999998,1.6439101587373628,0.8106999999999971,-1.0236299999999972,1.3057767293454074,2.338139999999953,-1.698746,2.890092841435337,0.9214000000000055,-1.4120199999999985,1.6860541036396208,0.0092599999999833,-1.2615999999999872,1.2616339832138193,-0.1995000000000573,0.1320960000000042,0.2392688931224114,0.1300999999999703,0.4798320000000018,0.4971566737196575,-1.320850000000064,0.3427799999999905,1.3646035508161931,-1.1210100000000691,0.5673599999999794,1.2564078914509142,0.4337000000000444,0.3589500000000214,0.5629749483769717,1.2931500000000824,0.4088600000000326,1.3562460772663048,-0.4067000000000007,0.5176600000000064,0.6583135769525092,-0.3556999999999561,0.4267399999999952,0.5555443435046069,-0.3322400000000698,1.0760700000000156,1.1261927288435492,1.68195999999989,0.6832900000000279,1.8154543964803047,-0.7439000000000533,1.2199999999999989,1.4289111973807458,-0.0380400000001373,0.5396100000000104,0.5409491599956706,0.2374379999999973,0.5235959999999977,107.4602464,0.4012375214817515,75.34294320000001,0.3766072427366705,62.75670620000001,0.6123433640807385,0.0,0.411849142,0.0287943207950374,0,0
17,566.6666666666666,506.7765,62.411392,0.94792473,509.08078,59.841537,0.9402967,504.78244,60.44609,0.8466475,514.69507,61.2545,0.85253346,503.73413,63.040268,0.46684033,523.0813,75.010605,0.9939203,503.48132,77.239,0.98967427,533.8267,91.08771,0.9778747,500.88504,91.397964,0.92555076,536.4215,104.950714,0.96119905,506.09808,95.13423,0.90055937,524.3794,106.807976,0.9941795,512.5625,107.99835,0.9923557,523.3241,132.50894,0.9863832,518.01117,133.64294,0.9794429,519.84454,157.08455,0.9630555,520.0973,157.94637,0.9503926,0.87821821,-0.12405095,0.76641377,0.41047353,156.8441892766709,115.23905373575474,174.29257416231562,172.91088550037887,9.420586556010964,107.403163,76.1248025,62.411392,35.536460000000034,98.104833,0.3622294493663792,173.5136809014962,0.921695915882353,-0.6203499999999735,0.1426540000000002,0.6365408755264403,0.7792500000000473,0.0548089999999987,0.7811751333606783,-0.6432800000000043,0.1173870000000008,0.6539027956577382,0.6154599999999846,0.0001099999999993,0.6154600098300304,-0.6918000000000006,0.1388539999999949,0.7055973875490182,0.5551800000000071,-0.0101620000000082,0.555272994700812,-0.695069999999987,0.1249529999999978,0.7062121190612501,0.4375900000000001,-0.3027580000000043,0.5321159785836193,-0.8738400000000297,0.193290999999995,0.8949624328881353,0.1841099999999755,-0.3833760000000055,0.4252924281902926,-1.0664699999999812,0.1370390000000014,1.0752385541920269,-0.8482400000000325,-0.5695169999999905,1.021695018530013,-0.9893500000000016,0.2105600000000009,1.0115082481621214,0.7310800000000199,-1.004400000000004,1.242295184889661,-0.8372400000000653,0.250479999999996,0.8739056287724134,-1.475680000000125,-0.0867200000000139,1.4782259031691911,-1.230320000000006,0.1926739999999966,1.245315451070938,-0.7529100000000426,-1.2995960000000082,1.501939822801195,-0.5386999999999489,1.4256239999999991,1.524008359352383,-1.349399999999946,2.4492539999999963,2.7963772128444755,-0.3930200000000354,0.9999700000000048,1.0744322786011398,-1.314420000000041,2.411990000000003,2.7468883662246126,-0.9667999999999212,0.1066659999999899,0.9726663742290288,-0.7672999999998638,-0.0254300000000142,0.7677212872519503,-0.9322499999999536,0.2116100000000074,0.9559648814678898,0.3886000000001104,-0.1311699999999831,0.4101408647039227,-1.429899999999975,0.290159999999986,1.4590431232831744,-1.8636000000000197,-0.0687900000000354,1.8648691707731344,-1.1335299999999506,0.4090199999999981,1.2050674758285889,-0.7268299999999499,-0.1086400000000082,0.7349044145328893,-0.8521199999998998,0.210880000000003,0.8778262178813245,-0.51987999999983,-0.8651900000000126,1.0093705714453167,-0.5757999999999583,0.438680000000005,0.7238686223341613,0.1681000000000949,-0.7813199999999938,0.7991986939428907,0.1591380000000128,-0.0782999999999845,107.349125,0.2902408920569657,75.4823077,0.5182404001686576,62.5061278,0.3469345554535004,0.0250558399999999,0.404234134,0.0205033789827258,0,0
18,600.0,506.10843,62.76703,0.9485174,508.41193,60.170845,0.93970233,504.05417,60.792664,0.85127777,514.02985,61.42405,0.8476518,502.9612,63.27469,0.47776845,522.52155,75.13393,0.9935986,502.84103,77.37288,0.9897399,533.3463,91.3506,0.97588193,500.45215,91.492256,0.9269902,535.46387,105.77103,0.9580806,504.7969,95.69076,0.90109086,523.4614,107.18661,0.99370134,511.63947,108.34854,0.9920101,522.24817,133.12189,0.9849257,517.0682,134.22293,0.97811913,518.9311,157.50949,0.95885366,519.3517,158.35565,0.9463041,0.85995434,-0.13510499,0.767642,0.36330961,154.63049094427464,124.41626577331618,174.93276092610816,173.5559755217522,8.783132053235915,107.767575,76.253405,62.76703,35.011720000000025,98.184805,0.3565900002898618,173.50966257740998,0.9214243452941178,-0.6680700000000002,0.355637999999999,0.7568328163762453,-0.0477200000000266,0.2129839999999987,0.2182644786858411,-0.6688500000000204,0.3293079999999975,0.7455226900396966,-0.025570000000016,0.2119209999999967,0.2134580407035523,-0.7282700000000091,0.3465740000000039,0.8065300554697363,-0.0364700000000084,0.207720000000009,0.2108972719121903,-0.6652199999999766,0.1695500000000009,0.6864873275596347,0.0298500000000103,0.0445970000000031,0.0536648386655629,-0.7729299999999739,0.2344220000000021,0.8076970093939686,0.1009100000000557,0.0411310000000071,0.1089705797957037,-0.5597500000000082,0.1233250000000083,0.5731745965454255,0.506719999999973,-0.0137139999999931,0.5069055456354492,-0.6402899999999931,0.1338799999999906,0.6541369417025679,0.3490600000000086,-0.0766800000000103,0.3573831361438415,-0.4803999999999178,0.2628899999999987,0.547626982625875,0.3568400000001475,0.0124100000000026,0.3570557291237676,-0.4328899999999862,0.0942919999999958,0.4430403292748723,0.7974300000000198,-0.0983820000000008,0.803475962816581,-0.9576299999999948,0.8203159999999912,1.2609415358199505,-0.4189300000000457,-0.605308000000008,0.736138655257315,-1.301179999999988,0.5565299999999951,1.4152014108599396,-0.9081599999999526,-0.4434400000000096,1.0106402026438106,-0.9180000000000064,0.3786340000000052,0.9930194892125812,0.0487999999999146,0.2719680000000153,0.2763114782704475,-0.9230299999999828,0.3501899999999978,0.9872271354657788,0.0092199999999706,0.1385799999999903,0.1388863737016586,-1.0759300000000849,0.6129500000000121,1.2382782673535857,0.3539699999998902,0.3227900000000261,0.4790492093720009,-0.9429699999999456,0.5799899999999809,1.107059538145928,0.1905600000000049,0.1709699999999827,0.2560153403606822,-0.9134400000000368,0.4249399999999923,1.007445600119461,-0.061320000000137,0.2140599999999892,0.2226697689404922,-0.7455999999999676,0.4092799999999954,0.8505465762672542,-0.1698000000000092,-0.0294000000000096,0.1723264344202703,0.3644119999999873,0.2052739999999744,107.342819,0.2781090953241587,75.6857651,0.5918824965893346,62.44914719999999,0.2425835118092731,-0.0471639199999999,0.39588219,0.0274175968504244,0,0
19,633.3333333333333,505.50174,63.02231,0.9461873,507.7925,60.390793,0.93903214,503.5079,60.999252,0.84053844,513.49036,61.39511,0.8515221,502.50623,63.21353,0.4518943,522.5448,75.19641,0.9931677,502.3111,77.24159,0.9883801,533.48193,92.105484,0.97482973,500.23245,91.50193,0.91707873,534.3002,107.89836,0.9558948,504.0919,96.5497,0.8898145,523.4057,107.90567,0.9928618,511.22147,108.95218,0.990664,521.9338,133.7089,0.98269904,516.16486,134.68324,0.9740899,519.5573,157.85843,0.9529442,519.57855,158.51672,0.9371696,0.85646719,-0.01523002,0.76469425,0.38541769,150.07038769766538,134.30572986255177,177.64454607049612,177.2760591828253,8.624951094285905,108.428925,76.219,63.02231,34.067750000000046,98.125927,0.3471839777148405,174.22826550091742,0.91639814,-0.6066900000000146,0.255279999999999,0.6582101750201202,0.0613799999999855,-0.1003579999999999,0.1176402676127448,-0.6194299999999657,0.2199480000000022,0.6573208102623547,0.0494200000000546,-0.1093599999999952,0.1200081080594322,-0.5462699999999927,0.2065879999999964,0.5840286933396257,0.1820000000000163,-0.1399860000000075,0.2296085368535065,-0.5394900000000007,-0.0289399999999986,0.5402656603005606,0.1257299999999759,-0.1984899999999996,0.2349602370614947,-0.454970000000003,-0.0611600000000009,0.4590623557862295,0.3179599999999709,-0.2955820000000031,0.4341281842082858,0.0232499999999618,0.0624799999999936,0.0666656800760138,0.58299999999997,-0.0608450000000146,0.5861664559022179,-0.5299299999999789,-0.1312899999999928,0.5459513430700357,0.1103600000000142,-0.2651699999999835,0.2872184856515931,0.1356299999999919,0.7548840000000041,0.76697154468468,0.6160299999999097,0.4919940000000053,0.7883850943136191,-0.2197000000000457,0.0096740000000039,0.2199128833788966,0.2131899999999404,-0.0846179999999918,0.2293690956165918,-1.1636700000000246,2.1273300000000006,2.424801187272899,-0.2060400000000299,1.3070140000000094,1.3231545933095032,-0.7049999999999841,0.858940000000004,1.1112168661426916,0.5961800000000039,0.3024100000000089,0.6684926330932975,-0.0557000000000016,0.7190599999999989,0.7212140969226812,0.8623000000000047,0.3404259999999937,0.927065883028819,-0.4180000000000063,0.6036399999999986,0.7342378699032104,0.5050299999999766,0.2534500000000008,0.5650594689056867,-0.3143699999999398,0.5870099999999923,0.6658898084517837,0.761560000000145,-0.0259400000000198,0.7620016517043923,-0.9033400000000712,0.4603100000000211,1.0138582009828336,0.0396299999998746,-0.1196799999999598,0.1260707709978028,0.6262000000000398,0.3489399999999989,0.7168581195746123,1.5396400000000767,-0.0759999999999934,1.5415146219222948,0.2268499999998994,0.1610699999999951,0.2782165836177865,0.972449999999867,-0.2482100000000002,1.0036270256423656,0.6613499999999988,0.2969380000000114,107.570055,0.5541472085303786,75.9076911,0.5261064433575424,62.5300726,0.3545256402586677,0.0221080799999999,0.386007242,0.0166944935651585,0,0
20,666.6666666666666,505.11133,63.52349,0.9436272,507.39136,60.893303,0.93954927,503.12546,61.481514,0.8256072,512.9796,61.651726,0.86197597,501.977,63.435516,0.4161386,522.08325,75.19119,0.9933188,501.61652,77.244644,0.98669446,532.9252,92.06242,0.9769792,499.8534,91.546844,0.90268457,533.0063,108.263306,0.9585093,503.7514,97.1583,0.875165,522.7654,108.51563,0.9927377,510.40805,109.56425,0.98960364,521.4457,134.31276,0.98224163,515.21313,135.27275,0.97081053,519.9807,158.20203,0.95067424,519.57245,158.81573,0.9295493,1.65566929,0.37829398,1.58736083,0.2800358,147.5608181020214,138.18646330420304,179.4192635118398,179.90347790992138,8.212177924837611,109.03994,76.217917,63.52349,33.15289999999999,97.922427,0.3385628877584611,174.27061229739627,0.9115215652941177,-0.3904099999999744,0.5011800000000051,0.6352962777318825,0.2162800000000402,0.245900000000006,0.3274810657122337,-0.401139999999998,0.5025100000000009,0.6429849140531988,0.2182899999999676,0.2825619999999986,0.3570599500699919,-0.382440000000031,0.4822619999999986,0.6154973519390822,0.1638299999999617,0.2756740000000022,0.3206811861896308,-0.5107600000000048,0.2566159999999939,0.5716008651637975,0.0287299999999959,0.2855559999999926,0.2869976341993006,-0.529230000000041,0.2219860000000011,0.5739008425643265,-0.0742600000000379,0.2831460000000021,0.2927220608632134,-0.4615499999999883,-0.0052199999999942,0.4615795174181683,-0.4847999999999501,-0.0676999999999878,0.4895041675000837,-0.6945800000000304,0.0030539999999916,0.6945867140365141,-0.1646500000000514,0.1343439999999844,0.2125039595772577,-0.5567300000000159,-0.0430640000000011,0.5583930524245604,-0.6923600000000079,-0.7979480000000052,1.0564484749877865,-0.3790499999999497,0.0449139999999914,0.381701676569492,-0.1593499999999039,0.0352399999999875,0.1632001228552494,-1.2939000000000078,0.3649460000000033,1.344381937142873,-0.1302299999999832,-1.7623839999999973,1.767189072045203,-0.34050000000002,0.6085999999999956,0.6973766629304484,0.3644999999999641,-0.2503400000000084,0.4421881563316435,-0.6403000000000247,0.609960000000001,0.8843275929201988,-0.5846000000000231,-0.1090999999999979,0.5946931729892538,-0.8134200000000078,0.6120700000000028,1.0179792636886156,-0.3954200000000014,0.0084300000000041,0.3955098498141369,-0.4881000000000313,0.6038599999999974,0.7764589555153751,-0.1737300000000914,0.0168500000000051,0.1745452245122505,-0.9517299999999976,0.58950999999999,1.1195141950864151,-0.0483899999999266,0.1291999999999689,0.1379646045186404,0.4233999999999014,0.3436000000000092,0.5452783876149162,-0.2028000000001384,-0.0053399999999896,0.2028702925518077,-0.0060999999999467,0.2990100000000097,0.2990722155266269,-0.2329499999998461,0.1379400000000146,0.2707270693889555,0.611015000000009,-0.0503349999999898,107.9767256,0.7490789939264091,76.15322549999999,0.1227283725123363,62.798592000000006,0.5017948074382744,-0.1053818899999999,0.364930864,0.0503074419484649,0,0
21,700.0,504.87616,63.727005,0.9408005,507.10443,61.098633,0.93607247,502.86395,61.693,0.8145984,512.4176,61.548492,0.865195,501.5735,63.357002,0.4154387,521.3359,74.78657,0.9939845,501.4119,77.15393,0.9877295,532.1784,91.25149,0.9776587,500.71362,91.94148,0.8998495,530.9511,107.40861,0.9581293,501.92065,98.94519,0.8676321,521.9177,109.48373,0.9930737,509.8566,110.62033,0.9899672,519.9121,134.95064,0.9813844,513.547,135.99872,0.96888494,520.0103,158.30534,0.9446743,518.68396,159.0716,0.9200766,1.11863524,0.0,1.07936606,0.29379195,142.29038202241787,167.51806766439591,175.25615678926692,175.72202657587627,7.543466178846506,110.05203,75.97025,63.727005,31.46478000000002,97.97296699999998,0.3211577707842843,173.2239125818945,0.9091264594117648,-0.2351699999999823,0.2035149999999959,0.3110036722049918,0.155239999999992,-0.2976650000000092,0.335714029830454,-0.2869300000000407,0.2053299999999964,0.3528303187086137,0.1142099999999572,-0.2971800000000044,0.3183706589809948,-0.261509999999987,0.2114860000000007,0.3363239633091783,0.1209300000000439,-0.2707759999999979,0.2965530426011669,-0.5620000000000118,-0.1032339999999933,0.5714028865485472,-0.051240000000007,-0.3598499999999873,0.3634797932485266,-0.4034999999999513,-0.0785139999999984,0.4110677537778419,0.1257300000000896,-0.3004999999999995,0.3257426636165767,-0.7473499999999831,-0.4046200000000084,0.8498525559766127,-0.2857999999999947,-0.3994000000000142,0.4911232024655405,-0.2046199999999771,-0.0907139999999913,0.2238266610482072,0.4899600000000532,-0.0937679999999829,0.4988519213394381,-0.7468000000000075,-0.810929999999999,1.102414488701963,-0.1900699999999915,-0.7678659999999979,0.7910403269467325,0.8602199999999698,0.3946360000000055,0.9464227495659392,1.2392699999999195,0.3497220000000141,1.2876706140095806,-2.055200000000013,-0.8546960000000041,2.225837436205992,-0.7613000000000056,-1.2196420000000074,1.4377427788599833,-1.8307499999999663,1.7868899999999996,2.5582457729076533,-1.4902499999999463,1.178290000000004,1.8997927220093904,-0.8477000000000317,0.9680999999999926,1.2867839367974871,-0.2074000000000069,0.3581399999999917,0.4138586952088803,-0.5514499999999884,1.0560799999999944,1.1913866160487012,0.2619700000000193,0.4440099999999916,0.5155319204472237,-1.5335999999999783,0.6378799999999956,1.660969552520433,-1.0454999999999472,0.0340199999999981,1.0460533496910611,-1.6661299999999528,0.7259699999999896,1.8174216950944069,-0.7143999999999551,0.1364599999999995,0.7273160878187253,0.0296000000000731,0.1033099999999933,0.10746681394739,-0.3937999999998283,-0.2402900000000158,0.4613217143164544,-0.8884900000000471,0.2558699999999874,0.9245993386327276,-0.8823900000001004,-0.0431400000000223,0.8834439267436157,1.0120900000000006,0.4010749999999916,108.5383266,1.0532731274438163,76.1570749,0.1148488336578915,63.0902454,0.5392330256214002,0.01375615,0.3466057159999999,0.0571955738257521,0,0
22,733.3333333333333,504.12143,64.03348,0.94047844,506.1206,61.25284,0.94301903,502.14087,62.077194,0.8023579,511.3389,61.163155,0.8734286,500.94116,63.464417,0.363696,520.0808,74.12219,0.99211687,501.32407,77.388565,0.98038757,530.6451,89.958565,0.9706882,500.4904,93.63568,0.8136587,529.23663,106.06229,0.9456492,500.15176,102.01769,0.7759572,521.29565,109.921486,0.9866012,509.95828,111.34935,0.9778275,519.02515,135.91988,0.9598889,512.8894,137.26237,0.92360866,520.01,159.34807,0.898319,519.088,160.5444,0.84356797,0.93872581,-0.0675525,0.85754823,0.37583752,141.2946068074901,179.37612123268096,172.60176586258456,171.5449380869945,8.036187661299888,110.635418,75.75537750000001,64.03348,30.49333999999993,99.381245,0.3068319348702866,170.1213402842353,0.8818382905882354,-0.7547300000000519,0.3064749999999989,0.8145822846864997,-0.5195600000000695,0.102960000000003,0.529663435777922,-0.9838299999999548,0.1542069999999995,0.9958419893481651,-0.6968999999999141,-0.0511229999999969,0.6987726176152583,-0.7230799999999817,0.3841940000000008,0.8188099388966735,-0.4615699999999947,0.172708,0.4928234147887001,-1.0786999999999694,-0.3853369999999998,1.1454598611775682,-0.5166999999999575,-0.2821030000000064,0.5886943116838821,-0.6323399999999992,0.107414999999996,0.641398361258429,-0.2288400000000479,0.1859289999999944,0.2948513839903415,-1.255100000000084,-0.6643799999999942,1.420097459472484,-0.507750000000101,-0.2597599999999858,0.5703378999330968,-0.0878299999999967,0.2346349999999972,0.2505348122018139,0.1167899999999804,0.3253489999999885,0.3456759695162334,-1.5333000000000538,-1.292925000000011,2.005657983212789,-0.7865000000000464,-0.4819950000000119,0.9224431852559184,-0.2232199999999693,1.694199999999995,1.708841949508488,-1.0834399999999391,1.2995639999999895,1.691954143496756,-1.7144700000000055,-1.3463199999999915,2.179904796843201,0.3407300000000077,-0.4916239999999874,0.5981564095418462,-1.768889999999999,3.072500000000005,3.545310717285585,0.0618599999999673,1.2856100000000057,1.2870974056768238,-0.6220499999999447,0.4377560000000073,0.7606421747680954,0.2256500000000869,-0.5303439999999853,0.5763529134445523,0.1016799999999875,0.7290200000000056,0.7360767506177638,0.653129999999976,-0.3270599999999888,0.7304430439808166,-0.8869499999999562,0.9692400000000134,1.3138137159049408,0.6466500000000224,0.3313600000000178,0.7266055822108999,-0.6576000000000022,1.2636500000000126,1.4245171401215342,1.0085299999999506,0.537680000000023,1.142905308107336,-0.0003000000000383,1.042730000000006,1.0427300431559516,-0.0299000000001115,0.9394200000000126,0.9398957103849502,0.404040000000009,1.4728000000000063,1.5272158202428452,1.292530000000056,1.2169300000000192,1.7752612274818012,0.5833879999999994,-0.4287020000000012,109.1847776,1.1680366633977104,76.08318990000001,0.2155141211210469,63.414663,0.5161648718384492,0.0820455699999999,0.339678514,0.0490428504555966,0,0
23,766.6666666666667,503.16986,64.34947,0.9369762,505.52307,61.656593,0.93854266,501.2228,62.185043,0.7854361,511.4467,61.557877,0.8806822,500.35587,63.289154,0.34497675,520.30756,74.3797,0.99317414,501.29514,76.53968,0.98309267,529.6683,91.00769,0.9762798,500.8762,91.91708,0.8606353,529.0072,107.78762,0.9547619,499.03064,101.496506,0.8272427,519.7023,110.17499,0.99126524,508.38058,110.99147,0.98594046,517.9214,136.2314,0.9769817,512.1244,136.8974,0.95739055,518.4249,159.44812,0.9322511,516.73834,159.5602,0.89518243,0.99690713,-0.09604737,0.96219319,0.24245205,148.36644288594235,170.6556496458403,174.84765920499655,176.71559486469684,5.270544456504673,110.58323,75.45969,64.34947,30.63766000000004,98.00232300000002,0.3126217700714938,173.51848016635554,0.8953418764705882,-0.951569999999947,0.3159899999999993,1.0026640239880449,-0.1968399999998951,0.0095150000000003,0.1970698374306903,-0.5975300000000061,0.4037530000000018,0.7211508759677192,0.3862999999999488,0.2495460000000022,0.4598922657709755,-0.9180700000000002,0.1078490000000016,0.9243830005473924,-0.1949900000000184,-0.2763449999999992,0.3382124467328291,0.1077999999999974,0.3947219999999944,0.4091775864878171,1.1864999999999668,0.7800589999999943,1.4199557364512856,-0.5852900000000432,-0.1752629999999939,0.6109676777613103,0.047049999999956,-0.28267799999999,0.2865668406916442,0.2267600000000129,0.2575099999999963,0.343120237963318,1.481860000000097,0.9218899999999906,1.7452192503236577,-0.0289300000000025,-0.8488849999999957,0.8493778241306944,0.0588999999999941,-1.083519999999993,1.0851197170819376,-0.976799999999912,1.0491250000000036,1.4334578841475727,0.5565000000001419,2.3420500000000146,2.4072578699632965,0.3857999999999606,-1.718599999999995,1.7613709433279383,0.60901999999993,-3.41279999999999,3.4667144676768302,-0.2294299999999793,1.7253299999999996,1.7405176625935137,1.4850400000000263,3.071649999999991,3.411799748534492,-1.121120000000019,-0.5211840000000052,1.2363425157520258,0.64776999999998,-3.5936840000000103,3.651598371228146,-1.5933499999999867,0.2535039999999924,1.6133903744958793,-0.971300000000042,-0.1842520000000149,0.98862150973165,-1.577699999999993,-0.3578799999999944,1.617781006316978,-1.6793799999999806,-1.0869,2.0004171550953904,-1.1037500000001046,0.3115200000000016,1.1468691175980943,-0.2168000000001484,-0.6577200000000119,0.6925300270746966,-0.7649999999999864,-0.3649699999999996,0.8476013808978716,-0.1073999999999841,-1.6286200000000122,1.6321574263532412,-1.5851000000000113,0.1000499999999817,1.588254391619942,-1.584799999999973,-0.9426800000000242,1.8439730535992005,-2.349659999999972,-0.9841999999999872,2.547459863393306,-2.7536999999999807,-2.4569999999999936,3.690489491923784,-0.052188000000001,-0.6355760000000004,109.7479086,0.977095424968682,75.92444689999999,0.3238701863391117,63.731151,0.5048061641660062,-0.1333854699999999,0.315507002,0.0624380720498147,0,0
24,800.0,503.12845,64.58533,0.9406104,505.23956,61.719597,0.9454568,501.0939,62.45604,0.79913217,510.75125,61.325233,0.88039744,499.9379,63.458633,0.3470634,519.114,74.30713,0.9921096,500.8778,77.24607,0.9791784,528.6613,91.10915,0.97080696,500.51425,94.58883,0.7997034,528.1273,107.32776,0.944507,497.81882,104.17014,0.75967944,518.95685,110.71283,0.98606604,508.05225,111.86807,0.9762136,517.8638,137.25014,0.95799935,511.46518,138.30986,0.9180981,519.00854,160.18436,0.8931432,516.60156,160.96725,0.83313936,1.03571252,0.11741852,1.02900875,-0.00736936,148.50796005266014,165.48845110522166,174.78387271755884,174.58175525479163,5.642337997284378,111.29045,75.7766,64.58533,30.842479999999966,99.642017,0.30953287196572,170.8449490628089,0.8778414505882353,-0.0414100000000416,0.2358600000000024,0.2394675921706413,0.9101599999999052,-0.0801299999999969,0.9136804925682868,-0.2835100000000352,0.0630039999999994,0.2904262800023784,0.3140199999999709,-0.3407490000000024,0.4633772128633251,-0.1288999999999873,0.2709970000000012,0.3000909595589268,0.7891700000000128,0.1631479999999996,0.8058576541821887,-0.6954499999999939,-0.2326440000000005,0.733330712050158,-0.8032499999999914,-0.627365999999995,1.019214727354339,-0.4179699999999684,0.1694789999999955,0.4510233390202463,0.1673200000000747,0.3447419999999894,0.3832010294401852,-1.193559999999934,-0.0725699999999989,1.195764139995778,-1.420319999999947,-0.3300799999999952,1.4581706720407752,-0.4173400000000242,0.706389999999999,0.8204629837476025,-0.3884100000000217,1.5552749999999946,1.6030416880808185,-1.0070000000000618,0.1014600000000029,1.01209838039596,-0.0302000000001498,-0.9476650000000006,0.94814608169048,-0.3619499999999789,2.671750000000003,2.696155756813764,-0.7477499999999395,4.390349999999998,4.453571957990563,-0.8799000000000206,-0.4598600000000061,0.9928218518949116,-0.6504700000000412,-2.1851900000000057,2.279948805784919,-1.2118199999999888,2.673634000000007,2.935443148547764,-0.0906999999999698,3.194818000000012,3.196105214651744,-0.7454500000000053,0.5378400000000028,0.9192211747452356,0.8478999999999814,0.2843360000000103,0.8943049652640728,-0.328329999999994,0.8765999999999963,0.936070589699297,1.249369999999999,1.2344799999999907,1.756378736861721,-0.0575999999999794,1.0187399999999798,1.020367065128994,1.0461500000001251,0.7072199999999782,1.2627707436032207,-0.6592200000000616,1.4124599999999816,1.5587219957388263,0.1057799999999247,1.7774299999999812,1.7805748547308864,0.5836400000000594,0.7362400000000093,0.939513164995618,2.1687400000000707,0.6361900000000276,2.260126302599114,-0.1367800000000443,1.407049999999998,1.4136825919915712,2.212879999999928,2.391249999999985,3.25805378361064,0.7072199999999924,0.7594079999999934,110.3202136,0.8397786980060252,75.83596689999999,0.2808563758922591,64.043755,0.4352806422872397,-0.24982141,0.236949592,0.1449994473070264,0,0
25,833.3333333333334,502.2779,64.46647,0.9330727,504.47638,61.56447,0.94216114,500.3683,62.215546,0.76839864,510.36963,61.320145,0.8834789,499.6427,63.284836,0.30335045,518.3822,74.754524,0.99071324,501.51813,77.213394,0.9731121,527.1386,92.32306,0.9664955,501.6823,94.92284,0.7486118,525.82495,108.52411,0.9365323,497.06766,104.98891,0.7104785,516.9604,111.49198,0.9835054,506.8343,112.24057,0.97051716,515.4073,138.70726,0.9551021,509.1303,139.40346,0.9084564,516.85986,162.30817,0.89358556,513.19086,162.6301,0.8280337,1.04365037,0.14714162,1.03269343,0.03316213,148.87205891046125,154.84048752600344,173.2119035580675,174.91513233414503,3.1061879534572694,111.866275,75.983959,64.46647,30.070940000000007,101.309955,0.2968211732319774,171.7044303934616,0.8644473876470589,-0.8505499999999984,-0.1188599999999979,0.8588148823233076,-0.8091399999999567,-0.3547200000000003,0.8834782498737194,-0.7631799999999771,-0.1551270000000002,0.7787862983700761,-0.4796699999999418,-0.2181309999999996,0.526938746023619,-0.7256000000000427,-0.2404939999999982,0.7644165906337075,-0.5967000000000553,-0.5114909999999995,0.7859223454521862,-0.3816200000000549,-0.0050880000000006,0.3816539167151857,0.313829999999939,0.2275559999999998,0.3876480388651046,-0.2952000000000225,-0.1737970000000004,0.3425615816302427,0.1227699999999458,-0.3432759999999959,0.3645694516494544,-0.7318000000000211,0.4473940000000027,0.8577252655926799,0.4617599999999129,0.5199640000000016,0.695402659540443,0.6403300000000058,-0.0326760000000092,0.641163185059785,1.05767000000003,-0.7390660000000082,1.2903039879253555,-1.5226999999999862,1.2139099999999985,1.947355329183648,-0.5156999999999243,1.1124499999999955,1.2261694387399775,1.1680499999999938,0.3340099999999921,1.2148676811076915,1.5299999999999727,-2.337740000000011,2.793909144478389,-2.3023500000000467,1.1963499999999954,2.594623064146352,-1.4224500000000262,1.6562100000000015,2.183207632498586,-0.7511600000000271,0.8187700000000007,1.1111371015765974,0.4606599999999616,-1.8548640000000065,1.9112111589502576,-1.9964499999999816,0.7791500000000013,2.1431022665752395,-1.2509999999999764,0.2413099999999985,1.2740610331141675,-1.2179500000000305,0.3725000000000023,1.2736398441082453,-0.8896200000000363,-0.504099999999994,1.0225167746301569,-2.456500000000005,1.4571200000000033,2.856149671218236,-2.398900000000026,0.4383800000000235,2.4386263006865456,-2.3348799999999983,1.0936000000000092,2.578298969165526,-1.6756599999999366,-0.3188599999999724,1.705728036704495,-2.148680000000013,2.123809999999992,3.021157834092754,-2.7323200000000725,1.3875699999999824,3.064461304585252,-3.410699999999906,1.6628499999999915,3.794462361455089,-3.273919999999862,0.2557999999999936,3.283897959194088,0.5758250000000089,-0.1313949999999835,110.88548059999998,0.7025817571227424,75.7891753,0.2124792514205472,64.23235100000001,0.3493018018562041,0.0405314899999999,0.187574858,0.167020167523342,0,0
26,866.6666666666667,501.1178,64.08207,0.936481,503.31702,61.271156,0.94811183,499.50253,61.82389,0.75395626,509.45407,60.96557,0.9042632,499.2626,62.67009,0.2729753,517.5253,74.03056,0.9934755,501.16992,76.07293,0.97808313,525.91016,91.722824,0.97901386,500.98566,93.74655,0.78294,524.9564,108.71563,0.9577075,495.9063,105.15963,0.7503699,515.9894,110.95136,0.98998123,505.97147,111.40945,0.9804756,513.79736,138.12573,0.9721539,505.96606,138.53781,0.93595636,516.67896,162.25566,0.9276319,509.79657,162.18997,0.8711211,1.07506193,0.15131759,1.05750362,0.12061191,151.429928853042,156.60600255742176,168.57816003539358,170.78929101656934,2.58774139241435,111.180405,75.051745,64.08207,30.00386000000003,101.29009,0.2962171294722208,172.88206341022914,0.878511621764706,-1.1601,-0.3843999999999994,1.2221273951597678,-0.3095500000000015,-0.2655400000000014,0.4078390541623027,-1.1593599999999924,-0.2933140000000023,1.1958882523864778,-0.3961800000000153,-0.138187000000002,0.4195881782998809,-0.8657699999999977,-0.3916560000000046,0.9502379255933746,-0.140169999999955,-0.1511620000000064,0.2061494097590127,-0.9155599999999708,-0.354574999999997,0.9818215439808522,-0.5339399999999159,-0.3494869999999963,0.638148169917385,-0.3800999999999703,-0.6147459999999967,0.722764591354594,-0.0848999999999478,-0.4409489999999962,0.4490479157072081,-0.856899999999996,-0.7239640000000094,1.1217849541226728,-0.1250999999999749,-1.171358000000012,1.178019343713855,-0.3482099999999946,-1.1404639999999944,1.192437981362546,-0.9885400000000004,-1.1077879999999851,1.4847240769058634,-1.2284399999999778,-0.6002359999999953,1.3672410501794992,0.2942600000000084,-1.8141459999999936,1.8378559946078428,-0.6966400000000021,-1.1762899999999945,1.367101113195359,-1.864689999999996,-1.5102999999999869,2.399598901087418,-0.8685499999999138,0.1915200000000112,0.8894149835143629,1.433800000000133,-1.004829999999984,1.7508471574927231,-1.161360000000002,0.1707200000000028,1.17384086144588,-0.4101999999999748,-0.6480499999999978,0.7669633905865236,-0.9710000000000036,-0.5406200000000041,1.1113554716651246,1.025449999999978,-1.3197700000000054,1.671328978806976,-0.862829999999974,-0.8311199999999985,1.1980133819369267,0.3551200000000563,-1.2036200000000008,1.2549148651601996,-1.6099399999999378,-0.5815299999999866,1.7117487971369467,0.8465600000000677,-2.03864999999999,2.207432367276532,-3.1642399999999498,-0.865649999999988,3.280512871503427,-0.8293599999999515,-1.9592499999999973,2.127556949202514,-0.1809000000000651,-0.0525099999999838,0.1883669559663315,1.967779999999948,-2.176319999999976,2.9340291189420205,-3.394290000000069,-0.4401300000000105,3.4227063883717044,0.016409999999837,-2.1029800000000023,2.103044024384655,-0.6858699999999942,-1.2616950000000031,111.1111556,0.5272994814895781,75.6054743,0.3615504261199184,64.303364,0.2398137629077798,0.08744978,0.15293885,0.1571517148801874,0,0
27,900.0,500.3383,63.701492,0.9378968,502.53568,60.91504,0.9501816,498.71738,61.428993,0.754111,508.53595,60.673615,0.9103125,498.425,62.32218,0.270591,516.28564,73.854225,0.99385154,500.53876,75.756485,0.97867715,524.37305,91.73801,0.9806096,500.1528,93.141495,0.7859788,522.7464,108.88719,0.96034414,494.08667,104.538315,0.75439054,514.7463,110.87482,0.9900787,505.2196,111.32028,0.9803043,513.1947,138.14868,0.97119486,506.663,138.56982,0.93250906,516.0797,162.19955,0.92268044,510.83575,162.12433,0.860755,1.17560184,0.08794107,1.16706148,0.11078609,150.24809149727622,153.24698253362675,169.90379325076108,172.98621707240198,2.4782886931697314,111.09755,74.80535499999999,63.701492,30.28638000000001,101.525935,0.2983117535601938,173.11191260963653,0.8784980605882353,-0.7794999999999845,-0.3805779999999998,0.8674444443789906,0.3806000000000153,0.0038219999999995,0.3806191898525503,-0.7813400000000001,-0.3561160000000001,0.858668038916088,0.3780199999999922,-0.0628019999999978,0.3832012677484168,-0.7851499999999874,-0.3948970000000003,0.8788652701688584,0.0806200000000103,-0.0032409999999956,0.0806851193281737,-0.9181199999999876,-0.2919550000000015,0.963422055189198,-0.0025600000000167,0.0626199999999954,0.0626723064838012,-0.837600000000009,-0.3479099999999988,0.9069813273160668,-0.4575000000000386,0.2668359999999978,0.5296297771991623,-1.2396600000000717,-0.1763349999999945,1.2521385497720194,-0.3827600000000757,0.5476290000000148,0.6681337734623763,-0.6311599999999657,-0.3164450000000016,0.7060455959957245,-0.2829499999999711,0.8240189999999927,0.871245094597939,-1.5371099999999842,0.0151859999999999,1.5371850138145218,-0.3086700000000064,0.6154219999999953,0.6884921255787884,-0.8328599999999824,-0.605054999999993,1.0294403006609767,-0.1362199999999802,0.5712350000000015,0.5872523423750614,-2.2100000000000364,0.1715599999999995,2.216649010014928,-1.3414500000001226,-0.0199600000000117,1.3415984884086332,-1.819629999999961,-0.6213150000000098,1.9227807119182547,-0.658269999999959,-0.7920350000000127,1.0298732126455985,-1.2431000000000267,-0.0765399999999942,1.2454541266542358,-0.2721000000000231,0.4640800000000098,0.5379671517853313,-0.7518699999999967,-0.0891700000000099,0.7571392116381219,0.1109599999999773,0.7419499999999886,0.7502012557307393,-0.6026600000000144,0.0229500000000086,0.6030968231553021,1.0072799999999231,0.6044799999999952,1.1747378723782764,0.6969399999999837,0.0320099999999854,0.6976747119539136,3.861179999999933,0.8976599999999735,3.964152427442648,-0.5992599999999584,-0.056110000000018,0.6018811175805003,-0.4183599999998932,-0.0036000000000342,0.4183754887656672,1.0391800000000444,-0.0656400000000019,1.041251017766654,4.4334700000001135,0.3744900000000086,4.449258252900253,-0.0828550000000092,0.603014999999985,111.203582,0.4591635394740934,75.41546980000001,0.4899199468461683,64.2369664,0.3526371676451493,-0.0098258199999999,0.099928564,0.0959547184066194,0,0
28,933.3333333333334,498.85696,63.4254,0.9201619,500.89548,60.85932,0.91881365,497.16403,61.26496,0.7377081,506.15976,60.807465,0.86162287,496.8218,62.18402,0.3160036,514.2597,73.938705,0.99221987,498.1608,75.58623,0.9812213,523.08514,91.61235,0.9695115,498.1751,92.59425,0.8357272,521.1701,108.48848,0.93929356,492.71707,105.53467,0.7883922,512.567,110.29933,0.99108475,502.83313,110.742035,0.9860065,512.25604,137.45659,0.976684,504.06622,137.82114,0.957666,515.37286,161.9203,0.9392844,507.80942,161.74718,0.9062349,0.99480486,-0.01547566,0.98651209,0.12724434,146.99045986822932,157.08270811468512,172.0832707898884,173.7154751121531,2.385805506591607,110.5206825,74.7624675,63.4254,30.36807000000005,101.112835,0.3003384258750298,174.15682146613574,0.8833903705882351,-1.4813399999999888,-0.2760919999999984,1.5068493581191074,-0.7018400000000042,0.1044860000000014,0.7095750205552661,-1.640199999999993,-0.0557200000000008,1.6411461721613885,-0.8588599999999929,0.3003959999999992,0.9098781547086332,-1.5533499999999665,-0.1640329999999963,1.5619868909785684,-0.7681999999999789,0.2308640000000039,0.8021405278976804,-2.376190000000008,0.1338500000000024,2.3799568774664888,-1.4580700000000206,0.425805000000004,1.5189726866948805,-1.6032000000000153,-0.1381600000000062,1.6091421396508296,-0.7656000000000063,0.2097499999999925,0.7938125865089357,-2.0259399999999914,0.0844799999999992,2.027700607584849,-0.7862799999999197,0.2608149999999938,0.8284085360647068,-2.37796000000003,-0.1702549999999973,2.384047089850606,-1.7468000000000643,0.1461900000000042,1.7529066592663245,-1.2879100000000108,-0.1256599999999963,1.2940257353314215,0.2491999999999734,-0.1408459999999962,0.2862485558321399,-1.977700000000027,-0.5472450000000038,2.0520171490572663,-1.1448400000000447,0.0578099999999892,1.1462986616497906,-1.5762999999999463,-0.3987100000000083,1.625943219826522,0.6337000000000899,-0.5702700000000078,0.8525160191457535,-1.369600000000048,0.9963550000000084,1.693672768283516,0.4500299999999129,1.617670000000018,1.6791019116777814,-2.179300000000012,-0.575490000000002,2.2540047094227766,-0.9361999999999852,-0.4989500000000078,1.0608588702084647,-2.386470000000031,-0.5782449999999955,2.4555256750694228,-1.6346000000000345,-0.4890749999999855,1.70619797081848,-0.9386600000000273,-0.6920900000000074,1.1662208897546216,-0.3360000000000127,-0.7150400000000161,0.7900494931332034,-2.596780000000024,-0.7486799999999789,2.7025521476560064,-3.2937200000000075,-0.7806899999999644,3.3849768558292967,-0.7068400000000565,-0.2792499999999904,0.7600022026942255,-0.1075800000000981,-0.2231399999999723,0.2477194300009766,-3.02633000000003,-0.3771500000000003,3.0497402170349166,-4.065510000000074,-0.3115099999999984,4.077426889620537,-0.5768675000000059,-0.4940124999999966,111.1910725,0.4806394982662459,75.27602529999999,0.5673003948718502,64.0521524,0.4931059157613148,0.01645825,0.076887022,0.0604315236573091,0,0
29,966.6666666666666,496.61163,63.260567,0.9236385,498.8798,60.65468,0.9419262,495.3817,60.96228,0.6941364,504.95258,60.725647,0.9122819,495.35364,61.995575,0.2135823,513.81866,74.13235,0.99410665,496.39542,75.797424,0.97307533,523.13025,91.6579,0.9866172,496.93216,92.75732,0.7835594,521.4009,108.36147,0.9728759,492.9008,103.985886,0.7725092,511.20892,110.622284,0.9942115,500.51428,110.97171,0.98644084,511.00238,137.21643,0.98829645,502.24573,137.47992,0.96724296,515.55994,161.1567,0.9678303,507.23364,160.75049,0.93210286,0.99480486,-0.01547566,0.98651209,0.12724434,146.10674109734174,158.43781463646567,168.77648439989866,171.63915096292692,1.206444015817278,110.796997,74.964887,63.260567,30.229450000000043,100.50202,0.3007844986520225,174.54103472336814,0.8826137582352942,-2.245330000000024,-0.1648330000000015,2.25137218753122,-0.7639900000000353,0.1112589999999968,0.7720487582925403,-2.015680000000032,-0.2046399999999977,2.026041310536418,-0.3754800000000386,-0.1489199999999968,0.4039336539582065,-1.7823300000000015,-0.3026800000000023,1.8078482821575508,-0.2289800000000355,-0.1386470000000059,0.2676842001482678,-1.207179999999994,-0.0818179999999983,1.2099494772609247,1.1690100000000143,-0.2156680000000008,1.1887375935520983,-1.4681600000000117,-0.1884449999999944,1.4802044803421697,0.1350400000000036,-0.0502849999999881,0.1440985177751658,-0.4410399999999299,0.1936450000000036,0.4816790089104357,1.5849000000000617,0.1091650000000044,1.5886550938530353,-1.7653799999999933,0.2111940000000061,1.7779677865574446,0.6125800000000368,0.3814490000000035,0.7216353622162981,0.0451100000000224,0.0455499999999915,0.0641070557739259,1.3330200000000332,0.1712099999999878,1.343969934373565,-1.242939999999976,0.1630700000000047,1.2535915078285835,0.7347600000000511,0.7103150000000085,1.0219685204667937,0.230799999999931,-0.1270099999999985,0.2634391392712324,1.8070999999998776,0.2717000000000098,1.8274110922284463,0.1837300000000254,-1.548784000000012,1.5596437386647135,1.5533300000000736,-2.54513900000002,2.9817053204871424,-1.3580800000000297,0.3229539999999957,1.395951493611464,0.8212199999999825,0.8984439999999978,1.2172115303167184,-2.3188499999999976,0.2296750000000003,2.330196542810282,0.0676200000000335,0.8079199999999958,0.8107448370480059,-1.253659999999968,-0.240160000000003,1.2764561180079483,-0.3149999999999409,0.4519300000000044,0.5508772321488398,-1.8204900000000064,-0.3412200000000212,1.852191925395432,0.7762900000000172,0.4074599999999577,0.8767267622811524,0.1870800000000372,-0.7635999999999967,0.786183112512606,0.8939200000000938,-0.4843500000000063,1.0167044255338784,-0.5757800000000088,-0.9966899999999724,1.1510488975277964,2.450550000000021,-0.6195399999999722,2.527652095146812,0.2763145000000122,0.8531820000000181,111.0923819,0.5051677317304384,75.1136827,0.5004436443447063,63.78719980000001,0.4909031135959728,0.0,0.103809762,0.0400637870434788,0,0
30,1000.0,494.9425,63.091843,0.91396475,497.18924,60.496887,0.93918765,494.02252,60.713745,0.64036894,503.73337,60.33844,0.91829115,494.67242,61.417984,0.17026828,513.189,73.4245,0.99392176,496.17072,74.79029,0.96694636,522.75214,90.99022,0.9876523,497.13156,91.95598,0.74480575,520.4775,107.13786,0.97450405,493.02234,103.665,0.74302787,510.34802,110.19889,0.9942772,499.8638,110.281364,0.98524624,510.4518,137.06471,0.9890276,501.0646,137.03723,0.966132,515.8187,161.43954,0.9699774,506.25577,160.57494,0.93189746,0.93468219,0.04347924,0.92362685,0.13657886,143.41699424247489,157.45798411647831,167.80395920155254,170.13239676635587,0.6756918907634865,110.240127,74.107395,63.091843,29.72980000000007,101.1011,0.2940601012841597,175.41160187046003,0.8723233388235294,-1.6691299999999956,-0.1687240000000045,1.6776360585883896,0.5762000000000285,-0.0038910000000029,0.5762131375463708,-1.690560000000005,-0.157792999999998,1.697908049468232,0.3251200000000267,0.0468469999999996,0.3284777858684166,-1.3591800000000376,-0.2485349999999968,1.3817162945500427,0.4231499999999641,0.0541450000000054,0.4266000510137924,-1.2192100000000323,-0.3872070000000036,1.2792194045389875,-0.0120300000000383,-0.3053890000000052,0.3056258533256048,-0.6812199999999962,-0.5775910000000053,0.8931248802272843,0.7869400000000155,-0.3891460000000108,0.8779004345118147,-0.6296600000000581,-0.7078500000000076,0.947377083372869,-0.1886200000001281,-0.9014950000000111,0.9210161450403944,-0.2246999999999843,-1.0071340000000075,1.0318958203016468,1.540680000000009,-1.2183280000000138,1.9641837943492104,-0.3781099999999924,-0.6676800000000043,0.7673094255253222,-0.4232200000000148,-0.7132299999999958,0.8293444406879488,0.1993999999999687,-0.8013400000000104,0.8257760928968604,1.4423399999999449,-0.9644100000000152,1.735059458260687,-0.9234000000000152,-1.2236099999999936,1.532934764463254,-1.1541999999999462,-1.0965999999999951,1.5920770081876896,0.1215399999999817,-0.3208859999999873,0.3431323310269486,-0.0621900000000437,1.2278980000000246,1.2294718762558443,-0.8608999999999583,-0.4233939999999876,0.9593806800409928,0.4971800000000712,-0.7463479999999834,0.8967849739508608,-0.6504799999999591,-0.6903460000000052,0.9485261357052605,1.6683700000000383,-0.9200210000000056,1.905228883189928,-0.5505800000000249,-0.1517200000000116,0.5711018252466288,0.7030799999999431,0.0884399999999914,0.7086205754844538,-1.181129999999996,-0.4426899999999989,1.2613653368473343,0.6393600000000106,-0.1014699999999777,0.6473618543751315,0.258760000000052,0.2828399999999931,0.3833473662359284,0.0716800000000148,1.0464399999999898,1.0488921279140104,-0.9778699999999958,-0.1755500000000154,0.993502661999452,-0.4020899999999869,0.8211399999999571,0.9143015190296464,-0.5568700000000035,-0.8331845000000158,110.7671523,0.3934889355154332,74.7383699,0.3717226695637792,63.5122744,0.38991558850133,0.0093345199999999,0.124493108,0.0095413573039754,0,0
31,1033.3333333333337,493.63528,62.907394,0.9098976,495.93658,60.21962,0.937466,492.68222,60.464554,0.62289816,502.82504,59.964767,0.9182635,493.48047,61.164932,0.1573569,512.4058,73.19599,0.99313486,495.80716,74.61549,0.9607359,521.6666,91.098526,0.98550147,497.41776,92.131874,0.6993854,518.5431,107.884285,0.9701799,493.21356,104.682175,0.702173,509.4401,110.66913,0.9935363,498.97247,110.66562,0.9829102,509.9254,137.73366,0.9886507,498.97943,137.59131,0.96429914,515.5256,162.50981,0.9708798,502.89038,161.46451,0.9329,0.91601685,-0.09776688,0.89464069,0.17072358,142.10687551945864,156.22629710764468,168.2906275648252,170.71115525728763,0.1561262540437485,110.667375,73.90574,62.907394,28.984380000000044,102.545043,0.2826502273478964,175.11201206807095,0.8641275782352942,-1.3072199999999723,-0.1844490000000007,1.3201687626970002,0.361910000000023,-0.0157249999999962,0.3622514647658675,-1.2526599999999917,-0.2772670000000019,1.2829785909706288,0.4379000000000133,-0.1194740000000038,0.4539057684982782,-1.3403000000000134,-0.2491910000000032,1.3632682217674692,0.0188800000000242,-0.0006560000000064,0.0188913931725778,-0.908329999999978,-0.3736729999999966,0.9821888310447018,0.3108800000000542,0.013534000000007,0.3111744583927702,-1.191949999999963,-0.2530519999999967,1.2185155383514443,-0.5107299999999668,0.3245390000000085,0.6051203974590277,-0.7831999999999653,-0.22851,0.815854803319773,-0.1535399999999072,0.4793400000000076,0.5033302764586876,-0.3635600000000067,-0.1748000000000047,0.4033991988093265,-0.1388600000000224,0.832334000000003,0.8438376545023405,-1.0855400000000373,0.1083060000000131,1.0909295491625863,-0.7074300000000449,0.7759860000000174,1.0500530829896604,0.286200000000008,0.1758939999999995,0.3359302594825367,0.0868000000000392,0.97723400000001,0.9810813069037786,-1.9343999999999824,0.7464250000000021,2.0734159352684003,-1.0109999999999673,1.970034999999996,2.2143077702128307,0.191219999999987,1.0171749999999946,1.034992786943457,0.0696800000000053,1.338060999999982,1.3398740769643065,-0.9079200000000468,0.4702399999999898,1.0224697472297533,-0.0470200000000886,0.8936339999999774,0.8948701617307216,-0.891330000000039,0.3842560000000077,0.970629611353412,-0.2408500000000799,1.074602000000013,1.1012620854746913,-0.5263999999999669,0.6689499999999953,0.8512291480558914,0.024180000000058,0.8206700000000069,0.8210261392306667,-2.085170000000005,0.554079999999999,2.157530666132007,-0.9040400000000092,0.996769999999998,1.3456740892578751,-0.2930999999999812,1.0702699999999936,1.109678098774584,-0.5518600000000333,0.7874300000000005,0.9615588720926233,-3.3653899999999908,0.889569999999992,3.4809746676756963,-2.387519999999995,1.0651200000000074,2.6143321068295804,0.4272479999999916,0.9841179999999952,110.6645463,0.3185403933766706,74.50916889999999,0.4704025077897446,63.27733920000001,0.3055229926515418,0.03414472,0.134515442,0.0222716576964889,0,0
32,1066.6666666666667,492.13336,62.90854,0.9041462,494.3327,60.195107,0.9350168,491.20346,60.447266,0.59633934,501.4051,59.589264,0.9173309,492.13376,60.863388,0.13791192,511.94522,72.41848,0.9926764,494.65714,73.89319,0.9563916,521.12885,90.53082,0.98530453,496.33752,91.61903,0.6807954,515.7223,107.109634,0.96995753,492.03036,104.58602,0.6898093,509.2464,110.10625,0.99364895,498.07962,110.06472,0.9828074,510.9663,137.8907,0.9896543,497.58267,137.6889,0.9666178,515.7168,163.84991,0.97375655,499.5893,162.67406,0.93824905,0.87655989,-0.04200537,0.86123291,0.15770437,135.05152807147508,156.2100380800021,173.1718726288305,174.37764475819404,0.5615139937836157,110.085485,73.155835,62.90854,29.92539000000005,104.260646,0.2870247870224712,175.12435107564897,0.8594361158823529,-1.501920000000041,0.0011460000000056,1.5019204372123456,-0.1947000000000684,0.1855950000000064,0.2689862338950248,-1.6038800000000035,-0.0245129999999988,1.6040673120442956,-0.3512200000000121,0.252754000000003,0.4327124598575941,-1.4787599999999657,-0.0172880000000006,1.478861052480556,-0.1384599999999523,0.2319030000000026,0.2700928969983994,-1.4199399999999969,-0.3755030000000019,1.46875188735504,-0.5116100000000188,-0.0018300000000053,0.5116132728927381,-1.34671000000003,-0.3015439999999998,1.380056740875563,-0.154760000000067,-0.048492000000003,0.1621793194708285,-0.4605799999999931,-0.7775099999999924,0.9036900666157516,0.3226199999999721,-0.5489999999999924,0.6367767775288085,-1.1500199999999836,-0.72229999999999,1.3580365570926094,-0.7864599999999768,-0.5474999999999852,0.9582669678121788,-0.53774999999996,-0.5677060000000012,0.781962380767744,0.5477900000000773,-0.6760120000000143,0.8700954592710526,-1.0802400000000034,-0.5128440000000012,1.1957957291845496,-1.3664400000000114,-0.6887380000000007,1.5302020475231473,-2.820799999999963,-0.7746510000000058,2.925234488344618,-0.8863999999999805,-1.521076000000008,1.7605048019747034,-1.1831999999999994,-0.096154999999996,1.1871006798182695,-1.3744199999999864,-1.1133299999999906,1.7687662438264538,-0.1936999999999784,-0.5628799999999927,0.5952760573044942,0.7142200000000685,-1.0331199999999825,1.255964626412727,-0.8928500000000099,-0.60090000000001,1.0762257813767655,-0.0015199999999708,-0.9851560000000176,0.9851571726054856,1.040899999999965,0.1570400000000233,1.0526796148876136,1.567299999999932,-0.5119099999999719,1.6487817132961409,-1.396759999999972,0.0975899999999967,1.4001650994436052,0.688410000000033,-0.4564900000000023,0.8260093511577503,0.1911999999999807,1.3401000000000067,1.3536711011172584,0.484299999999962,0.2698300000000131,0.554395814287924,-3.301080000000013,1.2095500000000072,3.515699129462034,0.0643099999999776,0.3199800000000152,0.3263785784943719,-0.5818899999999871,-1.0091379999999788,110.4621333,0.2953119541049829,74.17926489999999,0.7219275016086373,63.118748800000006,0.2256822287349285,-0.01301921,0.143899098,0.0194838791184912,0,0
33,1100.0,491.22046,62.406975,0.9121823,493.55276,59.69789,0.94107276,490.12192,59.941124,0.61940074,500.56155,59.525955,0.92328626,490.62347,60.77469,0.14377707,510.47226,72.84105,0.99342716,493.09805,74.22892,0.9599909,518.7691,91.15608,0.98635197,494.36935,91.6715,0.68744475,512.58417,107.83394,0.97177935,490.68478,104.241394,0.6965969,508.06165,110.04706,0.9942661,496.5602,110.04103,0.9842754,510.4383,137.32106,0.99095774,495.53854,137.15999,0.9701616,515.3942,163.09866,0.9777828,496.8254,161.96933,0.9464987,0.89914704,-0.0378294,0.87941067,0.18349714,135.281997714962,159.4941123493442,174.0974855484623,174.87322980378724,0.8251731937484771,110.044045,73.534985,62.406975,28.64717999999999,103.57270499999998,0.2765900506645061,175.43285124761147,0.8646619117647059,-0.9128999999999792,-0.5015649999999994,1.0416111842837332,0.5890200000000618,-0.502711000000005,0.7743790479610602,-0.7799400000000105,-0.4972169999999991,0.9249492681704308,0.8239399999999932,-0.4727040000000002,0.9499085193933092,-1.0815400000000182,-0.506141999999997,1.1941141050017106,0.3972199999999475,-0.4888539999999963,0.6298904362791633,-0.8435499999999934,-0.0633089999999967,0.8459223557638067,0.5763900000000035,0.3121940000000052,0.655507838043152,-1.5102899999999977,-0.0886980000000008,1.512892335661726,-0.1635799999999676,0.2128459999999989,0.268443357369835,-1.4729600000000005,0.4225699999999932,1.532376117831388,-1.0123800000000074,1.2000799999999856,1.5700653715052697,-1.559090000000026,0.3357299999999981,1.594827972227751,-0.4090700000000424,1.058029999999988,1.1343569745895732,-2.3597500000000764,0.6252599999999973,2.4411821173563344,-1.8220000000001164,1.1929659999999984,2.177808962502547,-1.9681699999999864,0.0524699999999995,1.9688692820499656,-0.887929999999983,0.5653140000000008,1.0526156010130054,-3.1381300000000465,0.7243059999999986,3.220633335003581,-0.3173300000000836,1.4989570000000043,1.5321783240697102,-1.345579999999984,-0.3446260000000052,1.3890113809022446,-0.1623799999999846,-0.2484710000000092,0.2968250364120243,-1.1847500000000082,-0.0591900000000009,1.186227641981091,-0.9910500000000296,0.5036899999999918,1.111703071238022,-1.5194199999999682,-0.0236899999999877,1.5196046698072176,-0.6265699999999583,0.5772100000000222,0.8519162805111623,-0.5279999999999632,-0.569640000000021,0.7767069779524226,-1.5688999999999282,-0.7266800000000444,1.729020252165902,-2.044129999999996,-0.5289099999999962,2.1114481393110225,-0.6473700000000235,-0.626499999999993,0.900882992901976,-0.3226000000000795,-0.7512499999999989,0.8175862783217742,-0.5138000000000602,-2.0913500000000056,2.1535401696973486,-2.7638999999999783,-0.7047299999999836,2.852330202290726,0.5371800000000349,-1.9142799999999909,1.988222892635532,-0.0414399999999943,0.5404499999999928,110.3668058,0.3445176909260927,73.9337684,0.6816058116043993,62.915063800000006,0.3197182201748547,0.0257927699999999,0.155149658,0.0233250650944596,0,0
34,1133.3333333333333,490.6732,63.51039,0.92132276,492.70776,60.455635,0.9302023,488.73978,61.219078,0.71381974,498.82782,59.45704,0.87533605,488.169,61.896706,0.2566907,507.54675,71.78203,0.99189115,491.03375,75.204155,0.9730075,517.2831,89.67668,0.9756445,493.7834,94.487335,0.7595074,510.77243,106.93091,0.9531273,491.7525,106.50218,0.7301028,506.7764,110.53237,0.9893504,495.7652,111.625626,0.979091,509.27264,137.86604,0.97125006,495.6791,138.87001,0.93531996,511.63907,162.75162,0.9271558,495.9167,163.57892,0.873763,0.93335166,-0.03021439,0.91502926,0.18153198,130.77632921423185,162.29055540007514,179.785964455632,179.26798578925164,3.016380373627399,111.078998,73.4930925,63.51039,29.114100000000008,104.12188,0.2796155785929377,168.29185862079953,0.8680342600000001,-0.5472599999999943,1.1034149999999985,1.231672915113826,0.3656399999999848,1.6049799999999976,1.6461024907337882,-0.8449999999999704,0.7577449999999999,1.1349900814654506,-0.0650599999999599,1.254961999999999,1.2566472954031265,-1.3821399999999926,1.2779540000000011,1.8824126555343763,-0.3005999999999744,1.784095999999998,1.809242630830917,-1.7337300000000369,-0.068915000000004,1.7350991297689964,-0.8901800000000435,-0.0056060000000073,0.8901976520054844,-2.454470000000015,1.122016000000002,2.698766919383013,-0.9441800000000172,1.210714000000003,1.5353515109563802,-2.925510000000031,-1.0590199999999896,3.1112910697169043,-1.4525500000000306,-1.4815899999999829,2.0748519057031607,-2.064300000000003,0.975234999999998,2.2830720083311014,-0.5052099999999768,0.6395049999999998,0.81498698708935,-1.48599999999999,-1.4793999999999985,2.096859642417672,0.8737500000000864,-2.1046599999999955,2.278822673684842,-0.5859500000000253,2.815835000000007,2.8761544029702346,1.3822199999999611,2.7633650000000074,3.089776408030997,-1.811739999999986,-0.9030300000000012,2.024318405908505,1.3263900000000604,-1.6273359999999997,2.0994125104409944,1.0677200000000084,2.260785999999996,2.5002358561135787,2.4132999999999925,2.605412000000001,3.551364326529168,-1.2852499999999625,0.4853099999999983,1.3738243550759688,-0.100499999999954,0.5444999999999993,0.5536971193712227,-0.7950000000000159,1.5845959999999906,1.7728422048270387,0.7244199999999523,1.6082859999999783,1.763907082075431,-1.1656600000000026,0.5449800000000096,1.286765882357788,-0.6376600000000394,1.1146200000000306,1.284129284768523,0.1405599999999935,1.7100200000000143,1.715787141227037,2.184689999999989,2.2389300000000105,3.1282068251635797,-3.755129999999952,-0.3470399999999927,3.771132201143263,-3.432529999999872,0.4042100000000062,3.4562476654602063,-0.9087000000000104,1.6095899999999972,1.8483819026651416,1.855199999999968,2.314319999999981,2.966115996113401,1.0349529999999874,1.0763929999999815,110.423206,0.4418761437969334,73.6394095,0.3728604970965565,62.96502840000001,0.3973152017534352,-0.0019651599999999,0.166007186,0.0193915266077723,0,0
35,1166.6666666666667,488.20474,63.4955,0.9157883,490.191,60.426056,0.932119,486.39713,61.195267,0.6755203,496.38815,59.368332,0.8914228,486.19968,61.8518,0.21397257,505.16437,71.63875,0.9923764,489.7409,75.25408,0.96845055,515.351,89.07892,0.97872865,492.71423,94.65834,0.7130736,509.55832,106.65582,0.95748657,489.2096,107.7238,0.6923932,504.87552,110.528755,0.9905566,494.5232,111.68891,0.979076,507.7516,137.46173,0.9771096,494.12216,138.54515,0.94103265,511.38712,162.08206,0.94429874,494.24493,162.90219,0.8924783,1.01064976,-0.04642699,1.00026823,0.13682451,131.47096285864495,156.27293887464057,177.69553273173193,178.85567733008847,3.4139190800434203,111.1088325,73.446415,63.4955,29.15132,103.53385799999998,0.2815631551027187,166.80778980918112,0.8621108135294118,-2.468459999999993,-0.0148900000000011,2.4685049085833244,-1.921199999999999,-1.1183049999999994,2.222974474218045,-2.5167600000000334,-0.0295789999999982,2.516933812169317,-1.671760000000063,-0.7873239999999981,1.847880022776427,-2.342649999999992,-0.023811000000002,2.3427710059288684,-0.9605099999999992,-1.3017650000000032,1.617767466394663,-2.4396699999999782,-0.0887079999999969,2.441282207808817,-0.7059399999999414,-0.0197929999999928,0.7062174215133162,-1.969319999999982,-0.0449060000000045,1.9698319246158869,0.4851500000000328,-1.166922000000007,1.2637553072426828,-2.382379999999955,-0.1432800000000043,2.3866846508912287,0.543130000000076,0.9157399999999852,1.0646924177902537,-1.2928499999999872,0.0499250000000017,1.2938135986783286,0.7714500000000157,-0.925309999999996,1.2047131187963451,-1.9320999999999915,-0.5977600000000081,2.022455791259719,-0.4461000000000013,0.8816399999999902,0.988076059622934,-1.0691699999999855,0.1710049999999938,1.0827590678100862,-0.4832199999999602,-2.644830000000013,2.6886106630191047,-1.2141100000000051,-0.2750899999999916,1.2448845730428215,0.597629999999981,0.6279400000000095,0.8668738434743485,-2.542899999999974,1.2216200000000017,2.821116061845006,-3.610619999999983,-1.0391659999999945,3.757185483837053,-1.9008800000000288,-0.0036149999999963,1.9008834374114345,-0.615630000000067,-0.4889249999999947,0.786160258805466,-1.2420000000000186,0.0632840000000101,1.2436112192546542,-0.4470000000000027,-1.5213119999999805,1.5856226541469265,-1.5210400000000277,-0.4043100000000095,1.5738580805460485,-0.3553800000000251,-0.9492900000000192,1.0136303312845636,-1.556939999999997,-0.324860000000001,1.590470428269571,-1.697499999999991,-2.034880000000016,2.649951483404938,-0.2519500000000221,-0.6695599999999899,0.7153945737143926,3.5031799999999294,-0.3225199999999972,3.51799506292995,-1.6717699999999809,-0.6767300000000205,1.8035460697747543,-0.7630699999999706,-2.2863200000000177,2.4102976926720143,0.0298345000000068,-1.0051184999999805,110.5969471,0.516394721589657,73.5072135,0.2678419953631096,63.045759800000006,0.4648031462568494,-0.04470747,0.1660563159999999,0.0192984154485152,0,0
36,1200.0,486.6706,64.23057,0.9190927,488.73642,61.43032,0.9408509,485.2569,61.966377,0.65988714,495.27213,60.38243,0.91874945,485.57257,62.326843,0.18303184,505.04272,72.43422,0.9941877,488.44186,75.2241,0.9710132,513.9797,89.57539,0.98319054,490.53418,93.43844,0.71701777,508.35693,107.07352,0.96229917,486.68414,107.776955,0.69040763,504.69876,111.29852,0.99311054,493.43555,112.03715,0.98354626,508.56235,138.18256,0.9836615,491.4236,138.76718,0.95405275,514.2107,163.0747,0.95787275,491.83496,162.93236,0.9111152,0.91870807,-0.01866905,0.90716861,0.14394823,134.6495287829636,158.41703889154093,175.39349443944332,174.7202612444608,3.515943489980301,111.667835,73.82916,64.23057,28.9538,102.69227,0.2819472168455599,170.4602240699076,0.8660639435294119,-1.5341400000000365,0.7350700000000003,1.7011506236956535,0.934319999999957,0.7499600000000015,1.1980792394495123,-1.4545799999999645,1.0042639999999992,1.7675828574909564,1.062180000000069,1.0338429999999974,1.482247516796416,-1.140230000000031,0.7711100000000002,1.3764937649695588,1.202419999999961,0.7949210000000022,1.4414275051631662,-1.1160199999999918,1.014097999999997,1.5079440951189058,1.3236499999999864,1.102805999999994,1.7228553033078404,-0.627110000000016,0.4750429999999994,0.7867228253641937,1.342209999999966,0.519949000000004,1.4394007943241218,-0.1216500000000451,0.7954699999999946,0.8047181142487115,2.26072999999991,0.9387499999999988,2.4478871900885446,-1.2990399999999909,-0.0299799999999947,1.2993859018782588,-0.0061900000000036,-0.0799049999999965,0.0801444017071654,-1.3713000000000193,0.4964700000000022,1.4584053451972998,0.560799999999972,1.0942300000000105,1.2295673763157475,-2.1800499999999943,-1.2198999999999955,2.4981541210461704,-1.1108800000000087,-1.3909049999999894,1.7800761482096743,-1.2013900000000035,0.4176999999999964,1.2719320823455966,0.0127200000000016,0.692789999999988,0.6929067632084301,-2.5254600000000096,0.0531550000000038,2.52601933199749,0.017439999999965,-1.1684649999999976,1.1685951436767967,-0.1767600000000015,0.7697649999999925,0.789798868589332,1.7241200000000276,0.7733799999999889,1.8896312864683624,-1.0876499999999965,0.3482399999999899,1.1420392375483364,0.1543500000000222,0.2849559999999798,0.3240738255953346,0.8107499999999845,0.7208300000000065,1.0848554979350864,2.331790000000012,1.125140000000016,2.5890509117628597,-2.6985599999999863,0.2220299999999895,2.707678598818538,-1.141619999999989,0.5468899999999906,1.265853426151687,2.8235799999999927,0.9926399999999944,2.992981487747618,3.0755300000000148,1.6621999999999844,3.4959681950641426,-2.409969999999987,0.0301699999999982,2.4101588391224213,-0.7382000000000062,0.7069000000000187,1.0220796691061005,0.5590024999999912,0.5291679999999843,110.7970391,0.7085744133276822,73.49189750000001,0.2401096709320422,63.31039499999999,0.6889555553698969,0.00712372,0.160701246,0.0212915217581269,0,0
37,1233.3333333333337,485.21957,63.926025,0.9205387,487.47223,61.151978,0.9368032,483.8246,61.662216,0.691312,494.1864,60.658447,0.9053488,484.0263,62.49527,0.21551457,503.89026,73.47801,0.99370295,486.0821,76.2011,0.97524965,512.61676,90.87662,0.9795704,487.5228,94.71183,0.7613998,507.92212,107.62235,0.9552617,483.947,108.961655,0.7217568,503.58902,112.106674,0.99298406,491.35413,112.854004,0.98539877,508.04468,138.4996,0.9832434,488.15033,139.03555,0.9590039,515.3097,163.14526,0.95885664,489.21393,162.93484,0.9209325,0.98844834,-0.05625281,0.97570369,0.14787855,137.70258843402613,161.4628810822006,173.1579315457794,170.47530117532625,3.777740047326352,112.480339,74.83955499999999,63.926025,31.485100000000045,102.486813,0.3072112281683382,171.30610345251588,0.8739339905882353,-1.451030000000003,-0.3045449999999974,1.4826448387678712,0.0831100000000333,-1.0396149999999975,1.042931742888767,-1.264189999999985,-0.2783420000000021,1.2944692445415469,0.1903899999999794,-1.2826060000000012,1.2966597484829994,-1.432299999999998,-0.3041610000000005,1.4642394626293185,-0.2920699999999669,-1.0752710000000008,1.1142318467630434,-1.0857300000000123,0.276017000000003,1.120265601180822,0.0302899999999795,-0.738080999999994,0.7387022720020495,-1.5462699999999927,0.1684270000000012,1.5554158824021882,-0.9191599999999768,-0.3066159999999982,0.9689522573666652,-1.1524599999999623,1.043790000000001,1.5548831517834116,-1.0308099999999172,0.2483200000000067,1.060298108316634,-2.3597599999999943,0.9769999999999897,2.554015712089484,-1.0607200000000034,1.0069799999999844,1.4625784214188229,-1.3629399999999805,1.301230000000004,1.8843579693094292,0.0083600000000387,0.8047600000000017,0.8048034214639022,-3.011379999999974,1.2733900000000062,3.269546084168238,-0.8313299999999799,2.493290000000002,2.628232218240994,-0.4348099999999704,0.5488299999999953,0.7001957619123163,0.7665800000000331,0.1311299999999988,0.7777145834430845,-2.737140000000011,1.1846999999999923,2.982524009894981,-0.2116800000000012,1.1315449999999885,1.1511744044344343,-1.109739999999988,0.8081540000000018,1.3728203652757982,-0.9329799999999864,0.0383890000000093,0.9337694553373308,-2.08141999999998,0.8168540000000064,2.235969515381622,-0.9937699999999836,0.4686140000000165,1.0987164756642105,-0.5176699999999528,0.3170399999999915,0.6070392001345101,-1.328419999999937,-0.4037900000000149,1.3884329513879472,-3.273270000000025,0.2683700000000044,3.2842531799177976,-0.5747100000000387,0.0463400000000149,0.5765752159953165,1.0990000000000464,0.0705600000000004,1.1012627813560678,-1.7245799999999465,-0.922079999999994,1.955609291959875,-2.621030000000019,0.0024800000000197,2.6210311732789635,-0.2110600000000317,-0.0276899999999784,0.2128686442386765,0.8125040000000041,0.2535015000000129,111.2760099,0.8928094668994067,73.82864149999999,0.5845662370553749,63.513892,0.6908503347198481,0.0039303199999999,0.158736082,0.0220762684478249,0,0
38,1266.6666666666663,483.43518,64.054276,0.90249676,485.6025,61.342392,0.92022216,482.12943,61.782448,0.6471457,491.97314,60.822136,0.8884107,482.25494,62.412704,0.19859675,501.9069,73.45182,0.9927979,483.42578,76.09964,0.97104496,511.01306,90.91669,0.97726727,485.2337,95.2563,0.7383754,506.11624,107.72292,0.9505913,483.89697,110.49216,0.69843465,502.1337,111.90797,0.9934115,489.3909,112.72216,0.98610663,507.41086,138.3835,0.98630583,486.11655,138.94513,0.9661324,515.4423,163.84384,0.96832496,488.0973,163.63019,0.93812996,1.3988669,0.23188929,1.36971897,0.16409115,136.21802043188526,169.5945971691039,173.7647532511895,168.29492625472705,4.714670439003898,112.315065,74.77573,64.054276,33.31287000000003,103.021704,0.3233577817412363,171.8466261678349,0.866105578235294,-1.7843899999999735,0.1282509999999987,1.7889930103555198,-0.3333599999999705,0.4327959999999962,0.5462977825471902,-1.869730000000004,0.1904139999999969,1.879400905686707,-0.6055400000000191,0.468755999999999,0.7657746921490826,-1.695169999999962,0.1202320000000014,1.699428451781325,-0.2628699999999639,0.424393000000002,0.4992094303486091,-2.213259999999991,0.1636889999999979,2.219304827264826,-1.1275299999999788,-0.112328000000005,1.133111415741609,-1.7713600000000156,-0.0825659999999999,1.773283224404961,-0.2250900000000228,-0.2509930000000011,0.3371394283512548,-1.983360000000005,-0.0261899999999997,1.9835329101630803,-0.8309000000000424,-1.069980000000001,1.3547147339569583,-2.65632000000005,-0.1014600000000029,2.658256961619826,-0.2965600000000563,-1.0784599999999926,1.118491754641051,-1.6037000000000037,0.04007,1.6042005158021897,-0.2407600000000229,-1.2611600000000038,1.2839353267201663,-2.289100000000019,0.5444699999999898,2.3529611962163925,0.7222799999999552,-0.7289200000000164,1.0261641022760244,-1.805880000000002,0.1005700000000047,1.8086782188382784,-1.3710700000000315,-0.4482599999999905,1.4424874254218223,-0.0500299999999924,1.5305050000000051,1.531322485933324,2.6871100000000183,0.3458050000000128,2.709269504889668,-1.4553200000000288,-0.1987039999999922,1.4688225154919436,-0.3455800000000408,-1.006857999999994,1.0645133012621384,-1.96323000000001,-0.1318440000000009,1.9676521220063368,0.11818999999997,-0.9486980000000074,0.9560317836264686,-0.6338200000000143,-0.1160999999999887,0.644365581327879,-0.1161500000000614,-0.4331399999999803,0.4484429530051702,-2.033779999999979,-0.0904199999999946,2.0357890030157626,1.2394900000000462,-0.358789999999999,1.2903742574153103,0.1326000000000249,0.6985799999999927,0.711053286610783,-0.9664000000000216,0.6280199999999923,1.1525355007113802,-1.1166299999999865,0.6953499999999906,1.3154368777710153,1.5044000000000324,0.6928699999999708,1.6562874741119238,-0.1652739999999966,-0.9777780000000008,111.7302139,0.6555201359731345,74.0767905,0.6836891833748936,63.843352200000005,0.3290616376823647,0.0162125999999999,0.154854884,0.0179561603965809,0,0
39,1300.0,481.19812,63.700874,0.8972161,483.36203,60.82589,0.92345905,479.4692,61.345078,0.61843735,489.1248,60.72824,0.8928904,478.46637,62.64962,0.16532628,498.62598,73.79355,0.9931143,479.92117,77.292465,0.96262515,509.78564,90.86775,0.9866496,483.33417,96.41992,0.7261711,505.52698,107.83404,0.9733961,482.24146,108.99926,0.72941726,499.83398,111.364296,0.99566394,486.90506,112.81493,0.9887088,506.48193,138.53812,0.9934242,486.6881,139.77493,0.9795085,514.518,163.57176,0.9845329,488.13898,164.30807,0.96435523,1.14548662,0.23827608,1.11768675,0.0783609,132.74091511959767,164.918362773223,175.949935659789,176.1544149646421,6.394728647410864,112.089613,75.5430075,63.700874,36.051630000000046,103.57983,0.3480564667073076,169.40472061568,0.8691115447058824,-2.2370599999999854,-0.3534020000000026,2.264802511744443,-0.4526700000000119,-0.4816530000000014,0.660983919100164,-2.240470000000016,-0.5165019999999956,2.2992346850428445,-0.370740000000012,-0.7069159999999926,0.7982345386263353,-2.6602300000000128,-0.4373700000000013,2.6959443929354454,-0.9650600000000508,-0.5576020000000028,1.1145675367621746,-2.8483400000000074,-0.0938960000000008,2.849887228368176,-0.6350800000000163,-0.2575849999999988,0.6853295839412014,-3.788569999999993,0.2369160000000008,3.795970473535845,-2.0172099999999773,0.3194820000000007,2.042352793330258,-3.2809199999999805,0.3417299999999983,3.2986687374302788,-1.2975599999999758,0.367919999999998,1.348713119977683,-3.504609999999957,1.1928250000000131,3.7020430484699567,-0.8482899999999063,1.2942850000000163,1.5475043086611693,-1.227419999999995,-0.0489400000000017,1.228395286542564,0.3762800000000084,-0.0890100000000018,0.3866644779392162,-1.899530000000027,1.1636200000000088,2.2276053791684296,0.389569999999992,0.619150000000019,0.7315131628344204,-0.5892600000000243,0.1111199999999996,0.5996457304109056,1.2166199999999776,0.0105499999999949,1.2166657416480278,-1.6555099999999925,-1.4928999999999917,2.229229411725036,-1.60548,-3.023404999999997,3.423235870404635,-2.29971999999998,-0.54367400000001,2.3631109784933746,-0.8443999999999505,-0.3449700000000177,0.9121489247375828,-2.485839999999996,0.0927700000000015,2.4875704569921195,-0.522609999999986,0.2246140000000025,0.568834476008607,-0.9289300000000368,0.1546199999999942,0.9417103000923726,-0.2951100000000224,0.270719999999983,0.4004737575672144,0.571550000000002,0.8298000000000059,1.0075899178237206,2.605329999999981,0.9202200000000004,2.763068811539065,-0.9243000000000166,-0.2720799999999883,0.9635133711578808,-1.0569000000000417,-0.970659999999981,1.4349977162351342,0.0416799999999852,0.6778799999999876,0.6791601554861577,1.1583099999999718,-0.0174700000000029,1.1584417365581814,-0.2254520000000042,-0.0601780000000076,111.93233690000002,0.5521873829797247,74.4867735,0.8423749510009386,63.881449,0.2895279026156147,-0.08573025,0.134220668,0.0327891086043701,0,0
