frame_id,timestamp_ms,nose_x,nose_y,nose_conf,left_eye_x,left_eye_y,left_eye_conf,right_eye_x,right_eye_y,right_eye_conf,left_ear_x,left_ear_y,left_ear_conf,right_ear_x,right_ear_y,right_ear_conf,left_shoulder_x,left_shoulder_y,left_shoulder_conf,right_shoulder_x,right_shoulder_y,right_shoulder_conf,left_elbow_x,left_elbow_y,left_elbow_conf,right_elbow_x,right_elbow_y,right_elbow_conf,left_wrist_x,left_wrist_y,left_wrist_conf,right_wrist_x,right_wrist_y,right_wrist_conf,left_hip_x,left_hip_y,left_hip_conf,right_hip_x,right_hip_y,right_hip_conf,left_knee_x,left_knee_y,left_knee_conf,right_knee_x,right_knee_y,right_knee_conf,left_ankle_x,left_ankle_y,left_ankle_conf,right_ankle_x,right_ankle_y,right_ankle_conf,acc_x,acc_y,acc_z,acc_mag,left_elbow_angle,right_elbow_angle,left_knee_angle,right_knee_angle,spine_angle,hip_height,shoulder_height,head_height,bbox_width,bbox_height,bbox_aspect_ratio,shoulder_tilt,avg_confidence,nose_vx,nose_vy,nose_speed,nose_ax,nose_ay,nose_accel,left_eye_vx,left_eye_vy,left_eye_speed,left_eye_ax,left_eye_ay,left_eye_accel,right_eye_vx,right_eye_vy,right_eye_speed,right_eye_ax,right_eye_ay,right_eye_accel,left_ear_vx,left_ear_vy,left_ear_speed,left_ear_ax,left_ear_ay,left_ear_accel,right_ear_vx,right_ear_vy,right_ear_speed,right_ear_ax,right_ear_ay,right_ear_accel,left_shoulder_vx,left_shoulder_vy,left_shoulder_speed,left_shoulder_ax,left_shoulder_ay,left_shoulder_accel,right_shoulder_vx,right_shoulder_vy,right_shoulder_speed,right_shoulder_ax,right_shoulder_ay,right_shoulder_accel,left_elbow_vx,left_elbow_vy,left_elbow_speed,left_elbow_ax,left_elbow_ay,left_elbow_accel,right_elbow_vx,right_elbow_vy,right_elbow_speed,right_elbow_ax,right_elbow_ay,right_elbow_accel,left_wrist_vx,left_wrist_vy,left_wrist_speed,left_wrist_ax,left_wrist_ay,left_wrist_accel,right_wrist_vx,right_wrist_vy,right_wrist_speed,right_wrist_ax,right_wrist_ay,right_wrist_accel,left_hip_vx,left_hip_vy,left_hip_speed,left_hip_ax,left_hip_ay,left_hip_accel,right_hip_vx,right_hip_vy,right_hip_speed,right_hip_ax,right_hip_ay,right_hip_accel,left_knee_vx,left_knee_vy,left_knee_speed,left_knee_ax,left_knee_ay,left_knee_accel,right_knee_vx,right_knee_vy,right_knee_speed,right_knee_ax,right_knee_ay,right_knee_accel,left_ankle_vx,left_ankle_vy,left_ankle_speed,left_ankle_ax,left_ankle_ay,left_ankle_accel,right_ankle_vx,right_ankle_vy,right_ankle_speed,right_ankle_ax,right_ankle_ay,right_ankle_accel,hip_velocity,hip_acceleration,hip_height_mean_5,hip_height_std_5,shoulder_height_mean_5,shoulder_height_std_5,head_height_mean_5,head_height_std_5,acc_mag_diff,acc_mag_mean_5,acc_mag_std_5,label_binary,label_3class
0,0.0,470.0273,41.33487,0.9699513,473.0838,36.31131,0.95648426,465.73593,38.622658,0.8458557,484.0553,32.936157,0.9079453,465.6677,39.385437,0.46263894,501.02133,51.554123,0.9977793,470.18658,60.294098,0.9866877,515.19855,78.61038,0.9922517,467.57404,90.944954,0.9280616,515.2355,110.51885,0.9814259,466.4997,113.483185,0.90616024,502.00522,111.94763,0.99835616,482.4811,114.58569,0.99611616,503.9055,156.48463,0.99613345,487.0125,155.87924,0.9916299,509.7635,200.76819,0.98327994,491.54514,193.9458,0.97398394,1.14261873,-0.43749453,1.05529281,-0.02309067,152.41223964796086,177.85721866486483,174.90762744041973,179.472043818426,6.604391879331505,113.26666,55.9241105,41.33487,49.56779999999998,167.832033,0.2953417105104022,164.17485047681205,0.9338083229411764,0.0,0.0,0.0,0.0,0.0,0.0,0.0,0.0,0.0,0.0,0.0,0.0,0.0,0.0,0.0,0.0,0.0,0.0,0.0,0.0,0.0,0.0,0.0,0.0,0.0,0.0,0.0,0.0,0.0,0.0,0.0,0.0,0.0,0.0,0.0,0.0,0.0,0.0,0.0,0.0,0.0,0.0,0.0,0.0,0.0,0.0,0.0,0.0,0.0,0.0,0.0,0.0,0.0,0.0,0.0,0.0,0.0,0.0,0.0,0.0,0.0,0.0,0.0,0.0,0.0,0.0,0.0,0.0,0.0,0.0,0.0,0.0,0.0,0.0,0.0,0.0,0.0,0.0,0.0,0.0,0.0,0.0,0.0,0.0,0.0,0.0,0.0,0.0,0.0,0.0,0.0,0.0,0.0,0.0,0.0,0.0,0.0,0.0,0.0,0.0,0.0,0.0,0.0,0.0,113.26666,0.0,55.9241105,0.0,41.33487,0.0,0.0,-0.02309067,0.0,0,0
1,33.333333333333336,472.19193,40.304726,0.9723432,475.40088,35.340904,0.95811564,467.50723,37.570656,0.864775,485.68927,32.83458,0.90532184,466.11108,39.043274,0.50311613,501.7225,52.459854,0.9978409,470.0157,60.665215,0.98819065,515.7634,80.02138,0.9920561,467.855,90.58025,0.93389916,515.4605,111.95442,0.9807225,467.14673,112.387665,0.91048884,502.864,112.29821,0.99853635,482.49,114.86522,0.9966773,505.2965,157.23572,0.9966719,486.31152,156.6072,0.99305505,512.4491,201.03891,0.98605436,491.54446,194.25085,0.97875494,1.04490447,-0.37239849,0.5681779,0.79392606,152.460497847523,177.72903971736295,173.82448718185825,177.31678913810458,6.808701519768127,113.581715,56.5625345,40.304726,49.65232000000003,168.20432999999997,0.2951904966109347,165.49081174086746,0.9386246976470588,2.1646299999999883,-1.030144,2.397252531052152,2.1646299999999883,-1.030144,2.397252531052152,2.317079999999976,-0.970405999999997,2.512080319423701,2.317079999999976,-0.970405999999997,2.512080319423701,1.7712999999999963,-1.0520020000000017,2.0601485135795405,1.7712999999999963,-1.0520020000000017,2.0601485135795405,1.6339700000000337,-0.1015769999999989,1.6371242615724406,1.6339700000000337,-0.1015769999999989,1.6371242615724406,0.4433799999999905,-0.3421630000000064,0.5600547678298936,0.4433799999999905,-0.3421630000000064,0.5600547678298936,0.7011700000000474,0.905731000000003,1.1454204526116476,0.7011700000000474,0.905731000000003,1.1454204526116476,-0.170880000000011,0.3711170000000052,0.4085679895549915,-0.170880000000011,0.3711170000000052,0.4085679895549915,0.5648500000000922,1.4109999999999872,1.519860691807005,0.5648500000000922,1.4109999999999872,1.519860691807005,0.2809599999999932,-0.364703999999989,0.4603775941724229,0.2809599999999932,-0.364703999999989,0.4603775941724229,0.2250000000000227,1.4355699999999985,1.4530953942876583,0.2250000000000227,1.4355699999999985,1.4530953942876583,0.6470299999999725,-1.0955200000000076,1.2723253873518288,0.6470299999999725,-1.0955200000000076,1.2723253873518288,0.8587799999999675,0.3505799999999937,0.9275825703407432,0.8587799999999675,0.3505799999999937,0.9275825703407432,0.0088999999999828,0.279529999999994,0.2796716483664305,0.0088999999999828,0.279529999999994,0.2796716483664305,1.3909999999999627,0.7510899999999765,1.5808280071215404,1.3909999999999627,0.7510899999999765,1.5808280071215404,-0.7009800000000155,0.7279599999999959,1.0105932525007355,-0.7009800000000155,0.7279599999999959,1.0105932525007355,2.685600000000022,0.270719999999983,2.699210380537262,2.685600000000022,0.270719999999983,2.699210380537262,-0.0006799999999884,0.3050500000000227,0.3050507579076207,-0.0006799999999884,0.3050500000000227,0.3050507579076207,0.315055000000001,0.315055000000001,113.4241875,0.2227775269467284,56.2433225,0.4514339396722408,40.819798000000006,0.7284218079986373,0.81701673,0.385417695,0.5777180701258585,0,0
2,66.66666666666667,473.0553,39.70945,0.97273165,476.3989,34.93976,0.958057,468.62292,36.900314,0.8662193,486.54147,33.066017,0.90448606,467.18567,38.52645,0.5056945,502.0542,53.178802,0.9979056,470.2168,60.40249,0.9886314,516.35675,80.963036,0.9924234,467.6595,89.9168,0.93708783,516.7909,112.10118,0.9815887,468.63412,111.587364,0.91439694,503.64597,112.32007,0.99864954,482.93915,114.6778,0.99693334,506.92783,157.22443,0.9969177,486.09833,156.65112,0.99356776,515.2481,201.22299,0.9869386,491.4497,194.90585,0.9800907,1.04490447,-0.37239849,0.5681779,0.79392606,153.5606578753686,172.47280476775077,173.4716932015223,176.34102449355544,7.193182761111691,113.498935,56.790646,39.70945,49.60522999999995,168.156973,0.2949935933076433,167.21641557972595,0.9395482364705884,0.8633699999999749,-0.5952760000000055,1.0486950333991114,-1.3012600000000134,0.4348679999999945,1.3720013720926194,0.9980200000000536,-0.4011440000000021,1.07562095049144,-1.3190599999999222,0.5692619999999948,1.436655319916294,1.1156900000000292,-0.670341999999998,1.3015846392240735,-0.6556099999999674,0.3816600000000036,0.7586097993698473,0.8521999999999821,0.2314369999999996,0.8830673388643526,-0.7817700000000514,0.3330139999999986,0.8497427005253293,1.0745900000000006,-0.5168239999999997,1.192413818720666,0.63121000000001,-0.1746609999999933,0.654929407662391,0.3316999999999552,0.7189479999999975,0.7917771887999595,-0.3694700000000921,-0.1867830000000054,0.413999963754914,0.2010999999999967,-0.2627250000000032,0.3308559136920487,0.3719800000000077,-0.6338420000000085,0.734931834501688,0.5933499999999867,0.9416560000000088,1.1130050515770362,0.0284999999998945,-0.4693439999999782,0.4702085072985957,-0.1955000000000382,-0.6634500000000116,0.6916546482891808,-0.4764600000000314,-0.2987460000000226,0.5623729226376777,1.3303999999999403,0.1467600000000004,1.33847026773098,1.1053999999999178,-1.288809999999998,1.6979223704574402,1.4873900000000049,-0.8003010000000046,1.68902655476491,0.8403600000000324,0.295219000000003,0.8907071278265691,0.7819700000000012,0.0218600000000037,0.7822754888784398,-0.0768099999999663,-0.3287199999999899,0.3375746058280868,0.4491499999999746,-0.1874199999999888,0.4866846811848232,0.4402499999999918,-0.4669499999999829,0.6417650387797522,1.6313299999999913,-0.011289999999974,1.6313690670721848,0.2403300000000285,-0.7623799999999505,0.799363354989418,-0.2131899999999973,0.0439199999999857,0.2176670450481597,0.4877900000000181,-0.6840400000000102,0.8401486807107607,2.798999999999978,0.1840800000000229,2.805046603249202,0.1133999999999559,-0.08663999999996,0.1427096689085329,-0.0947600000000079,0.6549999999999727,0.6618190520073941,-0.0940800000000194,0.34994999999995,0.3623755633317024,-0.0827799999999996,-0.3978350000000006,113.44910333333333,0.1633318998491518,56.42576366666666,0.4491666047560562,40.449682,0.8223482994157697,0.0,0.52158715,0.4717048289979277,0,0
3,100.0,473.93234,39.375336,0.9736857,477.3103,34.70677,0.9589267,469.70337,36.55313,0.86792225,487.48386,33.106087,0.9065292,468.46585,38.32823,0.50650924,503.1226,53.0506,0.9980447,470.9358,60.61319,0.989493,517.7774,79.719795,0.9930536,467.6217,90.59314,0.94233966,519.665,109.48092,0.9830036,469.5537,111.28497,0.92053276,505.15768,111.95747,0.9987852,484.0676,114.422966,0.9972422,508.7511,157.83624,0.99713194,486.24393,157.07597,0.9940101,517.41034,202.17688,0.9873223,491.1037,195.42676,0.98067766,0.95900184,-0.10710141,0.86639147,0.39696303,154.84020261027095,168.35766130591082,173.4283442770308,175.69896409794976,7.663559156777612,113.190218,56.831895,39.375336,52.04329999999999,169.070793,0.3078195752721193,166.77765534589977,0.9408946947058824,0.8770400000000222,-0.3341139999999996,0.9385261459309692,0.0136700000000473,0.2611620000000059,0.2615195196233053,0.9113999999999578,-0.2329900000000009,0.9407094663603228,-0.0866200000000958,0.1681540000000012,0.1891528274068802,1.0804499999999848,-0.3471839999999986,1.1348607546108755,-0.0352400000000443,0.3231579999999994,0.3250737617280157,0.942389999999989,0.04007,0.9432414945282992,0.0901900000000068,-0.1913669999999996,0.2115551105244236,1.280179999999973,-0.1982199999999991,1.2954350623631934,0.2055899999999724,0.3186040000000005,0.3791777378960809,1.068399999999997,-0.1282019999999946,1.076064269829638,0.7367000000000417,-0.8471499999999921,1.1226709279660037,0.7189999999999941,0.2107000000000027,0.7492366048185264,0.5178999999999974,0.473425000000006,0.7016777327413226,1.4206499999999096,-1.2432409999999976,1.887828012977013,0.8272999999999229,-2.1848970000000065,2.3362791337100326,-0.0378000000000042,0.6763400000000104,0.6773954794652931,0.1577000000000339,1.339790000000022,1.3490391151112224,2.8740999999999985,-2.620260000000002,3.8892432782740656,1.543700000000058,-2.7670200000000023,3.168502701655814,0.9195799999999964,-0.3023939999999925,0.9680235057249326,-0.5678100000000086,0.4979070000000121,0.7551950587424562,1.5117100000000503,-0.3626000000000005,1.5545886543070333,0.7297400000000493,-0.3844600000000042,0.8248211680116334,1.1284500000000437,-0.2548340000000024,1.1568663579066076,0.6793000000000688,-0.0674140000000136,0.6826369001131534,1.8232700000000364,0.6118099999999913,1.9231809506648407,0.191940000000045,0.6230999999999653,0.6519927711255502,0.1456000000000017,0.4248500000000206,0.4491067606928424,0.358789999999999,0.3809300000000348,0.5232952598677212,2.162239999999997,0.9538900000000012,2.3633002241992,-0.6367599999999811,0.7698099999999783,0.9990349011420684,-0.3460000000000036,0.5209100000000149,0.62535048420867,-0.2512399999999957,-0.1340899999999578,0.2847835418348232,-0.3087170000000014,-0.2259370000000018,113.384382,0.1858501465141573,56.5272965,0.4192088869098173,40.1810955,0.8598794386212953,-0.39696303,0.49043112,0.3901535039204695,0,0
4,133.33333333333334,476.11823,38.718323,0.9748515,479.52017,34.06682,0.9596825,471.7247,35.880302,0.8747362,489.2362,32.82374,0.9051867,469.84857,37.940125,0.52178186,504.51257,53.3693,0.9981128,471.5553,60.473206,0.990054,519.2408,80.46747,0.99329925,467.7074,90.01761,0.9450202,521.0726,109.86555,0.9835555,470.1057,110.399826,0.92369425,506.28473,112.61493,0.99884343,484.58963,114.98096,0.9973832,509.9035,158.66502,0.9972127,486.21756,157.91998,0.99417686,519.5059,203.16238,0.9874473,491.2319,196.40964,0.98082906,0.92427631,-0.07172847,0.81259511,0.43454678,155.0408096277531,165.86857088414322,172.31573560990898,174.748640102993,7.416107714236199,113.797945,56.921253,38.718323,53.36519999999996,170.33864,0.3132888679087205,167.83605860538492,0.9426980770588236,2.185889999999972,-0.6570129999999992,2.2824945069526184,1.30884999999995,-0.3228989999999996,1.3480920171490032,2.2098700000000235,-0.6399499999999989,2.300665429696396,1.2984700000000655,-0.406959999999998,1.360750080837833,2.0213299999999776,-0.6728280000000026,2.130369096303247,0.9408799999999928,-0.325644000000004,0.9956400901610928,1.7523400000000038,-0.2823470000000014,1.774940929723864,0.8099500000000148,-0.3224170000000015,0.8717635713821867,1.3827200000000062,-0.3881049999999959,1.4361546189129546,0.1025400000000331,-0.1898849999999967,0.2158026061589747,1.3899700000000053,0.3186999999999997,1.42603867089922,0.3215700000000083,0.4469019999999943,0.5505712147433793,0.6195000000000164,-0.1399840000000054,0.6351187056417263,-0.0994999999999777,-0.3506840000000082,0.3645264295713019,1.4634000000000924,0.747675000000001,1.643337295148282,0.0427500000001828,1.9909159999999984,1.9913749223980928,0.0857000000000312,-0.5755300000000005,0.5818756490007173,0.1235000000000354,-1.251870000000011,1.2579470366037022,1.4076000000000022,0.3846300000000013,1.4592045767814763,-1.4664999999999964,3.004890000000003,3.343648630179315,0.5520000000000209,-0.8851439999999968,1.0431605344988937,-0.3675799999999753,-0.5827500000000043,0.6889939178976742,1.127049999999997,0.6574600000000004,1.3047970547560237,-0.3846600000000535,1.0200600000000009,1.0901769210545795,0.5220299999999725,0.5579939999999937,0.7641155834924218,-0.606420000000071,0.8128279999999961,1.0141176332083377,1.1524,0.8287799999999947,1.419472454258973,-0.6708700000000363,0.2169700000000034,0.7050833552141549,-0.0263699999999857,0.8440099999999973,0.8444218477751476,-0.1719699999999875,0.4191599999999766,0.4530659847086031,2.0955599999999777,0.9855000000000018,2.31572493262907,-0.0666800000000193,0.0316100000000005,0.07379305184096,0.1281999999999925,0.9828799999999944,0.9912054955456951,0.4741999999999962,0.4619699999999795,0.6620286405435777,0.607726999999997,0.9164439999999984,113.4670946,0.2451776472545984,56.6060878,0.4035373748819016,39.888541,0.9912038963170016,0.03758375,0.4792542519999999,0.3388058874304163,0,0
5,166.66666666666666,476.92062,39.418297,0.97488993,480.4,34.70665,0.96112406,472.71265,36.428497,0.86754584,490.6435,32.864456,0.91057754,471.32516,37.793625,0.49481496,506.16724,53.235428,0.99824333,472.7535,59.65142,0.98968166,520.29205,81.24234,0.9940461,467.81174,89.303024,0.94341505,521.57776,110.20887,0.9852539,470.15204,110.23567,0.92335314,507.55313,112.88228,0.9989292,485.46725,114.93716,0.9974383,511.95056,159.15016,0.99737895,486.93475,158.08241,0.9942213,521.87585,203.9176,0.98784035,491.28516,197.03873,0.9808055,0.93360376,-0.088678,0.80694527,0.46107649,155.77814844762807,164.1587451552605,172.92852731244733,175.5760003161505,6.993963455293377,113.90972,56.443424,39.418297,54.06411000000003,171.053144,0.3160661559306613,169.13055860501916,0.9411505358823532,0.8023900000000026,0.6999740000000045,1.0647973106540092,-1.3834999999999695,1.3569870000000035,1.9379076263250847,0.8798299999999699,0.6398300000000035,1.0878801670220628,-1.3300400000000536,1.2797800000000024,1.8457635953718852,0.987950000000012,0.5481949999999998,1.1298508576467177,-1.0333799999999655,1.2210230000000024,1.599616013588553,1.4073000000000206,0.0407159999999962,1.407888874398849,-0.3450399999999831,0.3230629999999976,0.4726756854006633,1.4765899999999874,-0.1465000000000031,1.483839707684076,0.0938699999999812,0.2416049999999927,0.259199832031182,1.65467000000001,-0.1338720000000037,1.6600766612671942,0.2647000000000048,-0.4525720000000035,0.5242971535150708,1.1981999999999855,-0.8217859999999959,1.452933401707029,0.5786999999999694,-0.6818019999999905,0.8942861159628677,1.0512499999999818,0.7748699999999928,1.305967105022156,-0.4121500000001106,0.0271949999999918,0.41304623291478,0.1043399999999792,-0.7145860000000113,0.722163407405839,0.018639999999948,-0.1390560000000107,0.1402997531573061,0.5051600000000462,0.3433200000000056,0.6107824882886301,-0.902439999999956,-0.0413099999999957,0.9033850063510686,0.0463399999999865,-0.1641560000000055,0.1705713573141767,-0.5056600000000344,0.7209879999999913,0.8806337103154876,1.2683999999999855,0.2673499999999933,1.2962694868351872,0.1413499999999885,-0.390110000000007,0.4149284692570543,0.877619999999979,-0.0437999999999902,0.8787122989920889,0.3555900000000065,-0.601793999999984,0.6989994753474321,2.047059999999988,0.4851400000000012,2.103762216411339,0.8946599999999876,-0.3436399999999935,0.9583866470271658,0.7171900000000164,0.1624300000000005,0.7353536570929825,0.7435600000000022,-0.6815799999999967,1.008678724867338,2.369950000000017,0.75521999999998,2.4873721576997783,0.2743900000000394,-0.2302800000000218,0.3582160667809746,0.0532600000000229,0.6290899999999908,0.631340522776727,-0.0749399999999695,-0.3537900000000036,0.3616398314621856,0.1117749999999944,-0.4959520000000026,113.5957066,0.2799492355683442,56.709950500000005,0.1992478504055968,39.505226400000005,0.5754459328914384,0.0265297099999999,0.5760876840000001,0.20015878699029,0,0
6,200.0,479.73392,38.566666,0.9762331,483.2026,33.688133,0.9611046,475.09012,35.562836,0.88068837,493.12967,31.888573,0.90445375,472.84415,37.192566,0.5280973,508.16248,52.896088,0.9981098,473.91797,59.107567,0.99056095,521.1742,81.530045,0.99341726,468.4762,88.48683,0.94837284,522.48596,111.84008,0.98409677,470.18835,110.652084,0.92811584,508.82535,113.112404,0.99885297,486.0664,115.02582,0.99745256,512.938,159.9453,0.99714655,486.89264,158.17412,0.9941128,523.8131,205.40231,0.9868268,491.4041,197.21054,0.980082,0.93863986,-0.14738726,0.80178671,0.46525246,158.04031082653324,165.08929634423257,171.5640671688936,174.50455647054682,6.295097746673861,114.069112,56.001827500000005,38.566666,55.33689999999996,173.513737,0.3189194160522319,169.7191181770322,0.94398378,2.8133000000000266,-0.8516310000000047,2.939376166835602,2.010910000000024,-1.5516050000000092,2.539928562799577,2.802600000000041,-1.0185170000000028,2.9819362232095497,1.922770000000071,-1.6583470000000062,2.5391256852131785,2.3774700000000166,-0.8656610000000029,2.530164533745006,1.3895200000000043,-1.4138560000000029,1.9823608700577249,2.4861699999999587,-0.975882999999996,2.670840485425662,1.078869999999938,-1.0165989999999925,1.4823744478709997,1.5189900000000307,-0.6010589999999993,1.6335857925377206,0.0424000000000432,-0.4545589999999961,0.4565321943532571,1.995240000000024,-0.33934,2.023890879766025,0.3405700000000138,-0.2054679999999962,0.3977499515072351,1.1644700000000512,-0.5438529999999986,1.285210670088417,-0.0337299999999345,0.2779329999999973,0.2799722582489095,0.8821500000000242,0.2877050000000025,0.927880805666894,-0.1690999999999576,-0.4871649999999903,0.5156787248132079,0.6644600000000196,-0.8161939999999959,1.0524636512659329,0.5601200000000404,-0.1016079999999846,0.5692614514123032,0.9081999999999651,1.6312099999999958,1.8669957964869448,0.403039999999919,1.2878899999999902,1.3494820835045975,0.0363100000000145,0.4164140000000031,0.4179940615559074,-0.010029999999972,0.5805700000000087,0.5806566333040634,1.2722200000000043,0.2301240000000035,1.2928653386087867,0.0038200000000188,-0.0372259999999897,0.0374214841501427,0.5991500000000087,0.0886599999999901,0.605674267325275,-0.2784699999999702,0.1324599999999804,0.3083685984337223,0.9874399999999924,0.7951400000000035,1.2677875899376798,-1.0596199999999951,0.3100000000000023,1.1040355720718384,-0.0421100000000365,0.0917099999999777,0.1009156885721887,-0.7593000000000529,-0.0707200000000227,0.7625862629237977,1.937249999999949,1.4847100000000069,2.4407583548151224,-0.432700000000068,0.7294900000000268,0.8481656383632256,0.1189400000000091,0.171810000000022,0.2089626753753161,0.0656799999999862,-0.4572799999999688,0.4619727922724125,0.1593919999999968,0.0476170000000024,113.693186,0.3499614402823525,56.59780909999999,0.3793504519794973,39.1576144,0.4904277694149138,0.0041759699999999,0.5103529640000001,0.1608413673399338,0,0
7,233.3333333333333,480.33105,37.73256,0.97531533,484.23184,32.701782,0.9585015,476.41336,34.275055,0.8755268,494.72064,31.892776,0.8969502,475.07016,35.883896,0.5068288,509.75516,53.98242,0.99802256,475.73108,59.366226,0.988201,522.01843,82.63865,0.9930206,471.27487,90.001495,0.93944615,523.2608,113.34391,0.9815025,472.3605,112.484375,0.91428614,510.64536,113.19648,0.99848974,487.14453,114.733864,0.9965804,514.935,161.69048,0.99585223,486.41678,158.834,0.99123514,527.54926,206.72968,0.97941303,492.45078,197.72424,0.9684013,0.93408651,-0.16998664,0.79294348,0.46353294,159.1487619532687,168.95930185561178,169.4089423406854,170.23519483064933,6.1288799528190525,113.965172,56.674323,37.73256,56.27438999999998,174.836904,0.321867914557284,171.00834359212348,0.9386807894117648,0.5971299999999928,-0.8341059999999985,1.0258153128784873,-2.2161700000000337,0.0175250000000062,2.216239290899146,1.0292399999999589,-0.9863509999999992,1.425560687168706,-1.773360000000082,0.0321660000000036,1.7736516966857645,1.3232399999999984,-1.2877809999999954,1.8464409011828635,-1.0542300000000182,-0.4221199999999925,1.1355994836649197,1.590970000000027,0.0042030000000004,1.590975551700618,-0.8951999999999316,0.9800859999999963,1.3273852520635714,2.226009999999974,-1.3086699999999991,2.5821962917252983,0.7070199999999431,-0.707611,1.000295260271146,1.592679999999973,1.0863319999999987,1.9278866140475976,-0.4025600000000509,1.4256719999999987,1.4814166210705335,1.813109999999995,0.2586589999999944,1.8314672670787695,0.6486399999999435,0.802511999999993,1.031871774855731,0.844229999999925,1.1086049999999972,1.3934594859287683,-0.0379200000000992,0.8208999999999946,0.8217753564083062,2.7986700000000155,1.514665000000008,3.182257662591939,2.134209999999996,2.330859000000004,3.1603411211419887,0.7748400000000402,1.5038299999999936,1.6917096956925093,-0.1333599999999251,-0.1273800000000022,0.1844195054759138,2.172149999999988,1.832290999999998,2.841746985778456,2.1358399999999733,1.4158769999999947,2.562522231070176,1.820009999999968,0.084075999999996,1.8219509252106327,0.5477899999999636,-0.1460480000000075,0.5669249530616572,1.0781299999999874,-0.291955999999999,1.1169613255775566,0.4789799999999786,-0.3806159999999892,0.6117927589110314,1.9969999999999573,1.7451800000000048,2.652105245347524,1.009559999999965,0.9500400000000012,1.386285466705877,-0.4758599999999546,0.6598800000000153,0.8135627535721981,-0.4337499999999181,0.5681700000000376,0.7148120112309052,3.736160000000041,1.327370000000002,3.9649467414456288,1.7989100000000915,-0.1573400000000049,1.805777689445833,1.0466799999999807,0.5137,1.1659445580300805,0.9277399999999716,0.341889999999978,0.9887316520168312,-0.1039399999999943,-0.2633319999999912,113.7864334,0.3473685304900245,56.5745445,0.3679637076173401,38.76223639999999,0.6904194897243818,-0.0017195199999999,0.44427434,0.0292671868941419,0,0
8,266.6666666666667,481.8427,37.816193,0.9756742,485.82492,32.853607,0.96097773,478.03003,34.305466,0.86868393,496.4635,31.91018,0.906947,476.82568,35.704582,0.4837024,511.16983,53.754456,0.9983431,477.10437,59.07563,0.98821056,523.011,82.06743,0.9943469,471.68335,89.89261,0.9374307,525.3066,113.14619,0.98429954,472.45566,113.19148,0.91245735,511.40216,113.311745,0.99879754,487.92688,114.74107,0.9970053,515.7469,162.27855,0.9967213,486.98257,158.83438,0.9923718,528.6854,207.58832,0.98336846,493.0681,197.48738,0.97285074,0.93612515,-0.15156324,0.73890148,0.55442176,161.52856073845018,168.12461997981018,169.13343891179733,169.825924454349,5.480377377881296,114.0264075,56.415043,37.816193,57.00204999999994,175.67814,0.3244686542988859,171.1218925036388,0.9383640323529412,1.5116499999999746,0.0836329999999989,1.5139617568449089,0.9145199999999818,0.9177389999999974,1.295604763236444,1.5930800000000431,0.1518249999999952,1.600298321259238,0.5638400000000843,1.1381759999999943,1.2701811495121798,1.6166699999999992,0.0304110000000008,1.6169560036751147,0.2934300000000007,1.3181919999999965,1.3504559651332548,1.7428600000000074,0.017403999999999,1.7429468950074256,0.1518899999999803,0.0132009999999986,0.1524625806583175,1.75551999999999,-0.1793139999999979,1.7646540683646652,-0.4704899999999838,1.1293560000000014,1.2234401558049286,1.414670000000001,-0.227964,1.43291967471872,-0.178009999999972,-1.3142959999999988,1.3262961719450097,1.3732899999999972,-0.2905960000000007,1.403699205426858,-0.4398199999999974,-0.5492549999999952,0.7036495487279107,0.9925700000000006,-0.5712199999999967,1.145201944331216,0.1483400000000756,-1.679824999999994,1.6863619973852002,0.4084799999999973,-0.1088850000000007,0.4227432478762942,-2.3901900000000182,-1.6235500000000087,2.8894502658118406,2.0457999999999856,-0.1977199999999896,2.0553322939125773,1.2709599999999457,-1.7015499999999832,2.1238200780903744,0.0951600000000212,0.7071049999999985,0.7134794367219015,-2.0769899999999666,-1.1251859999999994,2.3621877560210702,0.7567999999999984,0.1152650000000079,0.7655274392371572,-1.0632099999999696,0.0311890000000119,1.0636673623934016,0.7823500000000081,0.0072059999999964,0.7823831854890624,-0.2957799999999793,0.2991619999999955,0.4206943197191817,0.8119000000000369,0.5880699999999877,1.0025008403487976,-1.1850999999999203,-1.1571100000000172,1.6563108289508497,0.5657899999999927,0.0003800000000069,0.5657901276091619,1.0416499999999471,-0.6595000000000084,1.2328726505604304,1.1361399999999549,0.8586400000000083,1.4241055962251927,-2.600020000000086,-0.4687299999999936,2.641933347626401,0.6173200000000065,-0.2368600000000071,0.6612009089528019,-0.4293599999999742,-0.7505600000000072,0.8646908830327683,0.0612355000000093,0.1651755000000037,113.9536713,0.1059855808480672,56.4911741,0.3413383552888532,38.4504078,0.696354418281139,0.0908888199999999,0.475766086,0.0457212113326086,0,0
9,300.0,485.18073,37.713814,0.97721076,489.27222,32.734985,0.9613584,481.00116,34.085007,0.8836959,499.53882,31.763977,0.89991,478.63037,35.344727,0.51814985,513.9994,53.97474,0.9982224,478.00116,58.80165,0.9890027,526.65234,82.37015,0.9936872,472.5104,88.77535,0.94119275,528.5572,114.39963,0.98295283,471.85266,113.27677,0.9160662,512.98474,114.29635,0.99869436,488.4677,115.45579,0.9969477,517.3304,162.80606,0.9963915,487.39197,158.90224,0.99209243,529.75433,207.77383,0.98209536,493.79492,197.32632,0.9718338,0.91104257,-0.15205453,0.72784744,0.52641818,159.38582988669137,171.15704749414948,169.67439151002606,169.12087205312403,4.6195920728478415,114.87607,56.388195,37.713814,57.90166999999997,176.009853,0.3289683428747118,172.36291129948413,0.9411473023529412,3.3380300000000034,-0.1023789999999991,3.3395996377621406,1.8263800000000288,-0.186011999999998,1.8358279790176704,3.4472999999999843,-0.1186219999999949,3.449340294735196,1.8542199999999407,-0.2704469999999901,1.8738392108739683,2.9711300000000165,-0.2204590000000053,2.9792978447246763,1.354460000000017,-0.2508700000000061,1.3774968778549193,3.0753199999999765,-0.1462029999999998,3.078793338242899,1.3324599999999691,-0.1636069999999989,1.3424667228832592,1.8046900000000503,-0.3598550000000031,1.8402178178479809,0.0491700000000605,-0.1805410000000051,0.1871169195476663,2.8295700000000465,0.2202839999999994,2.838131678685164,1.4149000000000456,0.4482479999999995,1.4842062792968262,0.89679000000001,-0.2739799999999945,0.9377085605346764,-0.4764999999999872,0.0166160000000061,0.4767896197024303,3.641340000000014,0.3027199999999936,3.653901530419245,2.648770000000013,0.8739399999999904,2.789220973049653,0.8270499999999856,-1.1172600000000017,1.390065325839034,0.4185699999999883,-1.008375000000001,1.0917971357010383,3.250599999999963,1.2534399999999977,3.4838932523255868,1.2047999999999774,1.4511599999999871,1.8861093249331835,-0.6030000000000086,0.0852900000000005,0.6090019573860256,-0.6981600000000299,-0.621814999999998,0.9349231411324886,1.5825800000000072,0.984605000000002,1.8638686816471344,0.8257800000000088,0.869339999999994,1.199026540156641,0.5408199999999965,0.7147199999999998,0.8962761576657029,-0.2415300000000115,0.7075140000000033,0.7476047091184018,1.583500000000072,0.5275100000000066,1.669053339501238,0.7716000000000349,-0.060559999999981,0.7739729152884174,0.4094000000000051,0.067859999999996,0.4149859510875081,-0.1563899999999876,0.0674799999999891,0.1703272805512806,1.068930000000023,0.1855099999999936,1.0849079707514582,-0.0672099999999318,-0.6731300000000147,0.676477036565182,0.7268199999999752,-0.161059999999992,0.7444512314449895,0.1094999999999686,0.0758000000000151,0.133176161530491,0.8496624999999938,0.7884269999999844,114.1692963,0.3996966823466983,56.3845625,0.2423087698082764,38.249506,0.743071683794676,-0.02800358,0.494140366,0.0434173043692128,0,0
10,333.3333333333333,487.73132,37.149307,0.97694176,491.8827,32.350403,0.96041614,483.77167,33.440468,0.88309604,501.9161,31.59491,0.8985876,481.47495,34.594498,0.5218674,515.82074,53.9337,0.9982028,480.1297,58.34137,0.9892965,527.90717,82.807846,0.9936579,474.25598,89.09538,0.9429527,528.68506,114.83159,0.9828194,471.91998,114.65782,0.9171818,513.6433,114.6423,0.9987043,489.3191,115.49061,0.9970112,518.27625,163.31104,0.9963588,487.82816,159.00233,0.9921191,530.1938,208.48059,0.9818091,493.4323,197.97943,0.97159183,0.91508953,-0.17146052,0.75781618,0.48343023,158.6778000648395,174.40869416813243,170.6576762613944,169.85558133188297,3.4048190122666804,115.066455,56.137535,37.149307,58.27382,176.88568,0.3294433990957131,172.95989491898868,0.9413302570588236,2.55059,-0.564506999999999,2.612312672929678,-0.7874400000000037,-0.4621279999999998,0.913030142976674,2.6104799999999955,-0.3845820000000017,2.638656693305133,-0.8368199999999888,-0.2659600000000068,0.8780674427400124,2.7705099999999447,-0.6445389999999946,2.8444957694854613,-0.2006200000000717,-0.4240799999999893,0.4691398840431495,2.3772799999999847,-0.1690670000000018,2.3832842568373853,-0.6980399999999918,-0.0228640000000019,0.698414349864025,2.844579999999951,-0.7502289999999974,2.9418495761749472,1.0398899999999005,-0.3903739999999942,1.1107488788991813,1.821339999999964,-0.0410399999999953,1.8218023156204044,-1.0082300000000828,-0.2613239999999948,1.041545949959081,2.1285399999999868,-0.4602800000000044,2.1777374061167123,1.2317499999999768,-0.1863000000000099,1.2457591069303673,1.25482999999997,0.4376960000000025,1.3289755894356852,-2.386510000000044,0.1349760000000088,2.3903239321640517,1.745580000000018,0.3200300000000027,1.7746742623084568,0.9185300000000324,1.4372900000000044,1.705725624184638,0.1278600000000551,0.4319600000000037,0.4504859833557724,-3.122739999999908,-0.821479999999994,3.2289835084743643,0.0673199999999951,1.381050000000002,1.382689800678375,0.6703200000000038,1.2957600000000014,1.4588772669419483,0.6585599999999658,0.345950000000002,0.7438969526083276,-0.9240200000000414,-0.638655,1.1232511604378943,0.8514000000000124,0.0348200000000105,0.8521117253036844,0.3105800000000158,-0.6798999999999893,0.747478391928486,0.9458499999999505,0.5049799999999891,1.0722112771743706,-0.6376500000001215,-0.0225300000000174,0.6380479005530507,0.4361900000000105,0.1000899999999944,0.4475262273878572,0.0267900000000054,0.0322299999999984,0.0419103447850311,0.4394700000000284,0.7067600000000027,0.8322521123433866,-0.6294599999999946,0.5212500000000091,0.8172646169387261,-0.3626199999999926,0.6531099999999981,0.7470247228171181,-1.0894399999999678,0.8141699999999901,1.3600559924135158,0.1903850000000062,-0.6592774999999875,114.4006433,0.5265302595613253,56.3233847,0.2615809880389823,37.795708,0.5057974947866314,-0.0429879499999999,0.498611114,0.0401926562115303,0,0
11,366.6666666666666,489.93552,36.26181,0.9764904,494.06146,31.517792,0.95877606,486.13702,32.586655,0.8846212,504.27814,31.134003,0.8962075,484.4914,34.081406,0.53372496,518.2131,54.394196,0.9980665,482.8328,57.879044,0.99010885,529.52686,84.50356,0.9929376,474.939,88.748184,0.9475754,530.2154,115.932816,0.9811679,471.46857,115.01477,0.9207771,514.55505,115.10498,0.99869674,490.55664,115.41124,0.99720854,519.0464,163.36317,0.996438,488.8951,158.16116,0.9928451,530.4113,209.20537,0.98272705,493.33173,197.83746,0.974341,1.57208262,-0.04716392,1.42670871,0.65857542,160.66102542840505,173.18233644011235,171.39348135619454,171.39388643845857,1.96937013953288,115.25811,56.13662,36.26181,58.94272999999998,178.07136699999998,0.3310062176868321,174.37469109236514,0.9425123470588236,2.2042000000000144,-0.8874970000000033,2.376162571249928,-0.3463899999999853,-0.3229900000000043,0.4736122593430121,2.178760000000011,-0.832611,2.332431395544368,-0.4317199999999843,-0.4480289999999982,0.6221833678594959,2.365350000000035,-0.8538130000000024,2.514732045659968,-0.4051599999999098,-0.2092740000000077,0.4560156057372709,2.362040000000036,-0.4609069999999988,2.4065885033069465,-0.0152399999999488,-0.291839999999997,0.2922376484986092,3.0164500000000203,-0.5130920000000003,3.05977678972897,0.1718700000000694,0.237136999999997,0.2928707115247656,2.3923600000000533,0.4604959999999991,2.436276448931084,0.5710200000000896,0.5015359999999944,0.7600014471671068,2.7031000000000063,-0.4623259999999973,2.742352081749539,0.5745600000000195,-0.0020459999999928,0.5745636428769422,1.619690000000105,1.6957139999999953,2.344960909246959,0.3648600000001352,1.2580179999999928,1.309859575650795,0.6830199999999991,-0.3471960000000109,0.7661993101119358,-1.062560000000019,-0.6672260000000136,1.254680950949706,1.5303400000000238,1.101225999999997,1.8853750869988888,1.4024799999999686,0.6692659999999933,1.5539842757106337,-0.4514100000000098,0.3569499999999976,0.5754861341509517,-0.518730000000005,-1.0241000000000042,1.1479815429265463,0.9117500000000972,0.4626799999999917,1.0224288947893492,0.2531900000001315,0.1167299999999897,0.2788029214338763,1.237540000000024,-0.0793699999999972,1.2400825974506935,0.3861400000000117,-0.1141900000000077,0.4026704057911517,0.7701499999999442,0.0521300000000053,0.7719122744197779,-0.1757000000000061,-0.4528499999999837,0.4857402726766512,1.0669399999999882,-0.8411700000000053,1.3586493044564458,0.6307499999999777,-0.9412599999999998,1.1330560224896082,0.2174999999999727,0.7247799999999813,0.7567115027538309,-0.2219700000000557,0.0180199999999786,0.2227002498876549,-0.1005700000000047,-0.1419700000000148,0.1739821996642333,0.2620499999999879,-0.7950800000000129,0.8371513655845125,0.1916549999999972,0.001269999999991,114.6384429,0.6023971586219705,56.3503432,0.2244697473473898,37.3347368,0.6556140296360492,0.17514519,0.5372757060000001,0.0765878979965025,0,0
12,400.0,492.71753,35.95173,0.97778773,496.6804,31.144272,0.95605594,488.64636,32.226784,0.90018666,506.33395,30.224548,0.88077956,486.28284,33.283844,0.58821505,520.163,53.25209,0.99788433,484.34158,56.90818,0.99224937,530.97,83.69791,0.9918194,476.2777,88.4124,0.96026355,532.0624,115.73386,0.9790323,471.52206,114.73717,0.9353049,516.3928,115.25198,0.9987619,492.2017,115.44783,0.9977465,520.01324,163.72353,0.9966588,489.47003,157.78891,0.9942697,529.83813,210.41078,0.9841808,492.7516,198.03833,0.97876465,1.33673888,0.1481242,1.25180916,0.44486389,162.4102365793457,175.88290255693877,172.3876560371546,171.6475658753524,1.943334656996809,115.349905,55.080135,35.95173,60.540340000000015,180.186232,0.3359876001181512,174.17232340682747,0.9476447729411764,2.782010000000014,-0.3100799999999992,2.7992372615589547,0.5778099999999995,0.5774170000000041,0.8168688927783969,2.618940000000009,-0.3735199999999992,2.645442101804545,0.440179999999998,0.4590910000000008,0.63602120930123,2.509340000000009,-0.3598709999999983,2.5350136828508525,0.1439899999999738,0.4939420000000041,0.5145015252300001,2.055810000000008,-0.9094550000000012,2.247990914822619,-0.3062300000000277,-0.4485480000000024,0.5431133594416724,1.7914400000000228,-0.7975619999999992,1.9609595654791252,-1.2250099999999975,-0.2844699999999989,1.2576059323174302,1.949899999999957,-1.1421059999999983,2.259760191975208,-0.4424600000000964,-1.6026019999999974,1.6625594792379843,1.5087800000000016,-0.9708639999999988,1.794155510232043,-1.1943200000000047,-0.5085380000000015,1.2980797971788995,1.4431399999999712,-0.80565,1.6527930850835253,-0.1765500000001338,-2.5013639999999957,2.5075868405692403,1.3386999999999605,-0.3357839999999896,1.3801697666069517,0.6556799999999612,0.0114120000000212,0.6557793044492557,1.84699999999998,-0.1989559999999954,1.8576847121984728,0.3166599999999562,-1.3001819999999924,1.3381878749727008,0.0534900000000106,-0.2775999999999925,0.2827064557097998,0.5049000000000206,-0.6345499999999902,0.8109116551758325,1.8377499999999145,0.1470000000000055,1.843619825913056,0.9259999999998172,-0.3156799999999862,0.9783301397788235,1.6450600000000009,0.0365899999999896,1.6454668734739093,0.4075199999999768,0.1159599999999869,0.4236971465563322,0.9668400000000474,0.3603600000000142,1.0318134110390804,0.1966900000001032,0.3082300000000089,0.3656401085767891,0.5749299999999948,-0.3722500000000082,0.6849193875194366,-0.4920099999999934,0.4689199999999971,0.6796762512402437,-0.5731700000000046,1.2054100000000003,1.3347423410531365,-0.7906699999999773,0.4806300000000192,0.9252914383047012,-0.5801299999999969,0.2008700000000089,0.6139214720141332,-0.4795599999999922,0.3428400000000238,0.5895057753746005,0.0917950000000047,-0.0998599999999925,114.9153895,0.5293668070334434,56.0315056,0.5481162181889876,36.9785708,0.8425396780019377,-0.21371153,0.533541896,0.0813865252845907,0,0
13,433.33333333333337,495.27063,35.981735,0.9799239,499.34705,30.9805,0.9560208,490.78604,32.20809,0.9161802,509.2443,29.456108,0.869405,487.75586,32.91617,0.63488525,523.04114,52.36635,0.99767226,485.8847,56.504723,0.9938391,533.1538,83.78392,0.99050397,477.77957,89.11409,0.9694895,534.532,117.145584,0.9770017,471.50293,116.16253,0.94718623,518.6279,115.578,0.99872714,493.64798,115.84857,0.99802375,521.40247,163.8383,0.9964977,489.89877,157.92574,0.99485517,529.6743,210.97906,0.9835296,492.50754,198.90921,0.97996867,0.99086867,0.11054045,0.91724007,0.35815105,164.52331089858163,179.10622126859334,173.3379930039901,171.2660068714307,1.565817637514484,115.713285,54.4355365,35.981735,63.02907000000005,181.522952,0.3472236924219718,173.6447598893222,0.9519829376470588,2.553099999999972,0.0300050000000027,2.553276308985155,-0.2289100000000417,0.3400850000000019,0.4099482837200571,2.666650000000004,-0.1637720000000015,2.6716742860019487,0.047709999999995,0.2097479999999976,0.2151057126252079,2.1396799999999985,-0.0186940000000035,2.1397616615025123,-0.3696600000000103,0.3411769999999947,0.5030410131679166,2.910349999999994,-0.7684399999999982,3.0100892272655244,0.8545399999999859,0.141015000000003,0.8660969009441015,1.4730199999999627,-0.3676740000000009,1.5182134535946816,-0.3184200000000601,0.4298879999999982,0.5349719515488983,2.8781400000000303,-0.8857400000000055,3.011349399721026,0.9282400000000736,0.2563659999999927,0.9629917048220784,1.5431199999999876,-0.403457000000003,1.5949911865740714,0.034339999999986,0.5674069999999958,0.568445194586949,2.1838000000000197,0.0860100000000017,2.18549311600382,0.7406600000000481,0.8916600000000017,1.159152617734211,1.5018699999999967,0.7016899999999993,1.6577039400930398,0.1631700000000364,1.037473999999989,1.0502269990701956,2.469600000000014,1.4117239999999924,2.8446245467857527,0.622600000000034,1.610679999999988,1.7268239118103512,-0.0191300000000183,1.4253599999999975,1.4254883677182335,-0.072620000000029,1.7029599999999905,1.7045076784807898,2.2350999999999885,0.3260199999999997,2.2587521002535778,0.397350000000074,0.1790199999999941,0.435815537699216,1.4462800000000016,0.400739999999999,1.5007725963649534,-0.1987799999999993,0.3641500000000093,0.4148719210792729,1.3892299999999975,0.1147699999999929,1.3939627490718651,0.4223899999999503,-0.2455900000000213,0.4885977488691168,0.4287400000000048,0.1368300000000033,0.4500449272017239,-0.14618999999999,0.5090800000000115,0.5296545690353373,-0.1638299999999617,0.5682800000000157,0.5914240672309551,0.4093400000000429,-0.6371299999999849,0.7572937821612005,-0.2440599999999904,0.8708799999999997,0.9044320085003598,0.3360700000000065,0.6700099999999907,0.7495708405481045,0.3633799999999922,0.2715849999999875,115.252765,0.3154972100313128,55.6356043,0.8393528442816508,36.611679200000005,0.7839827592980594,-0.0867128399999999,0.494287754,0.1108113349467843,0,0
14,466.6666666666667,496.66394,35.2293,0.9796602,500.89832,30.377563,0.9574374,492.44852,31.39315,0.9121088,511.16693,29.099228,0.87892526,490.0231,32.088577,0.618425,525.3072,52.250458,0.99773103,487.94186,56.049454,0.9936702,535.0624,83.95555,0.99086297,479.29657,88.66164,0.9682776,535.6072,117.81465,0.9775621,472.30264,115.257,0.9451171,520.36414,116.14016,0.99871767,495.34842,116.07811,0.99795014,522.5814,164.76205,0.9963192,490.52435,158.30817,0.99443614,529.67896,211.66754,0.98222697,492.4284,199.11658,0.9780149,0.77870879,0.1724431,0.71261742,0.26234933,163.81944388926965,179.88651004574308,174.0064944060492,170.8117898571151,1.1389379892996008,116.109135,54.149956,35.2293,63.30456000000004,182.568312,0.3467445087253451,174.1945921056976,0.95102604,1.3933100000000422,-0.7524349999999984,1.58349966382223,-1.15978999999993,-0.7824400000000011,1.3990443873229466,1.5512699999999882,-0.6029370000000007,1.6643231774114555,-1.115380000000016,-0.4391649999999991,1.1987236719215295,1.6624799999999595,-0.81494,1.851476965560162,-0.4772000000000389,-0.7962459999999965,0.9282928053777167,1.9226299999999696,-0.3568800000000003,1.9554716697768555,-0.9877200000000244,0.4115599999999979,1.0700338461936831,2.2672400000000152,-0.8275930000000002,2.41356321467847,0.7942200000000526,-0.4599189999999993,0.9177749696745292,2.266059999999925,-0.1158919999999952,2.269021568708341,-0.6120800000001054,0.7698480000000103,0.9835181083763253,2.0571600000000103,-0.4552690000000012,2.1069354826289874,0.5140400000000227,-0.0518119999999981,0.5166445634515311,1.9085999999999783,0.1716300000000075,1.916301337707596,-0.2752000000000407,0.0856200000000058,0.2882114230907988,1.516999999999996,-0.4524499999999989,1.5830350604140095,0.0151299999999992,-1.1541399999999982,1.154239167807087,1.0751999999999953,0.6690660000000008,1.2663744913555353,-1.3944000000000187,-0.7426579999999916,1.579839316185048,0.7997100000000046,-0.9055299999999988,1.208106230842307,0.8188400000000229,-2.330889999999997,2.470535799720381,1.7362400000000662,0.5621599999999916,1.8249803295378888,-0.4988599999999223,0.2361399999999918,0.5519269872002261,1.7004399999999578,0.22954,1.7158626999850122,0.2541599999999562,-0.1711999999999989,0.3064420754400044,1.178930000000037,0.923749999999984,1.4977282822328144,-0.210299999999961,0.8089799999999912,0.835867651246278,0.6255800000000136,0.3824299999999994,0.73321418514648,0.1968400000000087,0.245599999999996,0.3147464782964243,0.0046599999999443,0.6884799999999984,0.6884957705026207,0.1684899999999061,0.1201999999999827,0.2069708194407226,-0.0791399999999953,0.2073699999999974,0.2219582314310469,0.164919999999995,-0.6635100000000023,0.6836988565881922,0.3958499999999958,0.0324700000000035,115.499378,0.4139850701354384,55.1879565,0.929632741215178,36.1147764,0.6928609239033368,-0.09580172,0.441473984,0.148267667206434,0,0
15,500.0,497.8474,34.36075,0.9794571,502.32297,29.71222,0.95858574,493.906,30.420311,0.9086707,512.9589,28.592339,0.8854298,491.7832,30.88321,0.60271513,527.30316,51.513596,0.9978029,489.34293,55.204826,0.99350643,537.507,83.08476,0.9912759,480.90576,88.3697,0.96716666,537.50934,117.10244,0.97838235,473.7576,115.041626,0.94350517,522.1434,115.79183,0.998765,496.8264,115.577,0.9979614,524.28265,164.47426,0.9964116,491.20288,157.99512,0.9944173,529.92615,210.92737,0.9825006,492.77563,198.87077,0.9779468,0.94382096,0.17318003,0.91969653,0.12233143,162.09304312554636,179.27042213360633,175.58931705592758,170.24468227477536,1.0680229956241434,115.684415,53.359211,34.36075,63.75173999999993,182.335031,0.3496406549016863,174.4460539538942,0.95026474,1.1834599999999682,-0.868549999999999,1.4679770686560203,-0.209850000000074,-0.1161150000000006,0.2398326827707834,1.4246499999999855,-0.665343,1.5723577614998945,-0.1266200000000026,-0.0624059999999992,0.1411634982422884,1.4574800000000323,-0.9728389999999968,1.7523309248886434,-0.2049999999999272,-0.1578989999999969,0.2587606890564508,1.791969999999992,-0.506889000000001,1.8622816487365637,-0.1306599999999775,-0.1500090000000007,0.1989339983034432,1.7601000000000226,-1.2053670000000023,2.133274856807975,-0.5071399999999926,-0.3777740000000023,0.6323797709256631,1.995960000000082,-0.7368620000000021,2.127632940298756,-0.270099999999843,-0.6209700000000069,0.6771689234599619,1.4010700000000045,-0.8446280000000002,1.6359687048608271,-0.6560900000000061,-0.3893589999999989,0.7629249759845375,2.444599999999923,-0.8707899999999995,2.595061537632513,0.5359999999999445,-1.042420000000007,1.172149929147272,1.6091900000000123,-0.2919400000000109,1.6354575566794898,0.0921900000000164,0.1605099999999879,0.185101205290509,1.9021399999999176,-0.7122099999999989,2.0311030657501563,0.8269399999999223,-1.3812759999999995,1.6098922795565769,1.4549600000000282,-0.2153740000000112,1.4708142511806468,0.6552500000000236,0.6901559999999876,0.95166583780023,1.779260000000022,-0.34832999999999,1.8130361100927008,0.0430199999999558,-0.9104899999999816,0.91150576547818,1.4779800000000023,-0.5011099999999971,1.5606204255039096,-0.2224599999999554,-0.7306499999999971,0.763765588449739,1.701249999999959,-0.2877900000000011,1.725420136256634,0.5223199999999224,-1.2115399999999852,1.319335951909097,0.6785299999999665,-0.313050000000004,0.7472638512600199,0.0529499999999529,-0.6954800000000034,0.6974927475608615,0.2471900000000459,-0.7401700000000062,0.7803553837835886,0.2425300000001016,-1.4286500000000046,1.449089929369486,0.3472299999999677,-0.2458100000000058,0.4254306394701496,0.426369999999963,-0.4531800000000032,0.6222246292939323,-0.4247199999999935,-0.8205699999999894,115.62297,0.3376299780455616,54.6322917,1.0435111475769878,35.557065,0.7699626712704115,-0.1400178999999999,0.3692542239999999,0.2012128096557808,0,0
16,533.3333333333334,499.7995,33.529396,0.9798061,504.39816,28.807816,0.95836675,495.7345,29.573952,0.9134578,515.23145,27.45514,0.88269377,493.42108,29.854065,0.61938906,529.8571,50.644295,0.9976891,490.8501,54.37343,0.99396884,540.4126,83.67368,0.9904032,482.65753,88.622345,0.9691752,540.0292,119.08444,0.9766948,475.25275,116.71618,0.9454049,523.9456,115.6981,0.99876666,498.16138,115.44142,0.99808323,524.87775,164.7388,0.9965114,491.95468,158.50406,0.9948944,529.9689,210.46977,0.98351383,494.18097,199.09033,0.9800143,1.10594324,0.26234933,1.06020572,0.17391697,161.65687878087772,178.68693509679628,174.73644623458304,168.6586181100754,0.6359607945280072,115.56976,52.5088625,33.529396,65.15985,183.01463,0.3560362887052457,174.539023668296,0.9516960788235296,1.95210000000003,-0.8313540000000046,2.1217549065139742,0.7686400000000617,0.0371959999999944,0.7695394674843484,2.0751900000000205,-0.9044039999999997,2.263704956772433,0.650540000000035,-0.2390609999999995,0.6930746376264575,1.82850000000002,-0.8463590000000032,2.014878608472748,0.3710199999999872,0.1264799999999937,0.3919860084237561,2.272550000000024,-1.137198999999999,2.5412015008851827,0.4805800000000317,-0.6303099999999979,0.7926208630234433,1.6378799999999956,-1.0291449999999998,1.9343707828193089,-0.122220000000027,0.1762220000000027,0.2144572723971085,2.5539399999998977,-0.8693010000000001,2.6978313053637133,0.5579799999998158,-0.1324389999999979,0.5734821436808595,1.5071699999999737,-0.831395999999998,1.7212729933731945,0.1060999999999694,0.0132320000000021,0.1069219146105866,2.905600000000049,0.5889200000000017,2.964681791761181,0.4610000000001264,1.4597100000000012,1.5307757131925368,1.7517700000000218,0.2526450000000011,1.7698948073049643,0.1425800000000094,0.5445850000000121,0.5629403863865302,2.519859999999994,1.9819999999999995,3.205934874510081,0.6177200000000767,2.694209999999998,2.7641174943370417,1.495149999999967,1.6745540000000003,2.2449063725277947,0.0401899999999386,1.889928000000012,1.890355279116611,1.8021999999999707,-0.0937300000000078,1.8046357396715536,0.0229399999999486,0.2545999999999822,0.2556313822674919,1.33498000000003,-0.1355800000000044,1.341847061628143,-0.1429999999999722,0.3655299999999926,0.3925062813509952,0.5951000000000022,0.2645400000000109,0.6512491240685152,-1.106149999999957,0.552330000000012,1.2363803020915198,0.7518000000000029,0.5089400000000239,0.9078673711506702,0.0732700000000363,0.821990000000028,0.8252490854281823,0.0427499999999554,-0.4575999999999851,0.4595925614062771,-0.2044400000000905,0.2825700000000211,0.3487714416348462,1.4053400000000238,0.2195600000000013,1.422387819548546,1.058110000000056,0.4653700000000071,1.155926472142638,-0.114654999999999,0.3100649999999945,115.6853,0.2767035183640561,53.9067402,0.9961783346796198,35.0105822,1.0598265029777536,0.05158554,0.272322534,0.1317360094966478,0,0
17,566.6666666666666,502.34695,32.310837,0.9810527,507.04456,27.63298,0.9572992,497.89627,28.346878,0.9236786,517.4283,26.711609,0.87180054,494.43466,29.048721,0.6597837,531.3638,49.879044,0.99765944,491.52966,54.33705,0.9949596,542.80865,80.92189,0.989894,483.705,89.44209,0.9743566,544.41986,112.84853,0.97629035,476.37497,117.360214,0.9530715,525.76794,114.96034,0.9988507,499.62247,115.02285,0.99836415,525.83887,164.31836,0.99684614,493.60547,158.20364,0.9957581,530.1169,210.37276,0.9852246,496.6603,199.18384,0.9830072,1.03553134,0.2178875,1.0044442,0.12626176,162.65115924169933,177.85418628874234,174.77531518177514,167.80406100264096,1.137433230285606,114.991595,52.108047,32.310837,68.04488999999995,183.661151,0.3704914689852319,173.61435968049886,0.9551704188235294,2.5474499999999694,-1.218558999999999,2.823895808804008,0.5953499999999394,-0.3872049999999944,0.7101896468725263,2.6463999999999714,-1.174835999999999,2.8954572327865327,0.5712099999999509,-0.2704319999999995,0.6319923502099877,2.16176999999999,-1.2270739999999982,2.4857514224829385,0.3332699999999704,-0.380714999999995,0.5059770786557198,2.1968500000000404,-0.7435310000000008,2.31926459690592,-0.0756999999999834,0.3936679999999981,0.4008802617041603,1.0135799999999904,-0.8053439999999981,1.2945745921869385,-0.6243000000000052,0.2238010000000017,0.663202365497144,1.5067000000000237,-0.7652509999999992,1.6898976250060445,-1.0472399999998745,0.1040500000000008,1.052396322731953,0.6795599999999808,-0.0363800000000011,0.6805330983868265,-0.8276099999999929,0.7950159999999968,1.1476013037444597,2.3960499999999456,-2.75179,3.6487537333450906,-0.5095500000001039,-3.3407100000000014,3.379346757377839,1.0474699999999757,0.8197449999999975,1.3301034794048714,-0.7043000000000461,0.5670999999999964,0.9042349805222428,4.390660000000025,-6.235910000000004,7.626563365218981,1.870800000000031,-8.217910000000003,8.428163347260195,1.122220000000027,0.6440340000000049,1.2938923917992822,-0.3729299999999398,-1.0305199999999957,1.0959234714613728,1.82233999999994,-0.7377599999999944,1.9660144692244188,0.0201399999999694,-0.6440299999999866,0.644344830428538,1.4610900000000129,-0.4185699999999883,1.5198634257722066,0.1261099999999828,-0.2829899999999838,0.3098178048466332,0.9611200000000508,-0.420439999999985,1.0490574092965956,0.3660200000000486,-0.6849799999999959,0.7766390672635713,1.650790000000029,-0.3004200000000026,1.6779033942691983,0.8989900000000262,-0.8093600000000265,1.209647316245562,0.1480000000000245,-0.0970100000000115,0.1769602783112908,0.1052500000000691,0.3605899999999735,0.3756364074474084,2.4793300000000045,0.093510000000009,2.4810927771850904,1.073989999999981,-0.1260499999999922,1.0813616983229786,-0.5781649999999985,-0.4635099999999994,115.613638,0.4029016499346252,53.3123226,1.0076290926043436,34.282403599999995,1.435668264402029,-0.04765521,0.208602108,0.1008455149169467,0,0
18,600.0,503.59998,31.38102,0.98033065,508.43588,26.858467,0.9577598,499.29474,27.2724,0.91639704,518.76544,25.873474,0.8767377,495.7156,27.511917,0.63265514,532.304,48.811256,0.9978319,492.42285,52.82373,0.9943719,544.35834,79.98877,0.9911152,485.16766,88.36992,0.9710589,546.3035,111.76887,0.97881603,479.21838,116.92273,0.949529,526.8292,114.64616,0.99893636,500.77155,114.65941,0.998329,526.7464,164.33707,0.99711823,495.10028,158.77403,0.99573874,530.06433,210.70728,0.9862113,498.03812,200.63992,0.9831035,1.03553134,0.2178875,1.0044442,0.12626176,162.3642435147694,179.76616168247872,175.81181508380183,168.66035610717532,1.2895658588465062,114.652785,50.817493,31.38102,67.08511999999996,184.833806,0.3629483214615601,174.25475977560572,0.9532964935294116,1.2530300000000238,-0.929817,1.5603345264362574,-1.2944199999999455,0.2887419999999991,1.3262334179788482,1.3913200000000074,-0.7745129999999989,1.592369846979344,-1.255079999999964,0.4003230000000002,1.317377816242899,1.3984699999999748,-1.0744779999999992,1.763581955391903,-0.7633000000000152,0.152595999999999,0.7784037700422725,1.337139999999977,-0.8381349999999976,1.5781044508602506,-0.8597100000000637,-0.0946039999999968,0.8648995322672507,1.2809399999999869,-1.536804,2.000643351028855,0.2673599999999965,-0.731460000000002,0.778790794244514,0.9402000000000044,-1.0677880000000002,1.422725290751524,-0.5665000000000191,-0.3025370000000009,0.6422233928852344,0.8931900000000041,-1.5133200000000002,1.757249498079316,0.2136300000000233,-1.476939999999999,1.492310135494632,1.549690000000055,-0.9331200000000024,1.808936712685155,-0.8463599999998905,1.8186699999999971,2.0059625665749112,1.462660000000028,-1.0721699999999998,1.813538746346513,0.4151900000000523,-1.8919149999999971,1.9369370416523697,1.883640000000014,-1.07965999999999,2.1711207624634863,-2.507020000000012,5.156250000000014,5.733416376201907,2.8434100000000058,-0.4374839999999977,2.8768685542367125,1.721189999999979,-1.0815180000000026,2.0327754918888443,1.0612600000000612,-0.3141800000000074,1.1067889862119764,-0.761079999999879,0.4235799999999869,0.8710125043877411,1.1490799999999697,-0.3634400000000113,1.205186076919219,-0.3120100000000434,0.055129999999977,0.3168431110187257,0.9075299999999517,0.0187099999999986,0.90772284591714,-0.0535900000000992,0.4391499999999837,0.4424077424729322,1.4948099999999729,0.5703900000000033,1.599938026362247,-0.1559800000000564,0.8708100000000059,0.8846693260761491,-0.052569999999946,0.3345199999999977,0.3386255089327926,-0.2005699999999706,0.4315300000000093,0.4758639152110572,1.3778199999999856,1.4560799999999858,2.0046338615318056,-1.1015100000000189,1.3625699999999767,1.7521190841378271,-0.3388100000000094,0.2393549999999891,115.401538,0.578294014987219,52.5887139,1.2654824245475609,33.3622606,1.5444705684086737,0.0,0.16222425,0.0598744307020063,0,0
19,633.3333333333333,503.72003,30.885185,0.97823846,508.29745,25.88448,0.9600506,499.61798,26.852959,0.9073103,519.496,25.008202,0.887784,497.41812,27.616539,0.61901313,534.00183,48.30908,0.99737334,494.4132,51.545967,0.99286747,547.1606,80.99332,0.9879871,486.4243,85.68289,0.9567954,547.9058,112.01621,0.9697722,482.65787,115.811035,0.9230823,527.7701,114.20386,0.9982096,501.97443,114.30809,0.99700564,527.6766,162.42677,0.99329776,497.34207,159.50931,0.9899532,529.6362,208.7334,0.9670304,499.1498,202.52106,0.95974445,0.97124308,0.08450203,0.96415835,0.081063,159.4461765226892,173.9541766478755,177.46571597186863,171.74192699097205,0.5921416849536109,114.255975,49.9275235,30.885185,65.24793,183.725198,0.3551387090891109,175.32572016328612,0.9462067852941176,0.120049999999992,-0.4958349999999996,0.5101611017364982,-1.132980000000032,0.4339820000000003,1.213253500602439,-0.1384299999999712,-0.973987000000001,0.9837751476170732,-1.5297499999999786,-0.1994740000000021,1.5427005345095126,0.3232399999999984,-0.4194410000000026,0.5295421136047644,-1.0752299999999764,0.6550369999999965,1.2590444885979784,0.7305599999999686,-0.8652720000000009,1.1324369949732107,-0.6065800000000081,-0.0271370000000032,0.6071867201849939,1.7025199999999927,0.1046219999999991,1.7057315478362869,0.4215800000000058,1.6414259999999992,1.6947002713978665,1.6978300000000672,-0.5021759999999986,1.770538743963607,0.7576300000000629,0.5656120000000016,0.945473506473924,1.990350000000035,-1.2777630000000002,2.365200077513346,1.0971600000000308,0.235557,1.1221618269434528,2.8022600000000466,1.0045499999999947,2.976874503585976,1.2525699999999915,1.937669999999997,2.307270385932253,1.2566400000000044,-2.687029999999993,2.9663570773762173,-0.2060200000000236,-1.614859999999993,1.6279487276938385,1.6023000000000138,0.2473399999999941,1.6212780037982508,-0.2813400000000001,1.326999999999984,1.3564959253901052,3.439489999999978,-1.1116949999999974,3.6146863256892487,0.5960799999999722,-0.6742109999999997,0.8999287965839111,0.9408999999999424,-0.4422999999999888,1.0396740354552871,-0.1203600000001188,-0.1281199999999813,0.1757875535981539,1.2028799999999933,-0.351319999999987,1.2531344847222006,0.0538000000000238,0.0121200000000243,0.0551482946246133,0.9302000000000136,-1.9103000000000063,2.124739544038292,0.0226700000000619,-1.9290100000000048,1.929143205933666,2.2417899999999804,0.7352799999999888,2.3592920723174347,0.7469800000000077,0.1648899999999855,0.7649626347083933,-0.4281300000000101,-1.9738800000000083,2.0197766092565885,-0.375560000000064,-2.308400000000006,2.3387509216673923,1.1116800000000353,1.881140000000016,2.1850675325948488,-0.2661399999999503,0.4250600000000304,0.501504240460636,-0.3968099999999879,-0.0579999999999785,115.030906,0.6046644826926955,51.7442274,1.3678864421237171,32.4934376,1.4506341481435252,-0.04519876,0.125966984,0.032897416217462,0,0
20,666.6666666666666,504.30988,30.337566,0.9768521,508.93204,25.54332,0.9583352,500.37042,26.309021,0.8902613,520.0794,24.760788,0.89262074,498.20212,27.162716,0.5737719,534.38495,48.43557,0.99766856,495.23206,51.71833,0.99261683,547.87396,81.50665,0.9903861,486.57736,86.724815,0.9560458,547.6697,112.455536,0.9771047,483.87723,117.01372,0.928726,527.9484,114.78254,0.9986589,502.46304,114.78593,0.9975434,526.85236,163.92775,0.99608374,498.51956,161.83333,0.9935033,528.0589,208.68178,0.9807463,499.98816,204.39868,0.97474897,1.0413476,0.04298795,1.0395715,0.04298795,157.43232598772397,171.20736924825405,177.17811319780128,173.23265854289767,0.3518581984331584,114.784235,50.07695,30.337566,63.996730000000014,183.920992,0.3479577233470026,175.20726582025137,0.9456278729411765,0.5898500000000126,-0.547619000000001,0.8048661948802521,0.4698000000000206,-0.0517840000000013,0.4726453455351269,0.634589999999946,-0.3411599999999986,0.7204822091487968,0.7730199999999172,0.6328270000000025,0.9990144805401346,0.7524400000000355,-0.5439379999999971,0.9284581312283556,0.4292000000000371,-0.1244969999999945,0.4468916457140707,0.5833999999999833,-0.2474139999999991,0.6336949166562567,-0.1471599999999853,0.6178580000000018,0.6351413809255368,0.7839999999999918,-0.4538229999999998,0.905875993350628,-0.9185200000000008,-0.558444999999999,1.0749603752813406,0.3831199999999626,0.1264899999999968,0.4034608463035422,-1.3147100000001046,0.6286659999999955,1.4572862874728043,0.8188599999999724,0.1723630000000042,0.8368038619467265,-1.1714900000000623,1.4501260000000045,1.8642033783834209,0.713359999999966,0.5133299999999963,0.8788573140731935,-2.0889000000000806,-0.4912199999999984,2.145879842488935,0.1530599999999822,1.0419250000000062,1.05310733984006,-1.1035800000000222,3.728954999999999,3.888829413644297,-0.2360999999999649,0.4393259999999941,0.4987489792229937,-1.8383999999999787,0.191986,1.848397463803692,1.219359999999995,1.2026850000000024,1.712685031996541,-2.2201299999999837,2.31438,3.207075303341025,0.1783000000000356,0.5786799999999914,0.6055257487506231,-0.7625999999999067,1.0209799999999802,1.2743464679590937,0.4886099999999942,0.4778399999999863,0.6834257806814001,-0.7142699999999991,0.8291599999999733,1.0943892993354578,-0.8242400000000316,1.5009799999999984,1.71239964319082,-1.754440000000045,3.411280000000005,3.835999342022909,1.1774900000000343,2.32401999999999,2.6052930085692925,-1.064299999999946,1.5887400000000014,1.9122837858434845,-1.5773000000000366,-0.0516199999999855,1.5781444529573692,-1.1491700000000264,1.9222600000000227,2.239570315149794,0.838359999999966,1.8776200000000076,2.056284113151675,-0.2733200000000693,-0.0035200000000088,0.2733426655318154,0.5282599999999888,0.9250699999999769,114.85087,0.4832660522941998,51.0877752,1.1727582572765227,31.688800800000003,1.2590753138674726,-0.03807505,0.110098288,0.0498552535900779,0,0
21,700.0,504.53638,29.258667,0.97546107,509.18762,24.794205,0.95435363,500.82593,25.310204,0.89254785,519.9998,24.621445,0.8662727,498.70175,26.42411,0.55873036,533.9523,48.56711,0.99575657,495.56424,51.47545,0.9907109,549.5534,79.61893,0.98512286,486.97168,85.82699,0.95509166,551.4824,111.73389,0.97353065,484.73267,117.95192,0.9390284,527.99945,114.12161,0.9973455,503.23285,114.05841,0.99598724,527.1547,164.18335,0.9942062,501.12973,162.68819,0.99196225,527.56525,208.89781,0.97605395,500.91602,206.33101,0.97186106,1.01404642,0.03193391,1.00616372,0.12208578,156.76143353324449,169.9433120111697,178.50722061710346,177.80420248202915,0.7672111574597279,114.09001,50.02128,29.258667,66.74973,184.276365,0.3622262119060889,175.66745801674486,0.942001344117647,0.2264999999999872,-1.0788989999999998,1.1024179344518092,-0.3633500000000254,-0.5312799999999989,0.6436471555907144,0.255580000000009,-0.7491149999999998,0.7915140046929077,-0.379009999999937,-0.4079550000000012,0.5568445583149333,0.4555100000000038,-0.9988170000000024,1.0977817449698315,-0.2969300000000316,-0.4548790000000053,0.5432148097585555,-0.0795999999999139,-0.1393430000000002,0.1604762650642965,-0.6629999999998972,0.1080709999999989,0.6717502073247641,0.4996300000000246,-0.7386060000000008,0.8917224681121508,-0.2843699999999671,-0.2847830000000009,0.4024520517887588,-0.4326499999999669,0.1315400000000011,0.4522043720487139,-0.8157699999999295,0.0050500000000042,0.8157856307878222,0.3321799999999939,-0.2428799999999995,0.4115024262382857,-0.4866799999999784,-0.4152430000000038,0.6397532113627741,1.6794399999999996,-1.8877199999999876,2.526658962345324,0.9660800000000336,-2.401049999999984,2.5881173985930364,0.3943199999999933,-0.8978250000000116,0.9806008326658792,0.2412600000000111,-1.9397500000000176,1.9546959994076,3.81269999999995,-0.7216459999999927,3.8803935675799184,4.048799999999915,-1.1609719999999868,4.211963606773363,0.8554399999999873,0.9381999999999948,1.2696443728855606,-0.3639200000000073,-0.2644850000000076,0.4498778518942773,0.051050000000032,-0.6609299999999934,0.6628986101961555,-0.1272500000000036,-1.2396099999999848,1.2461241971007395,0.7698100000000068,-0.7275199999999984,1.0591944044886228,0.2812000000000125,-1.2053599999999849,1.2377262094663626,0.302340000000072,0.2555999999999869,0.3959050840795516,1.1265800000001036,-1.2453800000000117,1.6793313671816714,2.6101699999999823,0.8548600000000022,2.74659298923228,1.432679999999948,-1.469159999999988,2.05207287589886,-0.4936500000000023,0.2160299999999893,0.5388499637190279,1.0836500000000342,0.2676499999999748,1.1162140677307648,0.9278600000000096,1.932329999999979,2.143553920128891,0.0895000000000436,0.0547099999999716,0.1048972549688728,-0.6942249999999888,-1.2224849999999776,114.55492,0.3736165829430095,50.5902587,0.919477742876562,30.834655,1.141382598136251,0.07909783,0.09973205,0.036999211420629,0,0
22,733.3333333333333,505.35843,28.277939,0.9744231,510.19843,23.876282,0.9622936,501.39972,24.353264,0.8744125,521.29126,23.19265,0.90556705,499.15494,25.034477,0.4806259,535.5031,46.86116,0.99776053,497.25348,50.58864,0.98614514,551.0277,78.032166,0.9915986,489.96243,84.90933,0.91967946,552.26434,109.89299,0.9786646,489.99182,117.75744,0.8886731,529.47577,114.77559,0.99869186,505.08325,115.266075,0.9968214,529.3782,165.34863,0.9970546,503.44962,164.43929,0.9934662,529.4104,212.2914,0.98680854,502.86902,209.3134,0.9787619,0.99471351,0.06411346,0.9752124,0.18521666,155.74732768043128,167.95518552272145,179.85014924898385,178.83849651997704,0.7788884535253641,115.0208325,48.7249,28.277939,62.30190999999997,189.09875,0.3294675912481303,174.43401983180888,0.9359675341176472,0.8220499999999902,-0.9807279999999992,1.2796849661084488,0.5955500000000029,0.0981710000000006,0.6035870672413414,1.0108099999999922,-0.9179230000000018,1.3654008532401714,0.7552299999999832,-0.168808000000002,0.7738659404341137,0.573789999999974,-0.9569399999999996,1.115781845926868,0.1182799999999701,0.041877000000003,0.1254744656453782,1.2914599999999157,-1.428795000000001,1.925960561284884,1.3710599999998294,-1.2894520000000007,1.8821508929688755,0.4531900000000064,-1.389633,1.4616637954020089,-0.0464400000000182,-0.6510269999999991,0.6526812608992237,1.550799999999981,-1.7059500000000014,2.3054817376201324,1.983449999999948,-1.8374900000000025,2.703783164863596,1.6892400000000407,-0.8868100000000041,1.9078689036986125,1.3570600000000468,-0.6439300000000046,1.5020844478590851,1.474299999999971,-1.5867640000000025,2.165959482930353,-0.2051400000000285,0.3009559999999851,0.3642209954629232,2.990749999999992,-0.917659999999998,3.128367855304095,2.596429999999998,-0.0198349999999862,2.596505762004966,0.7819399999999632,-1.8409000000000049,2.0000857415620863,-3.0307599999999866,-1.1192540000000122,3.2308258532635192,5.259150000000034,-0.1944799999999986,5.262744644470256,4.403710000000046,-1.1326799999999937,4.547045826303095,1.476319999999987,0.65397999999999,1.6146859084044638,1.425269999999955,1.3149099999999834,1.939170668352796,1.850400000000036,1.2076650000000058,2.209623251195812,1.0805900000000292,1.935185000000004,2.216442133764173,2.2234999999999445,1.165280000000024,2.51034454376283,1.9211599999998723,0.9096800000000372,2.1256465952739125,2.3198899999999867,1.751100000000008,2.9065857672017814,-0.2902799999999956,0.8962400000000059,0.9420767569577376,1.8451499999999896,3.393590000000017,3.8627751177877383,2.338799999999992,3.177560000000028,3.9454876750029446,1.9529999999999743,2.982390000000009,3.564948682954631,1.0251399999999649,1.0500600000000304,1.4674937898335352,0.9308224999999908,1.6250474999999796,114.5607675,0.3822877973301121,49.9136293,0.7530774047049319,30.0280754,1.2565674567213023,0.06313088,0.11152303,0.0533489071358533,0,0
23,766.6666666666667,505.37262,28.211136,0.97230333,510.26398,23.667763,0.9635163,501.40665,24.292648,0.8664183,521.77515,22.586838,0.9088043,499.4766,24.805023,0.44768715,536.10596,46.273155,0.99738365,497.9649,50.28849,0.98100775,551.94507,77.995964,0.9898287,490.29092,84.77661,0.88505566,552.6855,109.40987,0.9741009,491.2872,116.85436,0.84974587,529.59735,114.746994,0.9983889,505.5061,115.5501,0.9957632,530.2259,165.76291,0.99684525,506.16153,166.22197,0.99249613,529.71826,212.8389,0.98719203,505.50778,211.89873,0.97837275,1.03952974,0.09211704,1.01304179,0.21420282,154.8173905750274,165.6764985660884,178.67629229165493,178.43893996251623,0.4424908484391842,115.148547,48.2808225,28.211136,62.39458000000002,190.252062,0.3279574424378253,173.99027111133762,0.9285241276470588,0.014189999999985,-0.0668030000000001,0.0682934616855786,-0.8078600000000051,0.913924999999999,1.219793706011392,0.0655500000000302,-0.208518999999999,0.2185794497682788,-0.945259999999962,0.7094040000000028,1.181850457044347,0.0069300000000112,-0.0606159999999995,0.0610108544113266,-0.5668599999999628,0.8963239999999999,1.0605314576079097,0.4838900000000876,-0.6058120000000002,0.7753436086304479,-0.8075699999998278,0.8229830000000007,1.1530265925765646,0.3216600000000085,-0.2294540000000005,0.3951130138530059,-0.1315299999999979,1.1601789999999994,1.1676110024066226,0.6028599999999642,-0.5880049999999954,0.8421342289830948,-0.9479400000000168,1.117945000000006,1.465739153678118,0.7114199999999755,-0.300149999999995,0.7721453482991153,-0.9778200000000652,0.5866600000000091,1.1403078128295614,0.9173700000000052,-0.0362020000000029,0.9180840384757868,-0.5569299999999657,1.550561999999999,1.6475477354978092,0.3284900000000448,-0.1327199999999919,0.3542884114673062,-2.6622599999999466,0.784940000000006,2.775564647274447,0.4211600000000999,-0.4831199999999995,0.6409217424928598,-0.3607799999998633,1.357780000000005,1.4048945643000814,1.295379999999966,-0.9030800000000028,1.5791019064012042,-3.963770000000068,-0.7086000000000041,4.026609811355024,0.1215799999999944,-0.0285959999999931,0.1248976685771126,-1.3547399999999925,-0.6825759999999832,1.5169807063295029,0.4228499999999826,0.2840249999999997,0.5093842588115431,-1.4275500000000534,-0.923640000000006,1.7002969893816091,0.8477000000000317,0.4142799999999909,0.9435164060047108,-1.3757999999999129,-0.7510000000000332,1.5674267574594387,2.711910000000046,1.7826799999999992,3.245366517128727,0.3920200000000591,0.031579999999991,0.39328993986631,0.3078600000000051,0.5474999999999852,0.6281194389604472,-1.5372899999999845,-2.846090000000032,3.2347316476332524,2.6387600000000475,2.585329999999999,3.694182662849828,0.685760000000073,-0.3970600000000104,0.7924161919093453,0.1277145000000104,-0.8031079999999804,114.6599199,0.4670217789716135,49.4062952,0.8412269792902076,29.3940986,1.201772011560026,0.0289861599999999,0.129111242,0.0709993075248028,0,0
24,800.0,505.1434,27.682976,0.9687572,510.09732,23.024475,0.96434724,501.21945,23.822433,0.8516497,522.10406,21.942825,0.91218734,499.63266,24.580048,0.39895946,536.5869,45.61641,0.9968015,498.6699,50.04094,0.97133934,552.766,77.3548,0.98738885,491.0926,83.80125,0.82475656,552.9406,109.02435,0.9679052,494.2534,113.09981,0.78778386,529.64124,113.82736,0.99790835,505.74185,114.920044,0.9938803,530.7283,164.93352,0.99652845,507.6366,166.56006,0.9908812,529.973,213.55136,0.98738164,506.87488,213.944,0.977225,1.03952974,0.09211704,1.01304179,0.21420282,153.3050126663361,161.19254574130974,177.89142195085873,176.97769537688686,0.0552682339604628,114.373702,47.828675,27.682976,61.84800000000001,192.001175,0.3221230269964597,173.34426305978988,0.9162165405882352,-0.2292199999999979,-0.5281599999999997,0.5757558458235563,-0.243409999999983,-0.4613569999999996,0.5216308172922602,-0.1666599999999789,-0.6432880000000019,0.6645261518886939,-0.2322100000000091,-0.4347690000000028,0.4928950876819597,-0.1872000000000184,-0.4702149999999996,0.5061086703713014,-0.1941300000000296,-0.409599,0.453274527964027,0.3289099999999507,-0.6440130000000011,0.7231421245294516,-0.1549800000001369,-0.0382010000000008,0.1596186605664967,0.1560599999999681,-0.224974999999997,0.2738037147757289,-0.1656000000000403,0.0044790000000034,0.1656605609099927,0.4809400000000323,-0.6567450000000008,0.8140130703035623,-0.1219199999999318,-0.0687400000000053,0.1399631165699882,0.7049999999999841,-0.2475500000000039,0.7471987704085035,-0.0064199999999914,0.0525999999999911,0.0529903425163392,0.8209299999999757,-0.6411640000000034,1.0416416561351436,-0.0964400000000296,-0.6049620000000004,0.6126007631761539,0.8016799999999762,-0.9753600000000092,1.2625442376407965,0.4731899999999314,-0.8426400000000172,0.9664113749847753,0.2550999999999703,-0.3855199999999996,0.4622787907745548,-0.1660600000001295,0.0975999999999999,0.1926179732009529,2.966200000000015,-3.7545499999999943,4.784870755046582,1.6708200000000488,-2.851469999999992,3.3049236955336982,0.043890000000033,-0.919634000000002,0.9206807405697192,-0.0776899999999614,-0.8910380000000089,0.8944185002245928,0.2357499999999959,-0.6300559999999962,0.6727173445333435,-0.1870999999999867,-0.914080999999996,0.9330329493436916,0.502399999999966,-0.8293900000000178,0.9696873372897036,-0.3453000000000656,-1.2436700000000087,1.2907157544944072,1.4750699999999597,0.338089999999994,1.513319646670814,-1.236840000000086,-1.4445900000000051,1.9017395861947628,0.2547399999999697,0.712459999999993,0.7566318253946067,-0.0531200000000353,0.1649600000000077,0.1733018638099611,1.3670999999999935,2.045269999999988,2.4600999538433257,-1.271660000000054,-0.5400600000000111,1.3815874779398332,-0.7748449999999991,-0.9025595000000096,114.6834653,0.4439635803964786,48.9865255,1.0206401021270357,28.7536568,1.0524729539405848,0.0,0.155739206,0.0734001148318569,0,0
25,833.3333333333334,504.4772,26.402039,0.9678717,509.72943,21.701508,0.96474195,500.74792,22.521866,0.84743184,522.5805,21.068184,0.91337025,499.58655,23.62455,0.3821312,536.89703,45.56459,0.99641955,498.87036,49.881996,0.96716475,553.45953,77.81912,0.9857099,491.35126,83.48676,0.8004366,552.9624,109.47553,0.9648497,494.29547,112.58055,0.7667962,529.6535,114.39615,0.99740857,505.86673,115.62645,0.99234724,530.7923,165.86148,0.99579793,509.45016,168.54373,0.98890287,530.5053,215.0082,0.98482436,510.56912,217.35104,0.97254294,1.01920164,0.05920055,0.99339016,0.22009831,151.9200894178709,161.60924770438106,178.39780876215764,177.4393197702575,0.1056909434244948,115.0113,47.723293,26.402039,62.10826999999995,196.282856,0.3164222843974598,173.52258860619438,0.9111027970588236,-0.6662000000000035,-1.2809370000000015,1.4438220243399145,-0.4369800000000055,-0.7527770000000018,0.8704164130627406,-0.3678900000000453,-1.3229669999999984,1.3731659532587566,-0.2012300000000664,-0.6796789999999966,0.7088420528869758,-0.4715299999999729,-1.300567000000001,1.383407048698602,-0.2843299999999544,-0.8303520000000013,0.8776833100862613,0.476440000000025,-0.8746410000000004,0.9959879278791608,0.1475300000000743,-0.2306279999999994,0.2737779671266876,-0.0461099999999987,-0.9554980000000022,0.9566099310084566,-0.2021699999999668,-0.7305230000000051,0.7579819011223118,0.3101299999999583,-0.0518199999999993,0.314429529942679,-0.170810000000074,0.6049250000000015,0.6285780076689187,0.2004600000000209,-0.1589439999999982,0.2558269077638391,-0.5045399999999631,0.0886060000000057,0.5122612954693765,0.6935300000000097,0.4643200000000007,0.8346118398992517,-0.1273999999999659,1.105484000000004,1.1128008061894996,0.2586600000000203,-0.3144899999999921,0.4071964583588683,-0.5430199999999559,0.6608700000000169,0.8553478107179409,0.0217999999999847,0.4511800000000079,0.4517063563865429,-0.2332999999999856,0.8367000000000075,0.8686171653841559,0.0420700000000238,-0.5192600000000027,0.5209614501093194,-2.924129999999991,3.235289999999992,4.360921650408305,0.0122599999999692,0.568790000000007,0.5689221139136773,-0.0316300000000637,1.488424000000009,1.4887600413350806,0.1248800000000187,0.7064060000000012,0.7173593598999085,-0.1108699999999771,1.3364619999999974,1.3410528827544377,0.0639999999999645,0.927960000000013,0.9301643734308574,-0.4384000000000014,1.7573500000000308,1.8112077690039068,1.8135599999999956,1.9836700000000176,2.6877400436984327,0.3384900000000357,1.6455800000000238,1.6800324450736368,0.5323000000000775,1.4568399999999997,1.5510403204301562,0.2775600000001077,0.7443800000000067,0.7944439174668466,3.6942399999999793,3.4070400000000234,5.025468210943136,2.3271399999999858,1.3617700000000357,2.696293402525035,0.637597999999997,1.412442999999996,114.7288783,0.4678204778851725,48.51579410000001,0.9308081671866772,27.966551400000004,1.0433672226249064,0.00589549,0.191161278,0.0409449021355482,0,0
26,866.6666666666667,504.6518,25.369797,0.96793324,509.87875,20.721062,0.9640696,500.84485,21.51361,0.8465967,522.64154,20.397285,0.9129787,499.5732,22.922798,0.38803732,536.9457,45.2266,0.99651575,498.91324,49.508087,0.9687122,553.5009,77.425156,0.98615825,491.59174,83.1565,0.80937266,553.09686,110.05841,0.9662534,494.33878,112.85632,0.77760595,529.6255,114.453125,0.99736184,506.0551,115.60933,0.99228776,530.2946,167.11157,0.99551374,510.97388,169.21364,0.98826164,529.21924,216.99037,0.98300856,512.69366,218.24075,0.9695351,0.9477186,0.04618134,0.92853976,0.18398843,152.0802420863909,162.43999920323165,178.0369399092393,176.76617496072384,0.0761463139242052,115.0312275,47.3673435,25.369797,61.90915999999999,197.843465,0.312919912149133,173.5769953925818,0.9123648476470588,0.1745999999999981,-1.032242,1.0469043445148174,0.8408000000000015,0.2486950000000014,0.8768088976652799,0.1493200000000456,-0.9804460000000006,0.9917513908818152,0.517210000000091,0.3425209999999978,0.620344113811917,0.0969299999999862,-1.0082559999999994,1.0129045297736583,0.5684599999999591,0.2923110000000015,0.6392124000056275,0.0610399999999344,-0.6708989999999986,0.6736700600449675,-0.4154000000000906,0.2037420000000018,0.4626747913643837,-0.0133500000000026,-0.701751999999999,0.7018789724760236,0.0327599999999961,0.2537460000000031,0.2558520082313237,0.0486700000000155,-0.3379900000000049,0.3414762202555323,-0.2614599999999427,-0.2861700000000056,0.3876268830976165,0.0428799999999682,-0.3739089999999976,0.3763597144767164,-0.1575800000000526,-0.2149649999999994,0.266535940587787,0.0413700000000289,-0.3939639999999969,0.3961301682477616,-0.6521599999999808,-0.8582839999999976,1.0779443818008287,0.2404799999999909,-0.3302600000000097,0.4085367768022875,-0.0181800000000293,-0.0157700000000176,0.0240666844413937,0.13445999999999,0.5828799999999887,0.598187751462686,0.1126600000000053,0.1316999999999808,0.1733123353947899,0.0433099999999626,0.2757699999999943,0.279150226580588,0.0012399999999388,0.795029999999997,0.7950309670069431,-0.02800000000002,0.0569749999999942,0.0634834673359959,-0.0402599999999893,-0.5118150000000128,0.5133960087739408,0.1883699999999635,-0.0171200000000055,0.1891463753287026,0.0634899999999447,-0.7235260000000068,0.7263063078178537,-0.4977000000000089,1.25009,1.345522314233402,-0.5616999999999734,0.3221299999999871,0.6475141905008429,1.5237200000000255,0.6699099999999873,1.6644825161292809,-0.2898399999999697,-1.3137600000000305,1.345352207862336,-1.2860600000000204,1.9821700000000249,2.362826322965814,-1.818360000000098,0.5253300000000252,1.8927241474922811,2.1245400000000245,0.8897099999999796,2.303313720642516,-1.5696999999999548,-2.517330000000044,2.9666325048613755,0.0199274999999943,-0.6176705000000027,114.9171218,0.3088317728348813,47.9850068,0.5266380570991541,27.1887774,1.2652439843532155,-0.0361098799999999,0.203541808,0.0174612267083178,0,0
27,900.0,504.38666,24.491982,0.9664161,509.4969,19.755112,0.959547,500.5764,20.720963,0.8430606,522.33453,19.277092,0.90498334,499.52466,22.204361,0.4032278,536.99365,44.372314,0.996354,498.7945,49.256096,0.97253245,553.1312,77.07509,0.9853258,491.15866,84.24819,0.8337254,552.44403,111.020996,0.9655762,492.71832,115.921814,0.8019421,529.7793,114.91717,0.9972275,506.6719,116.31634,0.9925881,529.39465,167.65002,0.99520373,514.4871,169.32715,0.988489,528.2666,218.45085,0.9814886,519.3147,218.7453,0.9687676,0.98143666,-0.02456454,0.9698082,0.14861549,152.57576481529244,164.87104740142988,179.14586104476652,177.19294495921702,0.2762502731968911,115.616755,46.814205,24.491982,61.97254000000004,199.468208,0.3106888075583014,172.71422916932462,0.9150856070588236,-0.2651399999999739,-0.8778149999999982,0.916983311639303,-0.439739999999972,0.1544270000000018,0.4660675551129642,-0.3818500000000426,-0.9659499999999994,1.038686105134767,-0.5311700000000883,0.0144960000000011,0.531367766162094,-0.2684500000000298,-0.7926469999999988,0.8368719550259849,-0.365380000000016,0.2156090000000006,0.424252030379363,-0.3070099999999911,-1.1201930000000004,1.1615022588652144,-0.3680499999999256,-0.4492940000000018,0.5807976419855257,-0.0485400000000026,-0.7184370000000015,0.72007489511092,-0.03519,-0.0166850000000025,0.0389451579146893,0.0479500000000143,-0.8542859999999948,0.8556306284232656,-0.0007200000000011,-0.5162959999999899,0.5162965020373366,-0.1187399999999456,-0.2519910000000038,0.278565345441584,-0.1616199999999139,0.1219179999999937,0.2024475811758951,-0.3696999999999661,-0.3500659999999982,0.5091407412061755,-0.4110699999999951,0.0438979999999986,0.4134072801777878,-0.4330800000000181,1.0916899999999998,1.1744553386570369,-0.673560000000009,1.4219500000000096,1.5734118583829344,-0.6528299999999945,0.9625860000000016,1.1630816034552331,-0.7872899999999845,0.379706000000013,0.8740721884009269,-1.62045999999998,3.065494000000001,3.467440565552053,-1.663769999999943,2.7897240000000068,3.2481826625169723,0.1538000000000465,0.4640449999999987,0.4888682869904869,0.1818000000000665,0.4070700000000045,0.4458219654750401,0.616800000000012,0.7070099999999968,0.9382459059862772,0.4284300000000485,0.7241300000000024,0.8413777521423091,-0.8999499999999898,0.5384500000000116,1.0487318079471006,-0.4022499999999809,-0.7116399999999885,0.8174573702034671,3.513220000000046,0.1135099999999909,3.515053241204225,1.989500000000021,-0.5563999999999965,2.06583910554527,-0.952639999999974,1.4604799999999898,1.7437100676431043,0.3334200000000464,-0.5216900000000351,0.6191359725456659,6.621039999999994,0.5045499999999947,6.640236545794126,4.496499999999969,-0.3851599999999848,4.512965818128884,0.5855274999999978,0.5656000000000034,115.0363063,0.444188652403415,47.6028678,0.5483097672877613,26.431586,1.551056713755556,-0.03537294,0.1962215739999999,0.0301360995459703,0,0
28,933.3333333333334,503.69696,23.757172,0.96325773,508.80972,19.267334,0.94748545,500.38843,19.969757,0.83091444,521.5122,19.118347,0.8779566,499.57217,21.202087,0.40476644,536.383,44.501,0.9955894,497.3659,48.968727,0.97825134,552.4288,78.44728,0.98562676,489.7351,86.1712,0.8958508,552.34875,115.37108,0.9720383,490.36722,120.912186,0.8819983,530.6788,115.39703,0.9967347,507.16647,116.7923,0.9930293,530.7254,168.32263,0.99346817,515.538,169.74025,0.98736143,530.36444,216.52887,0.9727768,521.8328,217.05345,0.9602594,1.0021634,-0.07639573,0.98921419,0.14124613,154.5765194768422,167.36613416323868,179.5205365839529,178.5938427555525,1.6914725815334082,116.094665,46.7348635,23.757172,62.69370000000004,197.935103,0.3167386619808482,173.46768918717552,0.9198450211764706,-0.6897000000000162,-0.7348099999999995,1.007785605225646,-0.4245600000000422,0.1430049999999987,0.4479973477879478,-0.6871799999999553,-0.4877779999999987,0.8427002608780522,-0.3053299999999126,0.4781720000000007,0.5673401717523159,-0.1879699999999502,-0.7512059999999998,0.7743663056564257,0.0804800000000796,0.0414409999999989,0.0905228528108384,-0.8223299999999654,-0.1587449999999997,0.8375121515088262,-0.5153199999999742,0.9614480000000007,1.0908423163335637,0.0475100000000452,-1.002274,1.00339940760198,0.0960500000000479,-0.2838369999999983,0.2996482021788355,-0.6106499999999642,0.1286859999999947,0.6240621035569737,-0.6585999999999785,0.9829719999999896,1.1832108488278623,-1.4286000000000172,-0.2873689999999982,1.457216148058018,-1.3098600000000715,-0.0353779999999943,1.3103376749846534,-0.7024000000000115,1.3721900000000034,1.5415158630711607,-0.3327000000000453,1.7222560000000016,1.7540966391667352,-1.423560000000009,1.923010000000005,2.392590757672537,-0.9904799999999908,0.8313200000000052,1.29311390557831,-0.0952800000000024,4.35008400000001,4.35112733500826,0.557549999999992,3.387498000000008,3.433075108776976,-2.351100000000031,4.990372000000008,5.516473865467344,-0.7306400000000508,1.9248780000000068,2.0588807941413463,0.8994999999999891,0.4798600000000022,1.019492947302718,0.7456999999999425,0.0158150000000034,0.7458676854676802,0.4945700000000101,0.4759600000000006,0.6863944977197957,-0.1222300000000018,-0.2310499999999962,0.2613891263997007,1.33075000000008,0.6726099999999917,1.4910733632521915,2.23070000000007,0.13415999999998,2.2347307210490275,1.050899999999956,0.4131000000000142,1.129177762799073,-2.4623200000000907,0.2995900000000233,2.4804785728767063,2.0978399999999056,-1.9219799999999907,2.845160766283615,3.0504799999998795,-3.3824599999999805,4.554828633658914,2.518100000000004,-1.691849999999988,3.0336750044294427,-4.10293999999999,-2.196399999999983,4.653846753342856,0.4779099999999943,-0.1076175000000034,115.2255299,0.6553074745568407,47.293676000000005,0.5045754272759386,25.5407932,1.5525173666807617,-0.0073693599999999,0.181630236,0.0362876580103757,0,0
29,966.6666666666666,503.1132,23.416077,0.96776575,508.21387,18.871552,0.94657296,499.7324,19.690796,0.8529473,521.002,18.721481,0.8696771,498.8289,21.02916,0.45684978,536.04395,44.165558,0.99584466,496.75894,49.08313,0.9849257,552.239,78.17253,0.9863262,489.3852,86.64573,0.9316192,552.06934,115.688385,0.9749181,489.32184,121.32158,0.9188322,531.2969,115.388695,0.9969121,507.64447,117.0396,0.9943668,531.4292,168.83128,0.9929456,516.9611,170.4137,0.988294,531.2534,218.00916,0.967195,524.3605,218.78363,0.9567461,1.04476263,-0.13068337,1.01991987,0.18497102,154.2758228342731,168.99844741772108,179.65333908037786,178.79599198411182,2.525397321181812,116.2141475,46.624344,23.416077,62.91716000000002,200.062149,0.3144880728313678,172.86500958884454,0.9283963852941176,-0.5837599999999838,-0.3410949999999992,0.6761076368633774,0.1059400000000323,0.3937150000000002,0.4077190022858967,-0.5958500000000413,-0.3957820000000005,0.7153185402490625,0.0913299999999139,0.0919959999999981,0.1296319131849251,-0.6560300000000439,-0.2789610000000024,0.7128776896642641,-0.4680600000000936,0.4722449999999973,0.6649026271756528,-0.5102000000000544,-0.3968659999999993,0.6463796577523575,0.312129999999911,-0.2381209999999995,0.3925897955130065,-0.7432700000000523,-0.1729269999999978,0.7631212487076199,-0.7907800000000975,0.829347000000002,1.1459273340003535,-0.3390500000000429,-0.3354420000000004,0.4769446905711703,0.2715999999999212,-0.4641279999999952,0.5377558557412023,-0.606960000000015,0.1144029999999958,0.6176475435141123,0.8216400000000021,0.401771999999994,0.9146108623802796,-0.1897999999999911,-0.2747500000000116,0.3339335300625006,0.5126000000000204,-1.646940000000015,1.724868146728923,-0.349899999999991,0.4745300000000014,0.5895835232602715,1.073660000000018,-1.4484800000000035,1.8030086261579696,-0.2794099999999844,0.3173049999999904,0.4227912145787625,-0.1841299999999819,-4.032779000000019,4.036980346712274,-1.045379999999966,0.4093939999999918,1.1226855265994669,1.3057200000000648,-4.580978000000016,4.7634298729890325,0.6181000000000267,-0.0083350000000024,0.618156195653682,-0.2813999999999623,-0.4881950000000046,0.5634894125225276,0.4780000000000086,0.2472999999999956,0.5381833237847546,-0.0165700000000015,-0.2286600000000049,0.2292595919476485,0.7038000000000011,0.5086499999999887,0.8683658575162833,-0.6269500000000789,-0.163960000000003,0.6480348633369195,1.4230999999999767,0.6734500000000025,1.574404176982498,0.3722000000000207,0.2603499999999883,0.4542190688423476,0.888960000000111,1.4802899999999966,1.7267044812880366,-1.2088799999997946,3.4022699999999872,3.6106553431890194,2.5276999999999816,1.73017999999999,3.0631340359833867,0.0095999999999776,3.422029999999978,3.4220434656649013,0.1194825000000037,-0.3584274999999906,115.59361900000002,0.5683347615969001,47.0528098,0.4717213721980222,24.6874134,1.217110005511805,0.04372489,0.175783876,0.0318059132810297,0,0
30,1000.0,502.53436,23.618652,0.9683575,507.49686,18.893738,0.94431704,498.87955,19.993576,0.861613,520.3069,18.34578,0.8606283,497.84976,21.343796,0.48151094,535.9782,43.663353,0.9955492,496.20615,49.098488,0.98660177,551.89087,77.64151,0.984939,488.56305,86.20934,0.94108504,551.3806,115.3353,0.9732327,488.37015,120.07181,0.9278563,531.7185,115.47869,0.996858,507.8142,117.33869,0.9948021,531.4456,169.49211,0.9927598,517.48676,171.22995,0.9890956,530.69165,218.87445,0.9662222,524.62164,219.64258,0.9581727,1.04476263,-0.13068337,1.01991987,0.18497102,154.12976079928077,168.68885577502104,179.41477808618788,178.2084225736202,3.003422226250237,116.40869,46.3809205,23.618652,63.520719999999926,201.2968,0.3155575234402256,172.21832454766422,0.93080007,-0.5788400000000138,0.2025749999999995,0.613263708550421,0.00491999999997,0.5436699999999988,0.5436922615781821,-0.7170099999999593,0.0221859999999978,0.7173531617661844,-0.121159999999918,0.4179679999999983,0.4351746713952671,-0.8528499999999894,0.302780000000002,0.9050021275665506,-0.1968199999999456,0.5817410000000045,0.6141341087099657,-0.6950999999999112,-0.3757009999999994,0.7901362233190401,-0.1848999999998568,0.0211649999999998,0.1861074077648363,-0.9791399999999726,0.3146360000000001,1.0284507533644702,-0.2358699999999203,0.4875629999999979,0.5416201029032808,-0.0657499999999799,-0.5022049999999965,0.506490794116728,0.2733000000000629,-0.166762999999996,0.3201605662304979,-0.5527900000000159,0.0153580000000062,0.5530033022180045,0.0541699999999991,-0.0990449999999896,0.1128906591574247,-0.3481300000000829,-0.531019999999998,0.6349619967368564,-0.1583300000000918,-0.2562699999999864,0.301235293085027,-0.8221500000000219,-0.4363900000000029,0.9307882974124884,-0.4722500000000309,-0.9109200000000044,1.0260581410914478,-0.6887400000000525,-0.353084999999993,0.7739714496188264,-0.4093300000000681,-0.6703899999999834,0.7854767985116006,-0.951689999999985,-1.249769999999998,1.5708720218400882,0.0936899999999809,-1.65916399999999,1.6618071473537364,0.4215999999998985,0.0899950000000018,0.4310982022984029,-0.1965000000001282,0.0983300000000042,0.2197294675278016,0.1697300000000154,0.2990900000000067,0.3438940258277385,-0.3082699999999931,0.0517900000000111,0.3125901421990094,0.0163999999999759,0.6608300000000042,0.6610334703326336,-0.6874000000000251,0.1521800000000155,0.7040436864286471,0.5256600000000162,0.8162499999999966,0.9708668797008224,-0.8974399999999605,0.142799999999994,0.908730099424426,-0.5617500000000746,0.8652899999999875,1.0316442442043974,-1.4507100000001856,-0.6150000000000091,1.5756854077196214,0.2611399999999548,0.8589500000000214,0.8977690137780504,-2.2665600000000268,-0.8712299999999686,2.428237209685262,0.1945425000000114,0.0750600000000076,115.873097,0.5537876758780547,46.7843353,0.3645473001458366,24.130736,0.8028524779915261,0.0,0.168758418,0.0219106922080813,0,0
31,1033.3333333333337,501.16315,23.715973,0.97053796,506.19894,18.884125,0.9485053,497.4495,20.043411,0.8701425,519.4015,18.02951,0.8660205,496.54056,21.23227,0.4865042,535.7463,43.095993,0.9955914,495.28625,49.251663,0.9867726,551.66425,76.828636,0.9847209,487.6922,86.55935,0.9412995,550.4988,113.79109,0.9727907,487.4115,118.39053,0.92799664,532.47504,115.87897,0.9967638,507.99387,118.078064,0.994686,533.30634,170.61264,0.99238175,517.8033,172.98932,0.9886545,531.8369,219.63667,0.9638905,523.9997,221.32393,0.95563,1.01621977,0.03561859,1.01083098,0.09825818,152.93207343723088,168.9997647094475,177.41299055491663,177.17679369618705,3.812368864757632,116.978517,46.173828,23.715973,64.25275000000005,203.29442,0.3160576157670359,171.34924936770838,0.9319346323529412,-1.3712100000000191,0.0973210000000008,1.3746593182098077,-0.7923700000000053,-0.1052539999999986,0.799330107912875,-1.2979200000000333,-0.009612999999998,1.297955598689372,-0.580910000000074,-0.0317989999999959,0.5817796872537625,-1.4300499999999945,0.049834999999998,1.430918072331531,-0.5772000000000048,-0.2529450000000039,0.6301912511492107,-0.905399999999986,-0.3162700000000029,0.9590494632186478,-0.2103000000000747,0.0594309999999964,0.2185363442565813,-1.3091999999999755,-0.1115260000000013,1.3139416610625971,-0.3300600000000031,-0.4261620000000015,0.5390302902843247,-0.231899999999996,-0.5673600000000008,0.6129233064584826,-0.166150000000016,-0.0651550000000042,0.1784684748772339,-0.9198999999999842,0.1531749999999974,0.9325655958831904,-0.3671099999999683,0.1378169999999912,0.3921266091315077,-0.2266199999999116,-0.8128739999999937,0.8438724810514617,0.1215100000001712,-0.2818539999999956,0.3069305416800992,-0.8708499999999617,0.3500099999999975,0.9385556576996016,-0.0486999999999397,0.7864000000000004,0.7879064982597839,-0.8817999999999984,-1.5442100000000067,1.7782451361103222,-0.1930599999999458,-1.1911250000000138,1.2066693537274458,-0.9586500000000342,-1.681280000000001,1.935384266986809,-0.0069600000000491,-0.4315100000000029,0.43156612668281,0.7565400000000864,0.4002799999999951,0.8559070335031292,0.3349400000001878,0.3102849999999932,0.4565759354424208,0.1796699999999873,0.739373999999998,0.7608910702432987,0.0099399999999718,0.4402839999999912,0.4403961901015853,1.8607399999999643,1.1205300000000022,2.1720821412874494,1.8443399999999883,0.459699999999998,1.9007667204578145,0.3165400000000318,1.75936999999999,1.7876186306088848,-0.2091199999999844,0.9431199999999932,0.966026142917458,1.1452500000000327,0.7622200000000134,1.3757095954088914,1.707000000000107,-0.103069999999974,1.7101088927025556,-0.621939999999995,1.6813499999999806,1.7926927193749431,-0.8830799999999499,0.8223999999999592,1.2067195392467316,0.5698269999999894,0.375284499999978,116.2625549,0.495364765053345,46.5456322,0.2643405419683132,23.7999712,0.4086617872768731,-0.08671284,0.151612368,0.0360163465376248,0,0
32,1066.6666666666667,499.63672,23.621338,0.9692851,504.68768,18.668655,0.94825864,496.04053,19.93991,0.86079216,518.52527,17.427414,0.86914206,495.66833,20.89621,0.45988402,535.6245,42.39621,0.99557084,494.81714,48.96505,0.9856904,551.3342,76.55602,0.9848877,486.95276,87.123764,0.9367624,549.7398,113.153946,0.9729254,486.84714,119.35887,0.92376477,532.91614,116.0474,0.9967694,508.2407,118.41882,0.9945267,533.5266,170.68707,0.99248624,517.88257,173.56558,0.98848677,531.8372,219.0894,0.9645462,523.91565,221.55188,0.95566547,1.22196301,0.18226892,1.19113474,0.20290313,152.80831685851206,168.5423236683869,177.3608918075998,177.24855456921247,4.282128062039555,117.23311,45.68063,23.621338,64.48705999999999,204.124466,0.3159202860282299,170.8554331675929,0.9293790747058824,-1.526429999999948,-0.0946350000000002,1.5293607580047428,-0.1552199999999288,-0.1919560000000011,0.2468610020557689,-1.511259999999993,-0.2154699999999998,1.5265431892023162,-0.2133399999999596,-0.2058570000000017,0.2964642643709078,-1.4089700000000107,-0.1035009999999978,1.412766405992523,0.0210799999999835,-0.1533359999999959,0.1547782132472075,-0.8762300000000778,-0.6020959999999995,1.0631550244983727,0.0291699999999082,-0.2858259999999966,0.2873106179311734,-0.8722300000000018,-0.3360599999999998,0.9347307080116728,0.4369699999999739,-0.2245339999999984,0.4912822997584753,-0.1218000000000074,-0.6997829999999965,0.7103037991514595,0.1100999999999885,-0.1324229999999957,0.1722145781546857,-0.4691100000000006,-0.2866130000000026,0.5497373953707371,0.4507899999999836,-0.439788,0.6297817947860872,-0.3300500000000284,-0.2726159999999993,0.4280799994814268,-0.1034300000001167,0.5402579999999944,0.5500695151196966,-0.7394400000000019,0.5644139999999993,0.9302336679544564,0.1314099999999598,0.2144040000000018,0.2514709989561226,-0.7590000000000146,-0.6371439999999922,0.9909760222810702,0.1227999999999838,0.9070660000000146,0.9153406843115968,-0.5643599999999651,0.9683399999999978,1.1207963977457978,0.3942900000000691,2.6496199999999988,2.6787965112154466,0.4411000000000058,0.1684300000000007,0.4721629749355675,-0.3154400000000805,-0.2318499999999943,0.3914802882650008,0.2468299999999885,0.3407559999999989,0.4207608589638462,0.0671600000000012,-0.398617999999999,0.4042360393680892,0.2202600000000529,0.0744300000000066,0.2324957902845217,-1.6404799999999111,-1.0460999999999956,1.9456361017414587,0.0792699999999513,0.5762600000000191,0.5816866170886298,-0.2372700000000804,-1.1831099999999708,1.2066674459021296,0.0003000000000383,-0.5472699999999975,0.5472700822263147,-1.1449499999999944,-1.309490000000011,1.739446625395564,-0.0840499999999337,0.2279500000000212,0.2429518573709584,0.5378900000000613,-1.4533999999999594,1.5497410145246682,0.2545929999999998,-0.3152339999999896,116.5858259,0.4959697561133294,46.3189172,0.4179122783229586,23.625842400000003,0.1317616251035347,0.1046449499999999,0.162469896,0.0424883521953751,0,0
33,1100.0,498.43222,23.225082,0.9691547,503.33545,17.939941,0.9450149,494.4357,19.704727,0.86828345,517.48047,16.471283,0.8570738,493.99393,21.114105,0.48172903,535.4196,41.750755,0.9949805,493.92035,49.195663,0.9868695,550.5926,76.25206,0.98234886,485.69266,87.58818,0.9444736,548.88916,112.35568,0.9695836,485.95215,119.86243,0.9307986,533.38196,115.887665,0.9966202,508.10287,118.68619,0.9948879,534.2093,170.79036,0.9921773,517.7212,174.39848,0.9893036,532.59534,218.70175,0.9638098,522.775,221.96524,0.9578883,1.22884219,0.06804379,1.22036654,0.12699869,153.55971987727494,167.44355536564322,177.2073067291841,176.26956857945115,4.833340659619267,117.2869275,45.473209,23.225082,64.89993999999996,205.493957,0.3158240788763237,169.82940519648938,0.930882214117647,-1.2045000000000528,-0.396256000000001,1.2680059414435438,0.3219299999998952,-0.3016210000000008,0.4411509407685005,-1.35223000000002,-0.7287140000000001,1.5360827017761949,0.1590299999999729,-0.5132440000000003,0.5373173591426129,-1.6048299999999929,-0.2351830000000028,1.6219711379642294,-0.1958599999999819,-0.1316820000000049,0.2360112046577328,-1.0448000000000093,-0.9561309999999992,1.4162604030195216,-0.1685699999999315,-0.3540349999999996,0.3921181277688863,-1.6744000000000483,0.2178949999999986,1.688518164256802,-0.8021700000000465,0.5539549999999984,0.9748552974288404,-0.204900000000066,-0.6454550000000054,0.6771972881111044,-0.0831000000000585,0.054327999999991,0.0992831384677618,-0.89679000000001,0.2306130000000052,0.9259668783865976,-0.4276800000000094,0.517226000000008,0.6711429933151476,-0.7416000000000622,-0.3039600000000035,0.801475041158547,-0.4115500000000338,-0.0313440000000042,0.4127418670743593,-1.2601000000000226,0.4644159999999999,1.3429572707484243,-0.5206600000000208,-0.0999979999999993,0.5301758534713001,-0.8506399999999985,-0.7982659999999981,1.1665406192482088,-0.0916399999999839,-0.1611220000000059,0.1853596193457436,-0.8949900000000071,0.5035600000000073,1.0269273458721508,-0.3306300000000419,-0.4647799999999904,0.5703828935899278,0.4658200000000079,-0.1597349999999977,0.4924464870673834,0.024720000000002,-0.3281649999999985,0.3290947365501294,-0.1378300000000081,0.2673699999999996,0.3008052954986033,-0.3846599999999966,-0.0733859999999992,0.3915977790999297,0.6826999999999543,0.103289999999987,0.6904694881744847,0.4624399999999014,0.0288599999999803,0.4633396736735455,-0.1613700000000335,0.8328999999999951,0.848388287814019,-0.2406399999999848,0.256639999999976,0.3518120225347343,0.7581399999999121,-0.3876500000000078,0.8514979636498685,0.7578399999998737,0.1596199999999896,0.7744675654924519,-1.1406500000000506,0.4133599999999831,1.2132390168883054,-1.0566000000001168,0.1854099999999618,1.0727443442406177,0.0538174999999938,-0.200775500000006,116.8242784,0.4873270067339176,46.0665863,0.4802237262677087,23.5194244,0.1975993320786351,-0.0759044399999999,0.159620408,0.0446883670312361,0,0
34,1133.3333333333333,496.81143,22.895325,0.96855986,501.66837,17.571686,0.9448113,492.94162,19.36763,0.8610865,516.12933,16.003204,0.86041826,492.92868,20.741608,0.46363452,534.93585,41.291176,0.99513334,493.14578,49.022087,0.9863935,550.5283,75.8828,0.98338723,485.30435,87.57164,0.9435759,548.17285,112.81114,0.9713298,485.73276,120.1891,0.93098557,533.56323,116.356735,0.99657947,508.05396,119.24285,0.9946786,535.07544,171.27783,0.9916823,518.00244,174.92044,0.98833734,533.2951,219.20102,0.9600811,522.7699,222.4007,0.952897,1.25751244,0.10464496,1.25180916,0.05797232,152.08652026054753,167.74973261483194,176.29525101824223,175.6031030968307,5.3225899512103245,117.7997925,45.1566315,22.895325,65.22394999999995,206.397496,0.3160113419398683,169.51911585807352,0.9290336229411764,-1.6207899999999995,-0.3297570000000007,1.6539951339556591,-0.4162899999999467,0.0664990000000003,0.4215678843329455,-1.6670799999999986,-0.3682550000000013,1.7072690096833,-0.3148499999999785,0.3604589999999987,0.4786033986308346,-1.4940799999999967,-0.337097,1.53163619499181,0.1107499999999959,-0.1019139999999971,0.1505058998710632,-1.351139999999987,-0.4680789999999994,1.429922113207906,-0.3063399999999774,0.4880519999999997,0.5762282102639421,-1.0652499999999918,-0.3724969999999992,1.128499702042044,0.6091500000000565,-0.5903919999999978,0.8483079842628303,-0.4837499999999863,-0.4595789999999979,0.6672532650658106,-0.2788499999999203,0.1858760000000074,0.3351226788445663,-0.7745699999999829,-0.1735760000000041,0.793780393229749,0.122220000000027,-0.4041890000000094,0.4222635150246991,-0.0643000000000029,-0.369259999999997,0.3748165385892119,0.6773000000000593,-0.0652999999999934,0.6804405778611968,-0.3883099999999899,-0.016539999999992,0.3886620996443979,0.8717900000000327,-0.4809559999999919,0.9956588160791072,-0.7163099999999076,0.455459999999988,0.848848530481061,0.1343300000000908,1.253725999999986,1.2609018328069754,-0.2193900000000326,0.3266699999999929,0.3935038259026329,0.6755999999999744,-0.1768900000000144,0.6983734188097157,0.1812699999999267,0.4690700000000021,0.502877199522881,-0.2845500000000811,0.6288049999999998,0.6901915897234955,-0.048909999999978,0.5566600000000079,0.5588045666420477,0.08892000000003,0.2892900000000082,0.3026474359713132,0.866139999999973,0.4874700000000018,0.9938941092993534,0.1834400000000187,0.3841800000000148,0.425728206723513,0.2812400000000252,0.5219600000000071,0.5929065518275385,0.4426100000000588,-0.310939999999988,0.5409133902022066,0.699760000000083,0.4992699999999956,0.8596130469578226,-0.0583799999998291,0.8869200000000035,0.8888393053865171,-0.0050999999999703,0.4354600000000062,0.4354898639463438,1.1355500000000802,0.0221000000000231,1.1357650340190013,0.512865000000005,0.4590475000000111,117.1414074,0.5065729160071526,45.7730438,0.5021323029551541,23.415274000000004,0.3466860362938218,-0.06902637,0.134220668,0.0601085411913671,0,0
35,1166.6666666666667,495.62976,22.754547,0.96874,500.27133,17.208344,0.94475967,491.55298,19.371094,0.85882115,514.66614,15.255157,0.8616058,491.58502,20.92871,0.45750573,534.2528,40.264313,0.99542576,492.45526,49.150734,0.98664176,550.71985,74.33361,0.984835,484.90442,87.68345,0.9459787,548.05164,111.53276,0.97384226,485.35135,120.327545,0.93479604,533.2334,115.9759,0.99686474,507.60565,119.37979,0.9950376,535.4666,170.14671,0.99226695,517.8369,174.75629,0.98899734,534.32904,218.53757,0.9620301,521.895,222.63663,0.95470846,0.99847369,-0.00073694,0.85533742,0.51511849,150.10100023531626,168.12846876754847,176.2926624933255,174.37671831897208,5.530543917679743,117.677845,44.7075235,22.754547,65.81542999999994,207.381473,0.3173640766002075,167.99727253943848,0.9295798270588236,-1.181669999999997,-0.1407780000000009,1.1900262325612796,0.4391200000000026,0.1889789999999997,0.4780579848104225,-1.397040000000004,-0.3633419999999994,1.4435159058922804,0.2700399999999945,0.0049130000000019,0.2700846888829447,-1.3886400000000094,0.003464000000001,1.3886443205140857,0.1054399999999873,0.340561000000001,0.3565100115298278,-1.4631899999999405,-0.7480469999999997,1.6433195946950871,-0.1120499999999538,-0.2799680000000002,0.3015580931163841,-1.34366,0.1871019999999994,1.3566242493793186,-0.278410000000008,0.5595989999999986,0.625030534374924,-0.6830499999999802,-1.0268629999999987,1.2332902834568067,-0.1992999999999938,-0.5672840000000008,0.6012750008573435,-0.6905199999999923,0.1286470000000008,0.7024015383019812,0.0840499999999906,0.302223000000005,0.3136927545051072,0.1915500000000065,-1.54919000000001,1.5609872064177956,0.2558500000000094,-1.179930000000013,1.2073500020292522,-0.3999299999999834,0.1118099999999913,0.415265554795946,-0.0116199999999935,0.1283499999999833,0.1288749273520476,-0.1212100000000191,-1.2783799999999983,1.2841134250914137,0.5950999999998885,-1.7338399999999865,1.8331244244730964,-0.3814099999999598,0.1384450000000043,0.405759295796129,-0.1620199999999272,-0.1882249999999885,0.24835283574981,-0.3298300000000154,-0.3808350000000047,0.5038086205346368,-0.5110999999999422,-0.8499050000000068,0.9917468018728128,-0.4483099999999922,0.1369399999999956,0.4687583809384018,-0.3994000000000142,-0.4197200000000123,0.5793834985568899,0.3911600000000135,-1.1311199999999817,1.1968452698657286,-0.4749799999999595,-1.618589999999983,1.6868430835439043,-0.1655399999999645,-0.1641500000000064,0.2331281066280734,-0.4467799999999897,-0.6861100000000135,0.8187547254825521,1.033939999999916,-0.6634500000000116,1.2284941294527385,0.3341799999998329,-1.1627200000000073,1.2097909202832964,-0.8749000000000251,0.2359299999999962,0.906152843012724,-0.8698000000000548,-0.1995300000000099,0.8923924365995598,-0.1219475000000045,-0.6348125000000095,117.3952384,0.3373440767799244,45.4383644,0.5509798821353373,23.242453,0.4262120653162212,0.4571461699999999,0.2002501619999999,0.1838207204611035,0,0
36,1200.0,495.6073,23.055954,0.97428215,499.90567,16.801132,0.9499692,490.79178,19.936562,0.88878757,514.50726,13.409546,0.8687427,490.53482,21.580658,0.5345409,535.7945,37.72706,0.996548,492.53394,49.126274,0.991376,552.6775,72.029434,0.9859489,484.96674,87.40431,0.9609294,547.84,109.72144,0.9733331,485.38068,119.93355,0.9436465,534.45,115.05548,0.9982857,507.35834,119.48728,0.9974807,538.8145,168.75381,0.99582016,517.17786,174.90283,0.99453235,539.78644,218.8139,0.97921824,520.86707,224.4093,0.9764435,0.99847369,-0.00073694,0.85533742,0.51511849,146.48091030071717,168.08830571142838,176.46560445000614,174.21340100377066,5.215055847103172,117.27138,43.426667,23.055954,67.71076,210.999754,0.3209044484435538,165.23803712885132,0.9417579452941176,-0.0224599999999668,0.3014070000000011,0.3022426694710711,1.15921000000003,0.442185000000002,1.24068344001404,-0.3656599999999912,-0.4072120000000012,0.5472922880362874,1.0313800000000128,-0.0438700000000018,1.03231258894776,-0.7611999999999739,0.5654679999999992,0.9482507574602612,0.6274400000000355,0.5620039999999982,0.8423357107567282,-0.1588800000000674,-1.845611,1.8524369942648575,1.304309999999873,-1.0975640000000002,1.7046616409703332,-1.0501999999999612,0.6519480000000009,1.2361052684556924,0.2934600000000387,0.4648460000000014,0.5497277283492475,1.5416999999999916,-2.537253,2.968920961563136,2.224749999999972,-1.510390000000001,2.689012925703385,0.078679999999963,-0.0244599999999977,0.082394380876332,0.7691999999999553,-0.1531069999999985,0.7842897382019802,1.9576500000000576,-2.3041759999999982,3.0235112967336866,1.7661000000000513,-0.7549859999999882,1.920706398749211,0.0623199999999997,-0.2791399999999981,0.2860121011425897,0.4622499999999832,-0.3909499999999895,0.6054064461169671,-0.2116399999999885,-1.811319999999995,1.823642407929794,-0.0904299999999693,-0.5329399999999964,0.540557701360355,0.029329999999959,-0.3939950000000038,0.3950851919839576,0.4107399999999188,-0.5324400000000082,0.6724579549681468,1.216600000000085,-0.9204199999999928,1.5255453242693886,1.5464300000001003,-0.5395849999999882,1.6378637663509434,-0.2473100000000272,0.1074899999999985,0.2696596673587156,0.2009999999999649,-0.029449999999997,0.2031460127592607,3.347899999999981,-1.3929000000000258,3.626100497779943,2.956739999999968,-0.2617800000000443,2.968305947169165,-0.6590400000000045,0.1465399999999874,0.6751353147332779,-0.49350000000004,0.3106899999999939,0.5831556619806033,5.457400000000007,0.2763300000000015,5.464391368569795,4.423460000000091,0.9397800000000132,4.522188056682388,-1.0279299999999694,1.772670000000005,2.049145923012794,-0.1530299999999442,1.5367400000000089,1.5443406387517005,-0.4064649999999972,-0.2845174999999926,117.453811,0.2644496810514273,44.8889322,0.8959570765847138,23.1104492,0.3354335139089657,0.0,0.283622224,0.2174542624656532,0,0
37,1233.3333333333337,494.84375,23.034027,0.9754554,499.20056,16.531609,0.9547605,490.0176,19.894196,0.88242644,514.4233,12.54174,0.8839002,490.02557,21.264694,0.49909103,536.22577,36.70189,0.9972308,492.42334,48.50933,0.9911488,553.31116,71.43692,0.9893764,485.17728,86.655556,0.95933056,548.31146,109.47854,0.97899914,485.8413,118.93645,0.9434629,535.033,114.94655,0.99868494,507.22638,119.57797,0.9978154,540.65424,168.56284,0.99679416,516.2342,175.00847,0.9952691,544.77155,219.3212,0.9834125,520.75867,224.92392,0.9797085,0.97584502,-0.25915594,0.91159023,0.23262623,146.32114574109818,168.06611884625275,178.65230465768198,175.94903640833675,5.208264962459836,117.26226,42.60561,23.034027,68.13387999999998,212.38218,0.3208078930124556,164.91385520509306,0.9415803982352944,-0.7635500000000093,-0.0219270000000015,0.7638647758792222,-0.7410900000000424,-0.3233340000000027,0.8085538099941553,-0.7051099999999906,-0.2695229999999995,0.7548660540976699,-0.3394499999999993,0.1376890000000017,0.3663121117585385,-0.7741800000000012,-0.0423659999999976,0.7753383457278517,-0.0129800000000273,-0.6078339999999969,0.6079725750031797,-0.0839599999999336,-0.8678059999999999,0.8718580935198047,0.0749200000001337,0.977805,0.9806710072317932,-0.5092500000000086,-0.315964000000001,0.5993069428898763,0.5409499999999525,-0.967912000000002,1.1088194362672186,0.4312700000000404,-1.0251700000000028,1.1121903352394502,-1.1104299999999512,1.512082999999997,1.8760196650858652,-0.1105999999999767,-0.6169440000000037,0.6267792746541636,-0.1892799999999397,-0.592484000000006,0.6219840903560029,0.6336599999999635,-0.5925139999999942,0.8675239684273552,-1.3239900000000944,1.711662000000004,2.1639631055875843,0.2105399999999804,-0.748753999999991,0.7777915171278087,0.1482199999999807,-0.4696139999999928,0.4924494668450638,0.4714599999999791,-0.2429000000000059,0.5303536005345709,0.6830999999999676,1.568419999999989,1.7107211655906762,0.4606200000000058,-0.9971000000000032,1.0983529461880692,0.4312900000000468,-0.6031049999999993,0.7414490576735798,0.58299999999997,-0.1089300000000008,0.5930891542592608,-0.633600000000115,0.811489999999992,1.0295460067914075,-0.1319599999999923,0.090689999999995,0.1601190735046798,0.1153500000000349,-0.0168000000000034,0.1165669871790816,1.839740000000006,-0.1909699999999929,1.8496250453808247,-1.5081599999999753,1.2019300000000328,1.928518164420549,-0.9436600000000226,0.1056399999999939,0.9495546351843276,-0.2846200000000181,-0.0408999999999935,0.2875436565115108,4.985110000000077,0.507300000000015,5.010855715554059,-0.4722899999999299,0.2309700000000134,0.5257423180607969,-0.1083999999999605,0.5146200000000078,0.52591282965906,0.9195300000000088,-1.2580499999999972,1.558276362972887,-0.0091199999999957,0.3973450000000014,117.459641,0.258624943176798,44.2739282,1.2151729912585212,22.992987,0.1774180892387082,-0.28249226,0.289566844,0.2150893720009603,0,0
38,1266.6666666666663,493.3824,21.569489,0.9731598,497.9778,15.3675995,0.95142764,489.19934,18.074799,0.87560797,513.29553,13.140411,0.8619284,489.54425,20.265472,0.47540691,534.93756,38.674835,0.9939666,490.88104,48.537155,0.9875159,553.9122,74.30466,0.9785735,484.82074,87.80406,0.94559675,550.0628,110.0172,0.96626073,485.8741,118.35393,0.9315725,535.6961,116.24535,0.99557495,507.38748,119.86764,0.99380517,541.2295,170.41446,0.99020654,515.9348,176.14822,0.98780614,544.71277,219.71811,0.95536226,520.16425,225.87744,0.95147693,1.10932898,-0.1859536,1.08648978,0.12478788,145.8104240027577,169.25164107050722,178.20863336301755,176.22577321512634,6.613883190103472,118.056495,43.605995,21.569489,69.09145999999998,212.737029,0.3247740179507065,167.38201522105803,0.9303087464705884,-1.4613499999999815,-1.4645379999999977,2.06891647389254,-0.6977999999999724,-1.442610999999996,1.6025140677451009,-1.222759999999994,-1.1640094999999988,1.6882121115814304,-0.5176500000000033,-0.8944864999999993,1.0334735706259024,-0.8182600000000093,-1.8193970000000024,1.994932297399845,-0.0440800000000081,-1.7770310000000045,1.7775776273797486,-1.127770000000055,0.5986709999999995,1.27682110694534,-1.0438100000001214,1.4664769999999994,1.800026140818308,-0.4813200000000392,-0.9992219999999996,1.1091048407089552,0.0279299999999693,-0.6832579999999986,0.6838286184885775,-1.2882100000000491,1.9729450000000028,2.3562675945497227,-1.7194800000000896,2.9981150000000056,3.45619805908535,-1.5423000000000116,0.0278249999999999,1.5425509782905185,-1.4317000000000348,0.6447690000000037,1.5701885088616283,0.6010400000000118,2.8677399999999977,2.930048086499606,-0.0326199999999516,3.460253999999992,3.4604077518286687,-0.3565399999999954,1.1485040000000026,1.2025731618558608,-0.5670799999999758,1.8972579999999937,1.9801938402499764,1.7513400000000274,0.5386600000000072,1.8323063038695533,1.2798800000000483,0.7815600000000131,1.4996429068282036,0.0328000000000088,-0.5825199999999882,0.5834427053275983,-0.427819999999997,0.414580000000015,0.5957403199381505,0.6630999999999858,1.2988,1.4582808542938432,0.0801000000000158,1.4077300000000008,1.410007008103153,0.1610999999999762,0.289670000000001,0.3314542485773759,0.2930599999999685,0.1989800000000059,0.3542276160888418,0.5752600000000712,1.851619999999997,1.9389225595675732,-1.264479999999935,2.04258999999999,2.402307969120486,-0.2993999999999914,1.1397500000000207,1.1784186108934471,0.6442600000000311,1.0341100000000267,1.2183818940299858,-0.0587800000000697,0.3969099999999912,0.4012388771044017,-5.043890000000147,-0.1103900000000237,5.045097846841178,-0.5944200000000137,0.9535199999999976,1.1236260618195058,-0.4860200000000532,0.4388999999999896,0.6548653681483261,0.7942350000000005,0.8033549999999963,117.6135545,0.3447844840459531,43.9004854,1.026784336264319,22.6618684,0.6225330401283217,-0.1078383499999999,0.289124682,0.2155089769225659,0,0
39,1300.0,492.0929,21.503265,0.97225237,496.55182,15.152954,0.9549327,487.9213,17.902374,0.85923874,512.11426,12.69191,0.87809044,488.7757,19.9776,0.4278313,534.3192,38.309547,0.99448085,490.42505,47.816635,0.98401606,553.3496,73.93474,0.9817711,484.95667,86.81659,0.9283302,550.5391,110.283905,0.9694187,486.4486,116.942535,0.9143695,535.1295,116.919876,0.9949503,506.6905,120.12741,0.9915878,541.9667,174.2377,0.98769265,515.3364,177.14125,0.9816667,549.3867,227.16316,0.93891865,521.27936,227.64319,0.9263764,0.9628432,0.01940599,0.93148751,0.24294334,147.46830489124156,169.18315802488578,178.82173665740245,178.08862020156164,6.455202848027436,118.523643,43.063091,21.503265,68.39293000000004,214.95128,0.3181787504676468,167.7790057090887,0.9227014388235296,-1.2895000000000325,-0.0662240000000018,1.291199391331983,0.1718499999999494,1.3983139999999956,1.4088344349482556,-1.4259799999999814,-0.2146455000000013,1.4420442611342403,-0.2032199999999875,0.9493639999999974,0.970870935241132,-1.2780400000000327,-0.1724250000000005,1.2896187894975335,-0.4597800000000234,1.6469720000000017,1.7099457351577056,-1.1812700000000405,-0.4485010000000002,1.2635473714511445,-0.0534999999999854,-1.0471719999999998,1.0485377664080573,-0.7685500000000047,-0.2878720000000001,0.8206944564720827,-0.2872299999999654,0.7113499999999995,0.7671505037474586,-0.6183599999999387,-0.3652879999999996,0.7181952468123999,0.6698500000001104,-2.3382330000000024,2.432289576672391,-0.4559899999999857,-0.7205200000000005,0.8526874870079821,1.086310000000026,-0.7483450000000005,1.319124579076994,-0.5625999999999749,-0.3699199999999933,0.6733198098971742,-1.163639999999987,-3.237659999999991,3.4404215330682826,0.1359299999999734,-0.9874700000000018,0.9967818045088886,0.4924699999999689,-2.1359740000000045,2.1920108643836573,0.4762999999999238,0.2667050000000017,0.5458875772766114,-1.2750400000001036,-0.2719550000000055,1.3037202627961515,0.5745000000000005,-1.4113949999999988,1.523839261872786,0.5416999999999916,-0.8288750000000107,0.9901881920246316,-0.566599999999994,0.6745260000000002,0.8809204757956268,-1.2296999999999798,-0.6242739999999998,1.3790866967221278,-0.6969799999999964,0.2597700000000031,0.7438155505903306,-0.8580799999999726,-0.0298999999999978,0.8586007782432724,0.7371999999999161,3.8232399999999984,3.89366510342118,0.1619399999998449,1.9716200000000013,1.9782593328479348,-0.5983999999999696,0.9930300000000044,1.1593925741093791,-0.2989999999999781,-0.1467200000000161,0.3330581907114606,4.673930000000041,7.445050000000009,8.790585370008104,4.732710000000111,7.048140000000018,8.489689122912646,1.1151099999999587,1.765749999999997,2.088382956883124,1.7095299999999725,0.8122299999999996,1.8926728174198268,0.4671479999999945,-0.3270870000000059,117.7583246,0.5395113385447874,43.4817773,0.7848388822505248,22.3834564,0.7827009629950681,0.11815546,0.326118886,0.1786301505762801,0,0
40,1333.3333333333333,490.6767,21.38768,0.9704555,494.77304,14.413864,0.9576859,486.3394,18.217896,0.81736994,511.54953,10.3826065,0.9105427,488.23062,20.223969,0.34094083,535.9004,34.933273,0.99772435,491.50665,47.598656,0.98361325,553.5521,69.41072,0.9933037,485.34534,85.53193,0.9261092,549.8989,109.78059,0.9855929,487.83923,115.30535,0.91417444,534.95013,115.18585,0.9983595,506.05353,119.54308,0.99589217,541.9961,173.61017,0.9949484,513.3775,176.0047,0.9886147,554.7166,230.28816,0.9672418,521.44055,226.57187,0.9484252,0.84156783,-0.04962038,0.78139814,0.30853067,147.71774845129627,165.98625418769973,174.22711364243398,178.3312288253917,5.105009119375216,117.364465,41.2659645,21.38768,69.37125999999995,219.9055535,0.3154593350664998,164.07673551170717,0.9229996752941176,-1.4162000000000037,-0.1155849999999993,1.420908980978377,-0.1266999999999711,-0.0493609999999975,0.1359757269551902,-1.7787800000000402,-0.7390899999999991,1.926217100043539,-0.3528000000000588,-0.5244444999999978,0.6320679343079264,-1.581899999999962,0.3155220000000014,1.6130597454787223,-0.3038599999999292,0.4879470000000019,0.5748244726948905,-0.5647299999999404,-2.3093035000000004,2.3773520202132845,0.6165400000001,-1.8608025,1.9602825091313685,-0.5450799999999845,0.2463690000000014,0.5981721245268654,0.2234700000000202,0.5342410000000015,0.5790960947727162,1.581199999999967,-3.376274000000002,3.728192532994495,2.199559999999906,-3.0109860000000026,3.728820307522957,1.0815999999999804,-0.2179789999999997,1.103346457120771,1.537589999999966,0.5025410000000008,1.61763112753832,0.2024999999999863,-4.524020000000007,4.528549791092074,0.7650999999999613,-4.154100000000014,4.223970267414303,0.3886700000000473,-1.2846600000000024,1.3421682772663206,0.2527400000000739,-0.2971900000000005,0.3901274198259302,-0.6401999999999362,-0.5033150000000006,0.8143598892534669,-1.11649999999986,-0.7700200000000024,1.3562828062021912,1.3906299999999874,-1.6371850000000023,2.148075073437838,0.8161299999999869,-0.2257900000000035,0.8467876363055735,-0.1793700000000626,-1.734026,1.743278453252957,0.3872299999999313,-2.408552,2.439481463263033,-0.6369699999999625,-0.5843299999999942,0.8643913059488425,0.0600100000000338,-0.8440999999999974,0.8462304710302033,0.0294000000000096,-0.6275299999999788,0.6282183226394897,-0.7077999999999065,-4.450769999999977,4.506698839827182,-1.9588999999999717,-1.1365499999999995,2.264737316445306,-1.3605000000000018,-2.129580000000004,2.5270677130619243,5.329899999999952,3.125,6.178467367397799,0.6559699999999111,-4.320050000000009,4.369568473362096,0.1611900000000332,-1.0713200000000145,1.0833784004215892,-0.9539199999999256,-2.8370700000000117,2.9931470981727446,-1.1591779999999972,-1.6263259999999915,117.6956486,0.5686160724270692,42.7934655,0.9357343683041216,22.110083,0.8559615231049248,0.06558733,0.2848013219999999,0.14464414292934,0,0
