frame_id,timestamp_ms,nose_x,nose_y,nose_conf,left_eye_x,left_eye_y,left_eye_conf,right_eye_x,right_eye_y,right_eye_conf,left_ear_x,left_ear_y,left_ear_conf,right_ear_x,right_ear_y,right_ear_conf,left_shoulder_x,left_shoulder_y,left_shoulder_conf,right_shoulder_x,right_shoulder_y,right_shoulder_conf,left_elbow_x,left_elbow_y,left_elbow_conf,right_elbow_x,right_elbow_y,right_elbow_conf,left_wrist_x,left_wrist_y,left_wrist_conf,right_wrist_x,right_wrist_y,right_wrist_conf,left_hip_x,left_hip_y,left_hip_conf,right_hip_x,right_hip_y,right_hip_conf,left_knee_x,left_knee_y,left_knee_conf,right_knee_x,right_knee_y,right_knee_conf,left_ankle_x,left_ankle_y,left_ankle_conf,right_ankle_x,right_ankle_y,right_ankle_conf,acc_x,acc_y,acc_z,acc_mag,left_elbow_angle,right_elbow_angle,left_knee_angle,right_knee_angle,spine_angle,hip_height,shoulder_height,head_height,bbox_width,bbox_height,bbox_aspect_ratio,shoulder_tilt,avg_confidence,nose_vx,nose_vy,nose_speed,nose_ax,nose_ay,nose_accel,left_eye_vx,left_eye_vy,left_eye_speed,left_eye_ax,left_eye_ay,left_eye_accel,right_eye_vx,right_eye_vy,right_eye_speed,right_eye_ax,right_eye_ay,right_eye_accel,left_ear_vx,left_ear_vy,left_ear_speed,left_ear_ax,left_ear_ay,left_ear_accel,right_ear_vx,right_ear_vy,right_ear_speed,right_ear_ax,right_ear_ay,right_ear_accel,left_shoulder_vx,left_shoulder_vy,left_shoulder_speed,left_shoulder_ax,left_shoulder_ay,left_shoulder_accel,right_shoulder_vx,right_shoulder_vy,right_shoulder_speed,right_shoulder_ax,right_shoulder_ay,right_shoulder_accel,left_elbow_vx,left_elbow_vy,left_elbow_speed,left_elbow_ax,left_elbow_ay,left_elbow_accel,right_elbow_vx,right_elbow_vy,right_elbow_speed,right_elbow_ax,right_elbow_ay,right_elbow_accel,left_wrist_vx,left_wrist_vy,left_wrist_speed,left_wrist_ax,left_wrist_ay,left_wrist_accel,right_wrist_vx,right_wrist_vy,right_wrist_speed,right_wrist_ax,right_wrist_ay,right_wrist_accel,left_hip_vx,left_hip_vy,left_hip_speed,left_hip_ax,left_hip_ay,left_hip_accel,right_hip_vx,right_hip_vy,right_hip_speed,right_hip_ax,right_hip_ay,right_hip_accel,left_knee_vx,left_knee_vy,left_knee_speed,left_knee_ax,left_knee_ay,left_knee_accel,right_knee_vx,right_knee_vy,right_knee_speed,right_knee_ax,right_knee_ay,right_knee_accel,left_ankle_vx,left_ankle_vy,left_ankle_speed,left_ankle_ax,left_ankle_ay,left_ankle_accel,right_ankle_vx,right_ankle_vy,right_ankle_speed,right_ankle_ax,right_ankle_ay,right_ankle_accel,hip_velocity,hip_acceleration,hip_height_mean_5,hip_height_std_5,shoulder_height_mean_5,shoulder_height_std_5,head_height_mean_5,head_height_std_5,acc_mag_diff,acc_mag_mean_5,acc_mag_std_5,label_binary,label_3class
0,0.0,535.4405,112.30861,0.93880695,538.33093,107.78262,0.95197946,533.23883,108.95755,0.58000284,548.2278,104.6981,0.9502257,537.3835,106.94545,0.21567951,564.3535,118.952034,0.9971723,551.388,121.56529,0.95652777,574.53845,145.53098,0.993505,554.5825,144.83842,0.7621449,547.6737,163.97896,0.98516613,542.3641,162.67424,0.7792945,577.3169,168.08875,0.99304813,569.16583,166.311,0.9729955,534.8507,178.01785,0.98541564,529.4032,177.43633,0.94293946,541.04083,223.11992,0.9448066,541.62463,218.86545,0.8801047,1.07872548,-0.07443057,0.99879436,-0.40064771,103.51068218627606,137.77131580648566,95.34516300357186,89.19542542164007,18.13072325165023,167.19987500000002,120.258662,112.30861,47.91370000000006,118.42182,0.4046019525404871,168.60444772122543,0.872342064117647,0.0,0.0,0.0,0.0,0.0,0.0,0.0,0.0,0.0,0.0,0.0,0.0,0.0,0.0,0.0,0.0,0.0,0.0,0.0,0.0,0.0,0.0,0.0,0.0,0.0,0.0,0.0,0.0,0.0,0.0,0.0,0.0,0.0,0.0,0.0,0.0,0.0,0.0,0.0,0.0,0.0,0.0,0.0,0.0,0.0,0.0,0.0,0.0,0.0,0.0,0.0,0.0,0.0,0.0,0.0,0.0,0.0,0.0,0.0,0.0,0.0,0.0,0.0,0.0,0.0,0.0,0.0,0.0,0.0,0.0,0.0,0.0,0.0,0.0,0.0,0.0,0.0,0.0,0.0,0.0,0.0,0.0,0.0,0.0,0.0,0.0,0.0,0.0,0.0,0.0,0.0,0.0,0.0,0.0,0.0,0.0,0.0,0.0,0.0,0.0,0.0,0.0,0.0,0.0,167.19987500000002,0.0,120.258662,0.0,112.30861,0.0,0.0,-0.40064771,0.0,0,0
1,33.333333333333336,534.27216,112.46415,0.93255997,536.9099,107.99154,0.9467275,532.14703,109.15888,0.5495245,546.58374,104.939926,0.9475337,536.5574,107.21575,0.20425318,563.18024,119.06594,0.99713093,550.5737,121.41774,0.9555598,573.062,145.79045,0.9937285,552.7143,144.37807,0.7660323,545.96735,164.29694,0.9856507,539.8651,161.58916,0.78471756,577.1382,167.19897,0.9933651,569.3084,165.33203,0.97417223,535.1597,178.1139,0.9859903,530.36127,177.07463,0.9450305,541.10474,223.35509,0.9459895,541.9934,218.20544,0.8826834,1.13401727,-0.11692723,1.04743215,-0.41857983,104.04171716223736,137.92995328648823,97.08866923710448,90.98677575235035,19.553633242607912,166.2655,120.24184,112.46415,46.77692999999999,118.415164,0.3950248264232034,169.4327167084534,0.8700382158823529,-1.1683400000000574,0.155540000000002,1.178647974248518,-1.1683400000000574,0.155540000000002,1.178647974248518,-1.4210299999999734,0.2089200000000062,1.4363056176524294,-1.4210299999999734,0.2089200000000062,1.4363056176524294,-1.0918000000000347,0.2013299999999986,1.1102076422453933,-1.0918000000000347,0.2013299999999986,1.1102076422453933,-1.6440599999999677,0.2418260000000032,1.6617500106441687,-1.6440599999999677,0.2418260000000032,1.6617500106441687,-0.8260999999999967,0.270300000000006,0.869196928204419,-0.8260999999999967,0.270300000000006,0.869196928204419,-1.1732600000000275,0.113906,1.1787763165401928,-1.1732600000000275,0.113906,1.1787763165401928,-0.8143000000000029,-0.1475500000000096,0.8275599630842514,-0.8143000000000029,-0.1475500000000096,0.8275599630842514,-1.4764499999999998,0.2594699999999932,1.4990761432962625,-1.4764499999999998,0.2594699999999932,1.4990761432962625,-1.8682000000000016,-0.4603500000000053,1.9240824728945511,-1.8682000000000016,-0.4603500000000053,1.9240824728945511,-1.706350000000043,0.3179800000000057,1.735725094276208,-1.706350000000043,0.3179800000000057,1.735725094276208,-2.499000000000024,-1.085080000000005,2.724408120381403,-2.499000000000024,-1.085080000000005,2.724408120381403,-0.1787000000000489,-0.8897800000000018,0.9075473201987986,-0.1787000000000489,-0.8897800000000018,0.9075473201987986,0.1425699999999778,-0.978970000000004,0.9892969553172604,0.1425699999999778,-0.978970000000004,0.9892969553172604,0.3090000000000827,0.096049999999991,0.3235839960505609,0.3090000000000827,0.096049999999991,0.3235839960505609,0.9580700000000206,-0.3616999999999848,1.0240727585967846,0.9580700000000206,-0.3616999999999848,1.0240727585967846,0.0639099999999643,0.2351699999999823,0.2436994398844345,0.0639099999999643,0.2351699999999823,0.2436994398844345,0.3687699999999267,-0.6600099999999998,0.756045311472762,0.3687699999999267,-0.6600099999999998,0.756045311472762,-0.934375000000017,-0.934375000000017,166.7326875,0.6607028986711824,120.250251,0.0118949502731184,112.38638,0.109983388745757,-0.0179321199999999,-0.40961377,0.0126799236530509,0,0
2,66.66666666666667,533.5474,112.959915,0.9317849,535.9987,108.46499,0.945497,531.3211,109.68405,0.54737014,545.2982,105.2422,0.9462002,535.60583,107.654205,0.20572205,562.22687,119.22392,0.99711585,549.9396,121.572784,0.9561004,572.3193,146.07735,0.99374545,551.79565,144.43672,0.7705188,545.54913,164.74686,0.98571694,538.7703,161.62398,0.7891273,577.57886,166.79741,0.9934228,570.0384,164.97572,0.9746713,534.875,177.80544,0.9862271,530.7554,176.68573,0.9463282,541.0744,223.37788,0.94696885,542.32733,217.8309,0.8853156,1.08014434,-0.09973205,0.99289887,-0.41342127,104.29398596984882,138.20237927382567,96.7081725430455,90.89053527413238,21.289376692339182,165.88656500000002,120.398352,112.959915,46.82345999999996,118.13568,0.3963532406436964,169.1777666371213,0.870696051764706,-0.7247599999999466,0.4957649999999916,0.8781002179847777,0.4435800000001109,0.3402249999999895,0.5590315438551668,-0.911200000000008,0.4734499999999997,1.0268594560600854,0.5098299999999654,0.2645299999999935,0.574371612982363,-0.8259299999999712,0.5251700000000028,0.9787562994943916,0.2658700000000635,0.3238400000000041,0.4189978550064863,-1.2855400000000827,0.302273999999997,1.3205993573662722,0.3585199999998849,0.0604479999999938,0.3635801852465515,-0.9515700000000606,0.4384550000000047,1.0477252750244788,-0.1254700000000639,0.1681549999999987,0.2098066369899093,-0.9533700000000636,0.1579800000000091,0.9663705486510462,0.2198899999999639,0.044074000000009,0.2242635270747005,-0.6340999999999894,0.1550440000000037,0.6527797882410176,0.1802000000000134,0.3025940000000133,0.3521862700844724,-0.7427000000000135,0.2869000000000028,0.7961877291192208,0.7337499999999864,0.0274300000000096,0.7342625330220659,-0.9186499999999568,0.05865,0.9205203121061049,0.9495500000000447,0.5190000000000055,1.0821303999519143,-0.4182200000000193,0.4499199999999916,0.6142767900547836,1.2881300000000238,0.1319399999999859,1.2948695148547045,-1.0947999999999638,0.0348199999999963,1.0953535832779846,1.4042000000000598,1.1199000000000012,1.796093998097029,0.4406599999999798,-0.4015599999999892,0.5961809030822554,0.6193600000000288,0.4882200000000125,0.7886479430012152,0.7300000000000182,-0.3563100000000077,0.8123157120849208,0.5874300000000403,0.6226599999999962,0.8560253971115827,-0.2847000000000435,-0.3084599999999966,0.4197638164492298,-0.5937000000001262,-0.4045099999999877,0.7184065910750959,0.3941300000000183,-0.3889000000000067,0.5536981731051852,-0.5639400000000023,-0.0272000000000218,0.5645955752571957,-0.0303400000000237,0.0227900000000147,0.037946010330496,-0.0942499999999881,-0.2123799999999676,0.2323538829027481,0.3339300000000094,-0.3745399999999961,0.5017862657546571,-0.0348399999999173,0.2854700000000036,0.2875881543109805,-0.3789349999999842,0.5554400000000328,166.45064666666667,0.6759476719083531,120.299618,0.0859188395405866,112.57755833333331,0.3401406154935514,0.0051585599999999,-0.4108829366666666,0.0092316078776632,0,0
3,100.0,532.229,113.50259,0.9046634,534.13635,108.965996,0.9197555,530.183,110.4652,0.46471682,542.7251,105.76764,0.9287589,534.7964,108.83055,0.17779413,561.2712,119.22616,0.99613154,548.6272,122.49747,0.9484512,572.24176,145.6557,0.9926322,549.8722,145.36879,0.7707071,545.2629,164.54831,0.9840842,537.7357,161.9756,0.79144514,578.0605,166.61447,0.99257624,570.36523,165.2036,0.9732569,534.27747,176.98468,0.98475164,530.4113,176.40456,0.94414806,540.93567,223.32861,0.9424699,541.6832,218.05815,0.88038975,1.08204452,-0.21076379,0.91945088,-0.53010286,102.4598724952846,140.72429826686405,95.14950688474237,90.51850117323627,23.15313933574068,165.90903500000002,120.861815,113.50259,47.877500000000055,117.56097,0.4072567587077862,165.49426931108695,0.8586313305882354,-1.318399999999997,0.5426750000000027,1.4257190170664746,-0.5936400000000503,0.0469100000000111,0.595490552150125,-1.862349999999992,0.5010060000000038,1.9285628158128465,-0.9511499999999842,0.0275560000000041,0.95154908209507,-1.1381000000000083,0.7811499999999967,1.380386515618004,-0.3121700000000373,0.2559799999999939,0.4037026991487921,-2.573099999999954,0.5254400000000032,2.6262008307819427,-1.2875599999998713,0.2231660000000062,1.3067569847357507,-0.8094300000000203,1.1763449999999978,1.427923136560588,0.1421400000000403,0.737889999999993,0.7514555420648658,-0.955669999999941,0.0022399999999862,0.955672625170297,-0.0022999999998774,-0.1557400000000228,0.1557569825080293,-1.312400000000025,0.9246860000000084,1.6054401136747771,-0.6783000000000357,0.7696420000000046,1.0258848366966222,-0.077539999999999,-0.4216499999999996,0.4287203915140957,0.6651600000000144,-0.7085500000000025,0.9718440863122144,-1.9234500000000023,0.9320699999999816,2.137384941324322,-1.0048000000000457,0.8734199999999817,1.3313472636393782,-0.2862300000000459,-0.1985500000000115,0.3483528604734442,0.1319899999999734,-0.6484700000000032,0.6617663492502449,-1.0346000000000686,0.3516199999999969,1.0927185293570068,0.0601999999998952,0.3168000000000006,0.3224690372733292,0.481640000000084,-0.1829400000000021,0.5152127067533192,0.0409800000001041,0.2186199999999871,0.2224276619487848,0.3268299999999726,0.2278799999999989,0.3984308513405828,-0.4031700000000455,0.5841900000000066,0.7098056107132744,-0.5975300000000061,-0.820760000000007,1.0152285843592166,-0.3128299999999626,-0.5123000000000104,0.6002615254203681,-0.3441000000000258,-0.281170000000003,0.4443662666089984,-0.7382300000000441,0.1077300000000036,0.7460491175519651,-0.1387300000000095,-0.049270000000007,0.1472193798384008,-0.1083899999999857,-0.0720600000000217,0.1301577339231136,-0.6441299999999046,0.2272499999999979,0.6830417405985348,-0.978059999999914,0.601789999999994,1.1483695257624285,0.0224699999999984,0.4014049999999827,166.31524375,0.6147676819793306,120.44016725,0.2897200914001651,112.80881625,0.5394917252589867,-0.1166815899999999,-0.4406879174999999,0.0600846285326462,0,0
4,133.33333333333334,530.4337,113.96954,0.89308673,532.05597,109.39453,0.9119076,528.5357,110.99245,0.42277548,540.5526,105.971405,0.92754906,533.86316,109.27229,0.16287409,559.3985,119.01923,0.9961313,548.07733,122.81566,0.9439462,571.00006,145.39867,0.9930708,549.36005,146.46042,0.76025844,544.9291,164.5297,0.9847482,536.5545,162.79852,0.78514194,576.818,166.36855,0.9926939,570.0303,165.32436,0.97255015,534.53284,177.33058,0.9845478,531.25,177.40941,0.9413582,541.39923,223.30637,0.9400862,541.56775,218.61938,0.8729365,2.06450468,-0.3043547,1.76299732,-1.03023697,102.5317701666013,138.80596834088672,96.03922847349226,93.25231998434472,23.66126244237956,165.846455,120.917445,113.96954,48.28229999999997,117.33496499999998,0.4114911491941794,161.46168808205397,0.8520977994117648,-1.7952999999999977,0.4669499999999971,1.8550321809877013,-0.4769000000000005,-0.0757250000000056,0.4828746065232684,-2.080379999999991,0.4285339999999991,2.1240579873336705,-0.2180299999999988,-0.0724720000000047,0.2297591601743011,-1.647299999999973,0.5272500000000093,1.7296213032048144,-0.5091999999999643,-0.2538999999999873,0.5689902020245667,-2.1725000000000136,0.2037650000000042,2.182034927590542,0.4005999999999403,-0.321674999999999,0.513765671902037,-0.9332399999999552,0.4417399999999958,1.032507203461512,-0.1238099999999349,-0.734605000000002,0.7449653831722564,-1.872700000000009,-0.2069299999999998,1.884098010959099,-0.917030000000068,-0.2091699999999861,0.9405828564247376,-0.5498700000000554,0.3181899999999871,0.6352966968275946,0.7625299999999697,-0.6064960000000212,0.974314835623465,-1.241700000000037,-0.2570299999999861,1.268023387363216,-1.164160000000038,0.1646200000000135,1.1757415744967483,-0.5121500000000196,1.0916300000000092,1.2058000163377176,1.411299999999983,0.1595600000000274,1.4202911967621148,-0.3337999999999965,-0.0186099999999953,0.3343183693726648,-0.0475699999999505,0.1799400000000162,0.1861217571913641,-1.1811999999999898,0.8229200000000105,1.439593958864788,-0.1465999999999212,0.4713000000000136,0.4935739559579594,-1.2425000000000637,-0.2459200000000123,1.2666028960965483,-1.7241400000001477,-0.0629800000000102,1.7252898944816522,-0.3349299999999857,0.1207600000000184,0.3560352264874852,-0.6617599999999584,-0.1071199999999805,0.670373770369889,0.2553699999999708,0.3459000000000003,0.4299542381463233,0.8528999999999769,1.1666600000000074,1.445176101933594,0.8387000000000171,1.004850000000005,1.30887020460397,1.182800000000043,1.2860200000000075,1.7472444821489983,0.4635600000000295,-0.0222400000000106,0.4640931923655289,0.6022900000000391,0.0270299999999963,0.6028962307064516,-0.1154500000000098,0.5612299999999948,0.5729815140124473,0.5286799999998948,0.3339799999999968,0.6253360558930587,-0.0625800000000254,-0.0850500000000238,166.221486,0.572194945390113,120.5356228,0.3294117615533781,113.040961,0.6983870101741594,-0.5001341100000001,-0.558597728,0.2687400956317444,0,0
5,166.66666666666666,527.8208,115.21367,0.9182441,529.8464,110.65117,0.9366302,525.6759,112.317055,0.48656058,539.04987,106.98616,0.94266224,530.311,110.58597,0.16966663,557.7245,119.40239,0.9969356,545.3313,124.5181,0.94740725,569.3765,144.98793,0.9941491,547.55695,148.31337,0.752689,543.31744,165.54678,0.9866911,535.4044,164.90898,0.7804072,576.4905,166.01912,0.99353653,568.8231,165.61656,0.97369754,534.4216,176.84534,0.9863797,529.71826,178.15811,0.94387436,541.7275,222.18585,0.94684964,540.9851,219.07935,0.8806736,1.16437019,-0.12036627,1.07936606,-0.41980806,103.7859109237725,138.44209831653407,95.27801474435978,92.38805837517414,25.722978484696704,165.81784,121.960245,115.21367,50.81460000000004,115.19969,0.4411001414925674,157.56996651880445,0.8610031982352941,-2.612900000000081,1.2441299999999984,2.8939775166542714,-0.817600000000084,0.7771800000000013,1.1280418930164515,-2.209569999999985,1.2566399999999902,2.5419173225146228,-0.1291899999999941,0.8281059999999911,0.8381226660435713,-2.859800000000064,1.3246049999999912,3.151671690710398,-1.212500000000091,0.7973549999999818,1.451182705942016,-1.5027299999999286,1.014754999999994,1.813263677164679,0.669770000000085,0.8109899999999897,1.0518063666854738,-3.552159999999958,1.313680000000005,3.787293995453709,-2.618920000000003,0.8719400000000093,2.760257475309148,-1.6739999999999782,0.3831600000000037,1.7172907690894776,0.1987000000000307,0.5900900000000036,0.6226458849940442,-2.746029999999905,1.70244000000001,3.2309414594665,-2.19615999999985,1.3842500000000229,2.5960097858250464,-1.6235599999999977,-0.4107400000000041,1.6747102499238475,-0.3818599999999605,-0.153710000000018,0.4116355471773246,-1.803099999999972,1.8529499999999928,2.585458046942528,-1.2909499999999523,0.7613199999999836,1.4987194683795404,-1.6116599999999153,1.0170800000000213,1.9057543603517664,-1.2778599999999187,1.0356900000000169,1.644864722613938,-1.1500999999999522,2.110460000000017,2.4034915064547167,0.0311000000000376,1.287540000000007,1.2879155490947458,-0.3274999999999863,-0.3494300000000123,0.4789129095148717,0.9150000000000772,-0.1035099999999999,0.9208362069880514,-1.2072000000000571,0.2921999999999798,1.2420598536303016,-0.8722700000000714,0.1714399999999614,0.888958169150895,-0.1112399999999524,-0.4852400000000045,0.4978274753365806,-0.3666099999999233,-0.8311400000000049,0.9084033199520748,-1.5317400000000134,0.7486999999999853,1.7049278921995554,-2.3704400000000305,-0.2561500000000194,2.3842396305950784,0.3282699999999749,-1.120519999999999,1.1676156316613706,-0.1352900000000545,-1.0982799999999884,1.1065813763569263,-0.5826500000000578,0.4599699999999984,0.7423297268734871,-0.467200000000048,-0.1012599999999963,0.4780475160483988,-0.028615000000002,0.0339650000000233,165.94507900000002,0.1825576154738101,120.8759394,0.6722746130520655,113.621973,1.0544464607887882,0.61042891,-0.5624297979999999,0.2660478791287209,0,0
6,200.0,526.8251,117.75696,0.90578294,528.2918,113.20386,0.92911774,524.53986,114.77302,0.43951437,536.5406,108.43033,0.94184726,529.6334,111.74271,0.16696304,554.7716,119.812,0.997033,545.7885,123.97064,0.9437875,566.5067,145.72449,0.9945326,548.83466,147.75655,0.7362767,541.33673,167.8671,0.9867312,533.0387,166.391,0.7659649,575.0992,166.85867,0.99373204,569.9854,166.20932,0.97316855,533.8019,178.71744,0.9864867,532.18835,179.07916,0.9417094,541.46814,222.94409,0.9469587,543.4619,218.00346,0.87796086,1.32852308,-0.26996434,1.06094265,-0.75265763,106.97429357070486,132.41498251358755,96.18781453234776,92.65116005872407,26.50435359778101,166.533995,121.89132,117.75696,50.55934000000002,114.51376,0.4415132256463048,155.15867500151344,0.8545627941176471,-0.9956999999999424,2.543290000000013,2.731252920199803,1.617200000000139,1.2991600000000147,2.074404142302191,-1.5546000000000504,2.552690000000013,2.988813710504591,0.6549699999999348,1.2960500000000224,1.4521471355892186,-1.13603999999998,2.455965000000006,2.7059842872465065,1.723760000000084,1.131360000000015,2.0618739018670182,-2.509270000000015,1.4441699999999995,2.895179255555703,-1.0065400000000864,0.4294150000000059,1.0943125759238896,-0.677599999999984,1.1567399999999992,1.34059284930212,2.874559999999974,-0.1569400000000058,2.878840974628479,-2.9529,0.4096100000000007,2.981174057665872,-1.2789000000000217,0.0264499999999969,1.2791734880382937,0.4571999999999434,-0.547460000000001,0.7132631292867656,3.2032299999998486,-2.249900000000011,3.914426195868186,-2.869799999999941,0.7365599999999972,2.962814991456547,-1.2462399999999434,1.147300000000001,1.693933714051368,1.2777099999999564,-0.5568199999999877,1.393768760053071,3.080809999999929,-2.4097699999999804,3.9113145755614527,-1.9807100000000448,2.320319999999981,3.050753514543594,-0.3690500000001293,1.3032399999999598,1.354486028019481,-2.3657000000000608,1.4820199999999772,2.7915801565422083,-1.2156000000001086,-0.6284400000000403,1.3684371354213956,-1.391300000000001,0.8395500000000027,1.6249799667995932,-1.0638000000000147,1.188980000000015,1.5954133885611177,1.162300000000073,0.5927599999999984,1.304724379936302,2.36950000000013,0.3005600000000186,2.388486249405809,-0.6196999999999662,1.8721000000000172,1.9720006338741436,-0.5084600000000137,2.357340000000022,2.4115520826223342,2.4700900000000274,0.921050000000008,2.6362241389153827,4.001830000000041,0.1723500000000228,4.005539647962598,-0.2593600000000151,0.7582400000000007,0.8013710171949127,-0.5876299999999901,1.87876,1.9685141997201816,2.4768000000000256,-1.0758900000000151,2.7003847007602757,3.0594500000000835,-1.5358600000000138,3.423317140158147,0.7161550000000148,0.7447700000000168,165.99877800000002,0.3012655210441219,121.2058354,0.6878538146134799,114.680535,1.9106429026835476,-0.33284957,-0.629245358,0.2628203357042664,0,0
7,233.3333333333333,524.37775,120.059906,0.90627563,525.6842,115.45368,0.9295993,522.1159,117.211136,0.44334412,533.63824,109.872345,0.9411315,527.2139,113.59543,0.16575286,552.4039,120.16597,0.99695694,543.5292,125.36134,0.94180423,565.7174,146.6867,0.9945287,547.3403,150.25931,0.73365694,540.73596,169.60033,0.9868003,531.095,168.68896,0.7649473,573.7909,167.3712,0.9934068,568.66425,167.34125,0.97173315,532.6776,178.30951,0.9855262,529.80817,180.24898,0.9374815,542.04205,222.04805,0.94340914,541.50433,219.24374,0.8695437,1.29771842,-0.27168386,1.06954024,-0.68289432,105.87104881977923,129.90194446580736,92.8139581047532,91.67995536344044,27.548103449806277,167.356225,122.763655,120.059906,51.67499999999996,112.175705,0.4606612415704338,149.65471401726285,0.853288135882353,-2.447350000000029,2.3029459999999915,3.360518159661706,-1.451650000000086,-0.2403440000000216,1.471411893670926,-2.607599999999934,2.24982,3.4440191335704937,-1.0529999999998836,-0.3028700000000128,1.0956912142112678,-2.423959999999965,2.4381159999999937,3.438021482052694,-1.2879199999999855,-0.0178490000000124,1.2880436767442955,-2.902360000000044,1.4420149999999978,3.240848782313863,-0.3930900000000292,-0.0021550000000019,0.3930959070316339,-2.4195000000000846,1.8527199999999908,3.047384394591594,-1.7419000000001006,0.6959799999999916,1.875794170584912,-2.367700000000013,0.3539700000000039,2.3940129596349444,0.5851999999999862,-0.0556399999999968,0.5878391358186214,-2.259300000000053,1.3906999999999954,2.653013942669776,-2.7164999999999964,1.9381599999999963,3.337040071021019,-0.7893000000000256,0.9622099999999988,1.2445250395633018,2.0804999999999154,0.2256500000000016,2.0927011665547592,-1.4943600000000288,2.502759999999995,2.9149475856694336,-2.772069999999985,3.059579999999982,4.128607738850933,-0.6007700000000114,1.7332300000000205,1.834396583566401,1.3799400000000333,-0.5870899999999608,1.499636313143972,-1.9436999999999216,2.297960000000017,3.0097491343299323,0.4220000000001391,0.8159400000000403,0.918608776139322,-1.308300000000031,0.5125299999999982,1.40511063297524,0.0829999999999699,-0.3270200000000045,0.3373886192508544,-1.3211499999999887,1.1319300000000112,1.7397421784275957,-2.4834500000000617,0.5391700000000128,2.541304427139795,-1.124300000000062,-0.4079300000000216,1.1960172970739835,-0.5046000000000959,-2.280030000000039,2.335199768949174,-2.380179999999996,1.1698199999999872,2.6521190894829645,-4.850270000000023,0.248769999999979,4.856645507528856,0.573910000000069,-0.8960399999999993,1.0640772385969348,0.8332700000000841,-1.65428,1.8522908009543588,-1.9575700000000325,1.2402800000000127,2.317406909306209,-4.434370000000058,2.316170000000028,5.002827277230411,0.8222299999999905,0.1060749999999757,166.29271,0.6635386488366665,121.67889599999998,0.7981873667285391,116.1005332,2.761220288999266,0.0697633099999999,-0.683139968,0.233491511979664,0,0
8,266.6666666666667,521.7789,119.99189,0.9218972,523.3275,115.453224,0.9376014,519.4171,117.18889,0.5157741,531.29785,110.9329,0.94076717,523.807,114.56222,0.19662237,549.6819,122.61206,0.9969614,539.7867,127.648026,0.950687,564.0717,149.55139,0.9939488,543.3871,152.07394,0.76197606,539.90137,170.94542,0.98568463,528.67706,168.31645,0.78351355,571.9128,168.391,0.99306023,566.09094,168.60754,0.9728035,532.55457,179.26756,0.98436904,529.3489,182.10101,0.93837667,542.4103,222.12225,0.93914497,541.6568,221.00494,0.8672519,1.23468766,-0.49644943,0.62418506,-0.94254155,103.40403545802864,129.44935071173978,92.4963331282672,92.61007239602183,29.22951779394988,168.49927,125.130043,119.99189,52.49569999999994,111.18935,0.4721288462237714,153.0270829813783,0.8635552935294117,-2.5988499999999704,-0.068016,2.599739890595951,-0.1514999999999418,-2.370961999999992,2.375797351510424,-2.356700000000046,-0.0004559999999997,2.3567000441159704,0.2508999999998877,-2.2502759999999995,2.26422014967095,-2.6988000000000056,-0.0222459999999955,2.698891684472726,-0.2748400000000401,-2.4603619999999893,2.4756652028584094,-2.3403899999999567,1.060555000000008,2.569475094279922,0.5619700000000876,-0.3814599999999899,0.6792068996263884,-3.4068999999999505,0.9667900000000031,3.541419279625002,-0.987399999999866,-0.8859299999999877,1.326586116654216,-2.72199999999998,2.446089999999998,3.659595645436785,-0.3542999999999665,2.092119999999994,2.1219082412771653,-3.74249999999995,2.286686000000003,4.38579971186506,-1.483199999999897,0.8959860000000077,1.7328223083154568,-1.6457000000000337,2.864689999999996,3.3037520013009583,-0.8564000000000078,1.902479999999997,2.0863487509043166,-3.953199999999924,1.814629999999994,4.349789911811762,-2.458839999999896,-0.688130000000001,2.5533149125204844,-0.8345899999999347,1.345089999999999,1.5829742815977423,-0.2338199999999233,-0.3881400000000212,0.4531274125452803,-2.417940000000044,-0.3725100000000054,2.446466338149826,-0.4742400000001225,-2.670470000000023,2.712252495344089,-1.8781000000000176,1.0198000000000036,2.1371129240169022,-0.5697999999999865,0.5072700000000054,0.7628858976937444,-2.573309999999992,1.266289999999998,2.867998382182241,-1.2521600000000035,0.1343599999999867,1.2593479563647234,-0.1230299999999715,0.9580500000000144,0.9659172756504673,1.0012700000000905,1.365980000000036,1.6936478303650613,-0.4592700000000604,1.8520300000000132,1.9081257961151576,1.9209099999999355,0.6822100000000262,2.0384566986325185,0.3682499999999891,0.0742000000000189,0.3756510381990109,-0.2056600000000799,0.9702400000000182,0.9917972036661872,0.1524699999999939,1.7612000000000023,1.7677874705122238,2.1100400000000263,0.5209199999999896,2.1733905419873576,1.1430450000000008,0.3208150000000103,166.81075700000002,1.133685495511205,122.5325416,1.5927690112404536,117.39839320000002,2.7599137628739725,-0.2596472299999999,-0.7656277059999999,0.2387052755928921,0,0
9,300.0,518.6501,121.08746,0.9277336,520.25415,116.44529,0.9324254,516.2527,118.35559,0.58941835,529.0021,110.91618,0.9142706,520.7325,115.0652,0.22117946,548.90375,122.44733,0.9937483,536.41034,127.19939,0.94870454,561.8495,151.97153,0.98718166,538.77185,152.90472,0.7901442,538.0877,172.03706,0.9770951,525.7228,169.2413,0.8140777,571.69885,167.14612,0.98327464,564.43475,167.33408,0.9548604,532.1945,181.27336,0.96300393,529.59674,184.45772,0.8991088,540.96387,223.10165,0.87834597,540.5605,223.83072,0.792391,1.06243178,0.01252792,1.01476131,-0.31442616,106.50279268159908,136.13450275710497,97.8370112687676,100.61478944338612,30.92372576644988,167.24009999999998,124.82336,121.08746,55.44614999999999,112.91454000000002,0.4910452587324425,159.17492058516484,0.8568802147058824,-3.1288000000000693,1.095569999999995,3.315066072478861,-0.529950000000099,1.1635859999999951,1.2785849138387697,-3.073350000000005,0.992065999999994,3.229500761860263,-0.7166499999999587,0.992521999999994,1.224208782432118,-3.1644000000000005,1.1667000000000058,3.3726274994431296,-0.4655999999999949,1.1889460000000014,1.2768617587334967,-2.295749999999998,-0.0167200000000065,2.295810885264723,0.0446399999999584,-1.0772750000000144,1.0781994969508322,-3.0745000000000573,0.502980000000008,3.1153714273582787,0.3323999999998932,-0.4638099999999951,0.5706220080753323,-0.778150000000096,-0.1647300000000058,0.7953951190447119,1.943849999999884,-2.610820000000004,3.2549860053308324,-3.376359999999977,-0.4486360000000076,3.4060359819144383,0.366139999999973,-2.7353220000000107,2.7597182724481204,-2.22219999999993,2.4201400000000035,3.285612646006785,-0.5764999999998963,-0.4445499999999924,0.727995159667888,-4.61525000000006,0.8307800000000043,4.689427254036527,-0.6620500000001357,-0.9838499999999896,1.1858629874484483,-1.813670000000002,1.091639999999984,2.116855393856645,-0.9790800000000672,-0.253450000000015,1.0113528310634916,-2.954259999999977,0.9248499999999922,3.095642044891471,-0.5363199999999324,1.2973599999999976,1.403845472977678,-0.2139499999999543,-1.2448799999999949,1.2631313537791578,1.6641500000000633,-2.2646799999999985,2.8103684322345,-1.6561900000000378,-1.27346,2.089178232631224,0.9171199999999544,-2.539749999999998,2.700266497385009,-0.3600700000000643,2.0057999999999936,2.037862616787506,-0.2370400000000927,1.0477499999999793,1.0742290370772896,0.2478399999999965,2.3567099999999925,2.369706034448147,0.707110000000057,0.5046799999999791,0.868738426973309,-1.446429999999964,0.9793999999999984,1.7468211427904954,-1.814679999999953,0.9051999999999794,2.027917784921221,-1.0962999999999283,2.825780000000009,3.030990976297998,-1.2487699999999222,1.0645800000000063,1.6409622449343009,-1.2591700000000117,-2.4022150000000124,167.089486,1.0008719945839653,123.3137246,1.5601065676479964,118.8219772,2.3551920556738377,0.6281153899999999,-0.622465544,0.2544644296159638,0,0
10,333.3333333333333,515.4261,121.68881,0.88590276,516.3547,117.50916,0.8903175,513.71564,119.01005,0.46767437,523.8734,112.928,0.8878632,519.2274,115.95439,0.1905003,544.3391,124.35269,0.9921015,534.1712,127.782715,0.9390317,558.1804,153.34485,0.9858,536.67065,153.13605,0.78440404,538.16833,174.97359,0.97411084,525.3085,170.53555,0.80649745,570.3843,166.768,0.9826422,564.8307,166.6771,0.9544587,532.0501,184.4256,0.9596597,531.3278,186.2628,0.89372486,540.84406,224.45271,0.86532557,541.46216,222.89795,0.77690446,1.58407838,-0.30582857,1.16681584,-1.02679794,111.70282246958897,141.22453287767704,102.34083934030988,104.8474251220539,34.891597483144245,166.72255,126.0677025,121.68881,56.668660000000045,111.52471,0.5081264904600384,161.3587643159971,0.8374658323529411,-3.2239999999999327,0.6013500000000107,3.2796033026113967,-0.0951999999998634,-0.4942199999999843,0.5033055219247634,-3.8994500000000016,1.0638699999999943,4.04197101417118,-0.8260999999999967,0.0718040000000002,0.8292147034489888,-2.5370599999999968,0.6544600000000003,2.6201128477987323,0.6273400000000038,-0.5122400000000056,0.8099044963451002,-5.128700000000094,2.01182,5.509172660427423,-2.832950000000096,2.0285400000000067,3.484333542314882,-1.5050999999999704,0.8891899999999993,1.7481375421001373,1.569400000000087,0.3862099999999913,1.6162223003350331,-4.564649999999915,1.9053600000000015,4.946354855052277,-3.786499999999819,2.0700900000000075,4.315420588783747,-2.2391400000000203,0.5833250000000021,2.31387467146021,1.1372199999999566,1.0319610000000097,1.535647366396635,-3.6691000000000713,1.3733200000000068,3.9176909822496895,-1.4469000000001415,-1.0468199999999968,1.7858756178414,-2.101199999999949,0.231330000000014,2.113895694895988,2.514050000000111,-0.5994499999999903,2.5845285266370244,0.0806299999999282,2.9365300000000047,2.937636743676797,1.8942999999999304,1.8448900000000208,2.6442374330040432,-0.4143000000000256,1.2942500000000052,1.3589435427934575,2.539959999999951,0.369400000000013,2.566681351784782,-1.3145499999999402,-0.3781199999999955,1.367851028767329,-1.1005999999999858,0.8667599999999993,1.4009258572815222,0.3959499999999707,-0.6569800000000043,0.767071784711172,2.0521400000000085,0.6164799999999957,2.1427380077835063,-0.144399999999905,3.152240000000006,3.155545654494641,0.2156700000001592,1.1464400000000126,1.1665497085422882,1.7310600000000704,1.805080000000004,2.500976315361714,1.483220000000074,-0.5516299999999887,1.5824781910978132,-0.1198100000000295,1.3510599999999895,1.3563618837537346,1.3266199999999344,0.3716599999999914,1.3776980002888222,0.9016599999999926,-0.932770000000005,1.297324411433006,1.997959999999921,-3.758550000000014,4.256588101296599,-0.5175499999999715,0.7416200000000401,167.27042799999998,0.7682508444723493,124.1352161,1.740256865586571,120.1170052,1.5000900244735869,-0.71237178,-0.74386352,0.2773697313643465,0,0
11,366.6666666666666,511.83548,123.94293,0.8536645,512.2183,119.96459,0.87810725,510.38632,121.22073,0.35825312,518.8928,115.08099,0.9085866,516.9699,117.40097,0.16104773,537.793,124.942505,0.9948454,533.66455,127.91176,0.9335813,551.83075,152.50314,0.99142015,536.60657,153.42659,0.7492632,537.98517,176.8508,0.97963035,524.1551,172.4527,0.765997,568.7632,165.88167,0.9908528,566.8888,166.12274,0.9683225,531.27386,184.47894,0.9786744,532.1556,186.53601,0.92583543,541.9576,224.36032,0.9176449,542.0952,221.7964,0.8362363,1.26474161,-0.07369363,1.07887477,-0.65587332,123.38318086484534,140.22009706488006,101.3878236136474,104.70076396062991,39.04366181461892,166.002205,126.4271325,123.94293,58.37687999999997,109.27933,0.5341987315057773,144.27563697104637,0.8348213488235293,-3.5906200000000013,2.2541200000000003,4.239529332225454,-0.3666200000000685,1.6527699999999896,1.6929438553301217,-4.1363999999999805,2.455430000000007,4.810295359424395,-0.2369499999999789,1.3915600000000126,1.4115893652546498,-3.329319999999996,2.2106799999999964,3.9964331252755816,-0.7922599999999989,1.5562199999999962,1.7462807895639196,-4.980599999999981,2.152990000000002,5.426024539209146,0.1481000000001131,0.1411700000000024,0.2046034674682572,-2.2574999999999363,1.446579999999997,2.681212402328414,-0.752399999999966,0.557389999999998,0.9363703178230004,-6.546100000000024,0.5898150000000015,6.572617967311452,-1.981450000000109,-1.3155450000000002,2.378403403446403,-0.506650000000036,0.1290450000000049,0.5228258166206388,1.7324899999999843,-0.4542799999999971,1.791058881918722,-6.349649999999997,-0.8417100000000062,6.405195613453189,-2.6805499999999256,-2.215030000000013,3.477313072387883,-0.0640799999999899,0.2905399999999929,0.2975226680439569,2.037119999999959,0.0592099999999788,2.037980303756597,-0.1831599999999298,1.877209999999991,1.8861243250909892,-0.2637899999998581,-1.0593200000000138,1.0916702920295829,-1.1534000000000333,1.9171499999999924,2.2373635561750014,-0.7391000000000076,0.6228999999999871,0.9665780982414176,-1.6211000000000697,-0.8863299999999867,1.847578436467638,-0.3065500000001293,-0.5082099999999912,0.5935067873243492,2.058099999999968,-0.5543600000000026,2.131452701703669,1.662149999999997,0.1026200000000017,1.6653148311655637,-0.7762400000000298,0.0533399999999915,0.778070493721517,-0.6318400000001247,-3.098900000000014,3.1626575843110567,0.8278000000000247,0.2732100000000059,0.8717204506606715,-0.9032600000000456,-1.5318699999999978,1.7783431402572665,1.1135399999999436,-0.0923899999999946,1.117366208411492,1.233349999999973,-1.4434499999999844,1.8986047837819984,0.6330399999999372,-1.1015500000000031,1.2704928351234128,-0.2686200000000553,-0.1687799999999981,0.3172434283007752,-0.7203450000000089,-0.2027950000000373,167.16406999999998,0.9179233810005496,125.0423786,1.4332714242989282,121.3541992,1.6136699311765077,0.37092462,-0.724506658,0.2799675739712689,0,0
12,400.0,509.82852,126.87259,0.84170645,509.98096,123.37599,0.8720728,508.89984,123.880615,0.3489578,516.0365,117.67751,0.8998346,514.3531,118.18651,0.14475314,534.4713,126.203125,0.99556375,531.1763,126.596375,0.9215489,547.29236,154.30423,0.9929725,535.40717,152.02856,0.7279518,535.6497,178.91817,0.98033375,522.808,171.52512,0.7357122,568.3859,163.84131,0.99256766,566.5595,162.83208,0.9711193,530.7503,183.94136,0.98165315,531.66144,182.28883,0.92775625,541.76184,224.28625,0.9264514,543.1609,217.26883,0.83944446,1.13933824,0.10022334,1.00493549,-0.52740076,130.1606178218485,137.6832700896486,102.83913786054973,100.94305948857448,43.1693221454407,163.336695,126.39975,126.87259,59.48606000000001,106.60874,0.5579848279044962,173.19408442877292,0.8294352888235295,-2.0069599999999923,2.9296599999999984,3.551168280608504,1.583660000000009,0.675539999999998,1.7217239288573605,-2.237340000000017,3.4114000000000004,4.079625011640173,1.899059999999963,0.9559699999999935,2.126101484995448,-1.486480000000029,2.6598850000000027,3.04706596640524,1.842839999999967,0.4492050000000063,1.896798459938452,-2.8562999999999192,2.596519999999998,3.8600991956683615,2.124300000000062,0.4435299999999955,2.1701081426740605,-2.616800000000012,0.7855399999999975,2.732163123168172,-0.3593000000000756,-0.6610399999999998,0.7523764826202731,-3.3216999999999643,1.260620000000003,3.552865558165658,3.22440000000006,0.6708050000000014,3.2934381287683827,-2.4882499999999936,-1.3153850000000062,2.8145382855319245,-1.9815999999999576,-1.4444300000000112,2.452165692790735,-4.538389999999936,1.801089999999988,4.882715328605526,1.8112600000000607,2.642799999999994,3.203912393870998,-1.1994000000000824,-1.3980300000000057,1.8420228665519367,-1.1353200000000925,-1.6885699999999986,2.0347530924660626,-2.3354699999999866,2.067370000000011,3.1190445392459507,-2.152310000000057,0.1901600000000201,2.1606941388591427,-1.347099999999955,-0.927580000000006,1.6355681173218957,-0.1936999999999216,-2.8447299999999984,2.851316969910564,-0.3772999999999911,-2.040360000000021,2.074951618616704,1.2438000000000784,-1.1540300000000343,1.6967096631127774,-0.3292999999999892,-3.2906600000000026,3.307095663206616,-2.387399999999957,-2.7363,3.631393183063464,-0.5235599999999749,-0.5375799999999913,0.7504047774367941,0.2526800000000548,-0.5909199999999828,0.6426769241228499,-0.494160000000079,-4.247180000000014,4.275831154056507,-1.3219600000001035,-4.52039000000002,4.709724407404371,-0.1957599999999502,-0.074070000000006,0.2093044254190087,-1.3092999999998938,0.0183199999999885,1.3094281623669628,1.0656999999999923,-4.527569999999997,4.651301602229204,0.4326600000000553,-3.426019999999994,3.4532314889100624,-2.665510000000012,-1.945165000000003,166.360164,1.9203440379245944,125.7695976,0.7454371880620904,122.716736,2.7345306756516736,0.1284725599999999,-0.693407946,0.2940284292435415,0,0
13,433.33333333333337,505.19727,127.4565,0.85466987,505.38403,124.075165,0.89514655,504.43405,124.50093,0.3496247,511.87738,118.797,0.9237545,510.5028,119.2539,0.13578495,530.3788,126.81799,0.9966793,529.00336,127.789856,0.9205158,544.49274,154.36746,0.9945623,533.0102,153.61319,0.702216,536.5904,181.44223,0.9831534,521.3481,172.68237,0.7115765,567.21124,160.48918,0.994052,566.57465,159.84962,0.9732343,531.03033,185.62376,0.9850734,532.71643,184.09003,0.9321885,541.7289,225.44711,0.93540823,543.3385,217.81613,0.8461241,1.06766093,0.06656991,0.94131332,-0.49939718,136.60237232385342,139.73149569608572,109.74989681427073,108.11846664707524,48.54145464268183,160.1694,127.303923,127.4565,62.77718999999996,106.65011,0.5886275167589835,144.75552557714832,0.831397905882353,-4.631250000000023,0.583910000000003,4.66791467901891,-2.6242900000000304,-2.345749999999996,3.5198637852337606,-4.596929999999986,0.6991749999999968,4.649796888631252,-2.3595899999999688,-2.712225000000004,3.594972798050754,-4.46578999999997,0.6203149999999908,4.508666213341227,-2.9793099999999413,-2.039570000000012,3.6105586632818607,-4.15912000000003,1.119489999999999,4.307149525440258,-1.302820000000111,-1.4770299999999992,1.9695069365961333,-3.850300000000061,1.0673900000000032,3.995513922150751,-1.2335000000000491,0.2818500000000057,1.2652911413979488,-4.092500000000086,0.6148649999999947,4.138431492513281,-0.770800000000122,-0.6457550000000083,1.0055506750160326,-2.172939999999926,1.1934810000000056,2.479125882435317,0.3153100000000677,2.508866000000012,2.528602183431807,-2.7996200000000044,0.0632300000000043,2.800333940318552,1.738769999999931,-1.7378599999999835,2.45834873288956,-2.396969999999897,1.5846300000000042,2.873415636102706,-1.1975699999998142,2.98266000000001,3.214099342039635,0.9406999999999924,2.5240599999999915,2.6936583624505803,3.276169999999979,0.4566899999999805,3.3078475818876307,-1.4598999999999478,1.1572500000000048,1.8629373506642293,-0.1127999999999929,2.084830000000011,2.087879299408863,-1.1746600000000171,-3.3521299999999883,3.5519855929465654,-0.797360000000026,-1.3117699999999672,1.5350972290053668,0.0151500000000623,-2.982460000000003,2.98249847847405,0.3444500000000516,0.3081999999999993,0.4622045461698048,0.2800300000000106,1.6824000000000012,1.705545824919404,0.8035899999999856,2.2199799999999925,2.360946439142562,1.0549899999999752,1.8012000000000228,2.087420738638962,1.5491500000000542,6.048380000000037,6.243618049408582,-0.0329400000000532,1.1608600000000138,1.1613272506920844,0.1628199999998969,1.2349300000000198,1.2456172996952215,0.177599999999984,0.5472999999999786,0.5753946906254618,-0.8881000000000085,5.074869999999976,5.151992539484095,-3.167294999999996,-0.5017849999999839,164.69419,2.9420793020009937,126.20437359999998,0.8975912072329653,124.209658,2.907194894820436,0.02800358,-0.604779072,0.2655692503675056,0,0
14,466.6666666666667,502.37393,127.11728,0.89074636,502.949,123.62317,0.9175602,501.19025,124.076324,0.44320747,510.04526,118.5107,0.92860764,506.05786,119.09723,0.1670236,527.97705,127.1613,0.99700814,525.14996,128.37476,0.9354468,542.9128,154.91533,0.9944606,530.4025,154.45103,0.7368337,537.32776,184.02829,0.9830784,520.7786,174.57161,0.7389242,565.435,159.12729,0.99415565,563.6853,158.73047,0.9753116,530.7678,186.98558,0.9848622,531.57465,185.73021,0.9355059,541.0917,226.57288,0.93262964,542.5399,219.41205,0.84584147,0.94341902,0.17760165,0.88235842,-0.2827379,140.8535115375683,143.04899898895246,114.16857761450132,112.02542398309166,50.64500155472141,158.92888,127.76803,127.11728,64.24474999999995,108.06218,0.5945165034194522,156.76974154130423,0.8471296217647059,-2.82334000000003,-0.3392200000000116,2.8436453653717404,1.8079099999999928,-0.9231300000000148,2.0299526016633984,-2.435029999999984,-0.4519949999999966,2.476624836531548,2.161900000000003,-1.1511699999999934,2.4492864223891817,-3.2438000000000216,-0.4246059999999971,3.27147194627069,1.2219899999999484,-1.044920999999988,1.607830667807045,-1.832120000000032,-0.2862999999999971,1.854354708355474,2.326999999999998,-1.405789999999996,2.7186714630679414,-4.444939999999974,-0.1566700000000054,4.447700202632792,-0.594639999999913,-1.2240600000000086,1.3608525317608509,-2.4017499999999927,0.3433100000000024,2.4261625705215977,1.6907500000000937,-0.2715549999999922,1.7124186639152563,-3.853400000000079,0.5849040000000088,3.897538229346393,-1.6804600000001528,-0.6085769999999968,1.7872637680346766,-1.5799400000000787,0.5478700000000174,1.672235611539315,1.2196799999999255,0.484640000000013,1.312438658376014,-2.6077000000000226,0.8378399999999999,2.7389916311664986,-0.2107300000001259,-0.7467900000000043,0.7759525997121599,0.7373599999999669,2.586060000000004,2.6891273850823745,-0.2033400000000256,0.0620000000000118,0.2125821149579895,-0.5695000000000618,1.889240000000001,1.9732100819730456,0.890399999999886,0.7319899999999961,1.1526584576967245,-1.7762400000000298,-1.3618900000000167,2.238252199753225,-0.6015800000000127,1.990239999999972,2.0791714104421266,-2.889350000000036,-1.1191499999999903,3.0985222518162083,-2.9045000000000982,1.863310000000013,3.4508034435621826,-0.2625300000000834,1.3618199999999945,1.3868942689693504,-0.5425600000000941,-0.3205800000000067,0.6301927403581434,-1.141779999999926,1.6401799999999866,1.998462409153544,-2.1967699999999013,-0.1610200000000361,2.20266335904958,-0.6372000000000071,1.1257699999999886,1.2935926456578144,-0.6042599999999538,-0.0350900000000251,0.6052779986914657,-0.7985999999999649,1.5959200000000069,1.7845791118356074,-0.9761999999999488,1.048620000000028,1.432679428343954,-1.2405200000000036,1.926774999999992,163.031946,3.448376015147248,126.7933076,0.7117384339249572,125.415622,2.5120473782892634,0.21665928,-0.5984414200000001,0.2744599154498358,0,0
15,500.0,501.20984,129.1149,0.89589536,501.48584,125.545074,0.9145535,499.5866,126.17204,0.48078138,508.21164,120.10225,0.9174372,503.12567,121.20102,0.19056363,526.97614,128.33775,0.99681586,521.68805,129.3954,0.9431935,542.5394,156.30339,0.99382496,527.0419,154.90901,0.76827097,534.6695,185.62749,0.98166245,517.78937,174.99634,0.7646414,564.52704,157.31961,0.99423826,561.2053,156.72719,0.977996,530.82465,187.45903,0.985466,531.35486,184.9592,0.943663,541.5709,227.14693,0.9362624,543.3801,217.90036,0.8619082,0.93094978,0.23459139,0.84968758,-0.29944179,135.88062395820438,143.41732485141438,116.65504355474516,113.34918620926604,53.84442417048703,157.0234,128.866575,129.1149,64.94044000000008,107.04468,0.6066666684727668,168.6897341456837,0.8557161217647058,-1.1640899999999874,1.997620000000012,2.3120534579676177,1.6592500000000427,2.336840000000024,2.8659957690304174,-1.4631600000000162,1.9219039999999976,2.415481767850057,0.9718699999999671,2.3738989999999944,2.565136986420201,-1.603650000000016,2.095715999999996,2.6388859155249653,1.6401500000000055,2.520321999999993,3.0070109754013177,-1.8336199999999965,1.591549999999998,2.428001998948926,-0.0014999999999645,1.8778499999999951,1.877850599089284,-2.9321899999999914,2.103790000000004,3.608832298708263,1.5127499999999827,2.260460000000009,2.7199433770025414,-1.0009099999999762,1.1764500000000029,1.54462145220114,1.4008400000000163,0.8331400000000002,1.6298696160122892,-3.461909999999989,1.020639999999986,3.609228014091088,0.3914900000000898,0.4357359999999772,0.5857732341068944,-0.3733999999999469,1.388059999999996,1.4374067356179838,1.2065400000001318,0.8401899999999785,1.4702578031421163,-3.3605999999999767,0.457979999999992,3.391663019876803,-0.7528999999999542,-0.3798600000000078,0.8432983040418953,-2.658260000000041,1.5991999999999962,3.102222891347462,-3.395620000000008,-0.9868600000000072,3.536117623043678,-2.9892300000000205,0.4247300000000109,3.019253478229367,-2.419729999999958,-1.46450999999999,2.8284064087396934,-0.9079599999998892,-1.8076799999999764,2.022893557258936,0.8682800000001407,-0.4457899999999597,0.9760322138639732,-2.480000000000018,-2.003279999999989,3.1880292907061016,0.4093500000000176,-0.884129999999999,0.974296299592692,0.056850000000054,0.4734500000000139,0.4768509463134359,0.3193800000001374,-0.8883699999999806,0.9440364618488278,-0.219789999999989,-0.7710099999999898,0.8017256788952063,0.921989999999937,-2.4111899999999764,2.5814536168987754,0.4792000000001053,0.5740499999999997,0.7477740584562296,1.1164000000001124,-0.5517199999999889,1.245288688778726,0.8401999999999816,-1.511689999999987,1.7294920341244508,1.6387999999999463,-3.107609999999994,3.5132471236876843,-1.905479999999983,-0.6649599999999793,161.09211599999998,3.5788459582724297,127.3530821,1.0285285472228487,126.90084000000002,1.8713428082128436,-0.01670389,-0.45297019,0.1592286543621982,0,0
16,533.3333333333334,498.05716,129.80226,0.8840208,498.32007,126.160736,0.8992675,496.45297,127.098434,0.4635296,505.4493,120.83632,0.903449,499.89563,122.65065,0.1836621,525.1889,128.93327,0.996407,517.68695,130.81245,0.9436141,542.5387,156.37973,0.99326307,523.92596,155.94742,0.7877046,535.6545,186.32837,0.9808497,518.1695,175.8664,0.7817451,562.05,157.55879,0.99460006,557.23346,157.48622,0.980716,530.2394,188.02516,0.9867229,530.2731,186.34145,0.95204926,541.8542,227.25159,0.94242954,543.95087,219.1404,0.87963665,0.94787579,0.22673074,0.84624854,-0.36183573,134.75616846762102,149.94080566964672,117.26965389892604,114.30733290977228,54.10521461478315,157.522505,129.87286,129.80226,65.59702999999996,106.41527,0.6164249678037278,165.93721721719038,0.8560980576470589,-3.1526799999999757,0.687359999999984,3.226740608105929,-1.988589999999988,-1.310260000000028,2.3814431455947096,-3.165770000000009,0.6156620000000004,3.2250797495789243,-1.7026099999999929,-1.3062419999999977,2.14596108414481,-3.1336299999999824,0.926394000000002,3.267696867846816,-1.5299799999999664,-1.169321999999994,1.925656443939023,-2.7623399999999947,0.7340700000000027,2.858212910281523,-0.9287199999999984,-0.8574799999999954,1.2640382861290196,-3.230040000000031,1.449629999999999,3.5404216611161154,-0.2978500000000394,-0.6541600000000045,0.7187766886175633,-1.787239999999997,0.5955199999999934,1.8838447090989163,-0.7863300000000208,-0.5809300000000093,0.9776474486235024,-4.001099999999951,1.4170500000000177,4.244623883514258,-0.5391899999999623,0.3964100000000314,0.6692284693585474,-0.0007000000000516,0.0763399999999876,0.0763432092592274,0.3726999999998952,-1.3117200000000082,1.363640219559376,-3.1159400000000232,1.038409999999999,3.2844143179112075,0.2446599999999534,0.5804300000000069,0.6298868950057503,0.9850000000000136,0.7008800000000122,1.208907678195504,3.643260000000055,-0.898319999999984,3.752375547569882,0.3801300000000083,0.8700599999999952,0.949475234274174,3.3693600000000288,0.4453299999999842,3.398662327813721,-2.477040000000102,0.2391799999999762,2.4885606751695835,-1.5690800000002127,2.0468599999999526,2.5790788871223915,-3.971839999999929,0.7590299999999957,4.043716054138746,-1.491839999999911,2.762309999999985,3.139417640534571,-0.5852499999999736,0.5661299999999869,0.8142608546405472,-0.6421000000000276,0.092679999999973,0.6487541848805528,-1.0817600000000311,1.382249999999999,1.7552264127741652,-0.8619700000000421,2.153259999999989,2.3193794231431872,0.2832999999999401,0.1046599999999955,0.3020142473459905,-0.1959000000001651,-0.4693900000000042,0.5086293169883827,0.5707700000000386,1.2400399999999934,1.3650925223222152,-0.269429999999943,2.7517299999999807,2.764888879828602,0.4991049999999859,2.404584999999969,159.396176,2.524115679677347,128.04222760000002,1.355431139208707,128.07270599999998,1.304832600558355,-0.06239394,-0.394162672,0.1132025245401781,0,0
17,566.6666666666666,494.84103,130.2921,0.8480619,495.13998,126.80655,0.86604565,493.57108,127.710464,0.39212105,502.68448,122.18463,0.88417697,497.32758,123.832214,0.15548848,523.05304,130.52888,0.9957105,514.3206,131.7363,0.9355169,540.8227,157.73366,0.99274254,520.83777,155.97849,0.78840137,533.38586,186.67328,0.9800397,519.64636,177.2893,0.78403395,560.01013,156.6189,0.9951626,554.05145,156.58258,0.9831586,530.15216,188.60576,0.98863846,528.60626,188.20483,0.96035403,541.63025,225.65247,0.9513704,541.4913,220.36621,0.8993901,0.88213234,0.13436806,0.84256386,-0.22402864,132.43626951676924,161.75274299143803,119.75709973918926,119.34485649531784,56.407800023174026,156.60074,131.13259,130.2921,66.43905000000001,103.46784,0.642122705546741,172.12772208778864,0.8470831294117648,-3.216130000000021,0.4898400000000151,3.2532192367715016,-0.0634500000000457,-0.1975199999999688,0.2074609671721249,-3.180090000000007,0.6458140000000014,3.2450035640498216,-0.0143199999999978,0.030152000000001,0.0333797169550612,-2.8818899999999985,0.6120300000000043,2.9461620276216984,0.2517399999999838,-0.3143639999999976,0.4027378205433287,-2.764819999999986,1.348309999999998,3.076063960404581,-0.0024799999999913,0.6142399999999952,0.6142450064917044,-2.568049999999971,1.1815639999999945,2.826831139031095,0.6619900000000598,-0.2680660000000046,0.714205951008588,-2.13585999999998,1.5956099999999935,2.666058741232063,-0.3486199999999826,1.00009,1.0591109066098736,-3.3663500000000117,0.9238499999999874,3.4908181197249526,0.63474999999994,-0.49320000000003,0.8038369253150501,-1.7159999999998945,1.3539299999999912,2.1858139090278508,-1.7152999999998428,1.2775900000000036,2.1388058112179023,-3.088190000000054,0.0310699999999997,3.088346292273639,0.027749999999969,-1.0073399999999992,1.0077221532247849,-2.268640000000005,0.3449099999999987,2.294709209834662,-3.2536400000000185,-0.3559700000000134,3.2730548254650627,1.4768599999999878,1.4228999999999985,2.050794936018704,1.0967299999999796,0.5528400000000033,1.2281892193387625,-2.039869999999951,-0.9398899999999912,2.245988163147745,0.437170000000151,-1.1790699999999674,1.2575069279332245,-3.182009999999991,-0.9036399999999958,3.3078320528255265,0.7898299999999381,-1.6626699999999914,1.8407343528602584,-0.0872400000000652,0.580600000000004,0.5871176863287428,0.4980099999999083,0.014470000000017,0.49822017321653,-1.6668399999999792,1.863379999999978,2.5001081196619976,-0.5850799999999481,0.4811299999999789,0.7574989658738281,-0.2239499999999452,-1.5991199999999992,1.614725480352612,-0.5072499999998854,-1.7037799999999947,1.777686375854826,-2.459569999999985,1.2258099999999956,2.748107483523873,-3.030340000000024,-0.0142299999999977,3.030373410736727,-0.9217649999999936,-1.4208699999999794,158.048985,1.4745163907110783,128.9887956,1.5589601098375203,128.756608,1.4104231676769483,0.13780709,-0.333488248,0.1049351208617744,0,0
18,600.0,493.86435,132.5845,0.89001495,494.37567,129.01625,0.89402044,491.9196,129.9579,0.533882,501.94427,123.6167,0.8817458,494.05328,125.53644,0.22449057,521.37744,131.6927,0.99544597,510.88367,132.35222,0.9520269,537.4373,159.73965,0.99012566,516.1974,156.49274,0.8225686,532.66583,188.85437,0.9734298,515.80536,178.07585,0.8025519,558.243,155.65524,0.9949161,551.14233,155.4875,0.9853699,530.1287,189.87106,0.98924655,528.4652,188.53967,0.9688636,540.55664,225.75836,0.9585823,541.08856,219.49545,0.92316914,0.82722957,0.2210809,0.7649399,-0.22427429,140.89708591852303,166.54558930745225,124.38836779688305,123.36094998619711,58.588638769967154,155.57137,132.02246,132.5845,66.32340000000005,102.14166000000002,0.6493276039440953,176.40376368539737,0.869438245882353,-0.9766799999999876,2.2923999999999864,2.4917868252320288,2.239450000000033,1.8025599999999715,2.8747797926276104,-0.7643099999999663,2.209700000000012,2.338149667172741,2.4157800000000407,1.5638860000000108,2.8777999286601266,-1.6514799999999925,2.2474359999999933,2.788970197850085,1.2304100000000062,1.635405999999989,2.0465731242582024,-0.7402099999999905,1.432069999999996,1.6120593441309703,2.024609999999996,0.083759999999998,2.0263418738455714,-3.2743000000000397,1.7042260000000056,3.691263570794732,-0.7062500000000682,0.5226620000000111,0.8786151767094101,-1.6756000000000313,1.1638200000000154,2.0401255727038325,0.4602599999999484,-0.4317899999999781,0.6310957706243432,-3.436930000000018,0.6159199999999885,3.491682298162321,-0.0705800000000067,-0.3079299999999989,0.3159152122009959,-3.385400000000004,2.005990000000025,3.935089457699803,-1.6694000000001097,0.6520600000000343,1.7922272745386982,-4.640369999999962,0.5142500000000041,4.668777869999776,-1.5521799999999075,0.4831800000000044,1.625646229903578,-0.7200299999999515,2.1810899999999838,2.2968667329646832,1.548610000000053,1.8361799999999848,2.40203037543244,-3.841000000000008,0.7865500000000054,3.920706811596612,-5.317859999999996,-0.6363499999999931,5.355798381390019,-1.767129999999952,-0.9636600000000044,2.012806258063562,0.2727399999999988,-0.0237700000000131,0.2737738491894359,-2.90912000000003,-1.0950799999999958,3.108404635950758,0.2728899999999612,-0.19144,0.3333440050458068,-0.02346,1.2652999999999963,1.2655174679157892,0.0637800000000652,0.6846999999999923,0.6876641465133964,-0.1410600000000386,0.334840000000014,0.3633397159684312,1.5257799999999406,-1.528539999999964,2.1597312656901804,-1.0736100000000306,0.1058900000000164,1.0788193195341236,-0.8496600000000853,1.7050100000000157,1.904988508023132,-0.4027399999999943,-0.87075999999999,0.9593865150188312,2.056829999999991,-2.0965699999999856,2.937031735238811,-1.02937,-0.1076050000000066,157.12937900000003,1.2360051259726526,129.93250300000005,1.7053469020833474,129.782208,1.978659495699011,-0.0002456499999999,-0.27846367,0.05768212969663,0,0
19,633.3333333333333,491.95807,134.72345,0.8934305,492.44916,131.22777,0.88679403,490.07666,131.98941,0.5593349,499.98584,126.06213,0.86876094,492.14163,127.59723,0.2507497,519.5531,134.59213,0.99492055,508.55716,133.72183,0.96041495,534.6376,162.87003,0.9887084,510.37762,156.13318,0.85992986,530.4243,191.455,0.9713169,506.8209,177.42955,0.83822185,557.1328,156.50899,0.9943276,549.76227,155.65083,0.9861297,529.5177,190.8722,0.9874107,527.544,188.1354,0.9687676,539.4531,227.07016,0.94995004,539.36926,219.5716,0.9162457,0.74606989,0.14075484,0.70770451,-0.18963828,143.53807943840698,165.8745992641554,125.86557545740644,125.01464332481164,60.90288951124288,156.07991,134.15698,134.72345,67.05613999999997,101.00803,0.6638693907418112,-175.47462206455728,0.8750243482352941,-1.906279999999981,2.1389500000000226,2.865137089372867,-0.9295999999999937,-0.1534499999999639,0.9421799522914808,-1.9265100000000075,2.211519999999979,2.932961215307822,-1.1622000000000412,0.0018199999999666,1.1622014250550958,-1.8429399999999987,2.0315099999999973,2.7428927656217232,-0.1914600000000064,-0.215925999999996,0.2885844227882038,-1.9584300000000208,2.4454300000000018,3.132981958103189,-1.2182200000000307,1.0133600000000058,1.5846004095670574,-1.911649999999952,2.060789999999997,2.810918203470141,1.3626500000000874,0.3565639999999916,1.4085286325084885,-1.8243400000000063,2.8994299999999957,3.4256256013318205,-0.1487399999999752,1.73560999999998,1.7419717735083775,-2.3265099999999848,1.3696100000000229,2.699718565369359,1.1104200000000333,0.7536900000000344,1.3420436626653118,-2.79970000000003,3.1303800000000024,4.19971416103527,0.5856999999999744,1.124389999999977,1.2677923182051225,-5.819780000000037,-0.3595599999999876,5.83087666153216,-1.1794100000000751,-0.8738099999999918,1.4678391819951406,-2.241530000000012,2.600630000000024,3.4333268323595667,-1.52150000000006,0.4195400000000404,1.5782826304563504,-8.984459999999956,-0.6462999999999965,9.007675903450302,-5.143459999999948,-1.432850000000002,5.339310807033008,-1.1102000000000771,0.8537500000000193,1.4005117287978006,0.6569299999998748,1.817410000000024,1.9324947950770583,-1.3800600000000711,0.1633300000000019,1.389691437873961,1.5290599999999586,1.2584099999999978,1.980308110294928,-0.61099999999999,1.0011399999999924,1.1728607332501044,-0.58753999999999,-0.2641600000000039,0.6441923293551316,-0.9211999999999988,-0.4042699999999968,1.0060038135613578,-0.7801399999999603,-0.7391100000000108,1.074663673760286,-1.1035400000000664,1.3117999999999768,1.7142402899243985,-0.0299300000000357,1.2059099999999603,1.2062813656025306,-1.7192999999999756,0.0761499999999841,1.7209855642915526,-1.3165599999999813,0.9469099999999742,1.6217178489798718,0.5085400000000107,1.5379100000000108,156.559585,0.766598005232024,131.210293,2.039016819516257,131.303442,2.3132034304876554,0.0346360099999999,-0.259843746,0.069726403469356,0,0
20,666.6666666666666,489.19177,135.31818,0.92437625,490.55453,131.35277,0.9239186,486.38965,132.6853,0.62704915,499.6093,126.67067,0.9037971,488.98343,129.51578,0.2934528,518.2005,135.44286,0.99391335,505.6108,136.94572,0.96480024,534.1725,162.005,0.98462915,507.0909,157.14041,0.8439005,529.129,192.69556,0.9665462,502.6245,179.64671,0.8275804,553.9668,157.15459,0.9900046,546.11035,157.72516,0.9770115,527.1945,190.49397,0.9787435,522.9863,192.20216,0.9515781,538.0817,223.71776,0.923661,534.23083,221.20248,0.8838362,0.70640765,0.16949535,0.67257721,-0.13387676,139.64898439159052,164.58362336200722,123.09112044483734,124.95665748155017,60.87583462309844,157.439875,136.19429,135.31818,67.57715000000002,97.04709,0.6963335974697069,173.1926897237382,0.8799293317647059,-2.766300000000001,0.5947299999999984,2.8295086963817595,-0.86002000000002,-1.544220000000024,1.7675547541165757,-1.8946300000000065,0.125,1.8987490189332616,0.031880000000001,-2.086519999999979,2.08676353351306,-3.6870099999999866,0.6958900000000199,3.752106825797998,-1.844069999999988,-1.3356199999999774,2.2769442130407795,-0.3765399999999772,0.608540000000005,0.7156139344646587,1.581890000000044,-1.8368899999999968,2.424157759759073,-3.158200000000022,1.9185500000000104,3.6952755435150135,-1.2465500000000702,-0.1422399999999868,1.2546390397640954,-1.3525999999999383,0.8507299999999987,1.5978949567790215,0.471740000000068,-2.0486999999999966,2.1023107091008337,-2.946360000000027,3.223889999999983,4.367436774779922,-0.6198500000000422,1.85427999999996,1.9551389569286128,-0.4651000000000067,-0.8650300000000186,0.9821379286536278,2.334600000000023,-3.995410000000021,4.6274894087507406,-3.2867200000000025,1.0072299999999927,3.437592272405208,2.5330600000000345,1.3667899999999804,2.878282103564576,-1.2952999999999977,1.240559999999988,1.7935415254741005,0.946230000000014,-1.360070000000036,1.656846890270831,-4.196399999999983,2.217160000000007,4.746111189763666,4.788059999999973,2.8634600000000034,5.578971386841822,-3.16599999999994,0.6456000000000017,3.231153874392184,-2.055799999999863,-0.2081500000000176,2.066310737159211,-3.651919999999905,2.074329999999975,4.199924360664035,-2.271859999999833,1.910999999999973,2.9687150182527016,-2.3232000000000426,-0.378230000000002,2.353787622726443,-1.7122000000000526,-1.3793699999999944,2.198701989106337,-4.557699999999954,4.066759999999988,6.1082866818445485,-3.636499999999955,4.471029999999985,5.763179809002973,-1.3713999999999942,-3.3523999999999887,3.6220607007613648,-0.2678599999999278,-4.6641999999999655,4.671885124829124,-5.138430000000085,1.630880000000019,5.3910325949024775,-3.419130000000109,1.5547300000000348,3.756013222793665,1.3599649999999883,0.8514249999999777,156.64288000000002,0.8479071074199178,132.675836,2.511896144813725,132.544098,2.501794806457923,0.0557615199999999,-0.22673074,0.0840601064783463,0,0
21,700.0,487.44904,137.98993,0.84850824,487.95367,134.29465,0.8471782,485.57782,135.49709,0.41215026,496.5569,129.20403,0.8621561,489.7569,131.8489,0.19177768,517.3945,136.66711,0.99215347,504.14084,137.3749,0.9490214,535.3357,164.64282,0.9857281,503.59695,158.75858,0.8314515,529.75024,198.36081,0.96907336,499.78928,183.14404,0.8228562,551.4194,157.19897,0.9907323,543.51666,157.28433,0.9772868,527.2309,192.89838,0.97926176,523.9097,193.55617,0.95030516,536.1251,226.9153,0.9196359,533.4565,222.86273,0.8742574,0.69111418,0.16212599,0.6708577,0.03610988,137.921639324575,172.58220096787664,131.2272373381512,133.56294395415458,61.1467375352882,157.24165,137.021005,137.98993,65.84158000000002,97.71127,0.6738381286637856,176.94311654568804,0.8472666958823529,-1.7427299999999946,2.6717499999999745,3.189883370187669,1.0235700000000063,2.077019999999976,2.315536142084574,-2.6008600000000115,2.9418799999999976,3.9267200911193103,-0.706230000000005,2.8168799999999976,2.9040615949562767,-0.8118300000000431,2.8117899999999736,2.9266415825994003,2.8751799999999434,2.1158999999999537,3.569830926304421,-3.052400000000034,2.533359999999988,3.966744086729083,-2.675860000000057,1.9248199999999829,3.296234028706129,0.7734699999999748,2.33311999999998,2.457987952635217,3.931669999999997,0.4145699999999692,3.953466488260644,-0.80600000000004,1.224250000000012,1.4657503411222848,0.5465999999998985,0.3735200000000134,0.6620337985328989,-1.4699599999999575,0.4291800000000023,1.531332058699183,1.4764000000000692,-2.7947099999999807,3.160721585983191,1.1631999999999607,2.637820000000005,2.882902806616958,1.6282999999999674,3.502850000000024,3.862812319088265,-3.493949999999984,1.618169999999992,3.8504753929092783,-0.2072299999999813,0.6109399999999994,0.6451294106611413,0.6212399999999434,5.665249999999986,5.699210182130482,1.9165399999999408,4.424689999999998,4.821929817790773,-2.8352199999999925,3.4973299999999767,4.502198304972783,1.3611799999999905,1.2801699999999698,1.868594718311035,-2.5474000000000387,0.0443799999999896,2.5477865578576626,0.6185999999999012,-0.6012200000000121,0.8626305399183896,-2.593690000000038,-0.4408299999999769,2.6308855742886608,1.0582299999998668,-2.515159999999952,2.728714085150637,0.0364000000000714,2.404410000000013,2.404685511267548,2.359600000000114,2.782640000000015,3.64839656967285,0.9234000000000152,1.3540100000000166,1.6389053176129709,5.481099999999969,-2.712749999999972,6.115674106139037,-1.9565999999999804,3.197540000000004,3.7486725132505168,-0.5851999999999862,6.549939999999992,6.576030188768896,-0.7743299999999635,1.660249999999991,1.8319435066070984,4.364100000000121,0.0293699999999716,4.364198827608689,-0.1982250000000078,-1.5581899999999962,156.586709,0.7817920627191803,134.10546499999998,2.5516226583832755,134.18163199999998,2.905500454426005,0.16998664,-0.147141618,0.1088853726402602,0,0
22,733.3333333333333,486.29788,139.5922,0.8703388,487.16037,135.8529,0.8688036,484.1762,137.16017,0.4611304,495.8747,130.2612,0.86728555,486.79523,133.18991,0.19256023,517.1041,137.62955,0.992867,499.62024,138.28004,0.95049876,535.69556,167.67073,0.9868646,497.64816,159.94112,0.83227485,529.5532,204.21664,0.9713054,495.36154,185.62642,0.82427007,550.5005,156.50662,0.99110794,539.99713,156.62833,0.977523,524.62494,189.06207,0.9806309,519.2092,190.21146,0.9515714,535.951,222.09657,0.92832834,532.40625,218.8493,0.88380176,0.80603946,0.16998664,0.7865567,0.04618134,138.707378383221,179.88525070360123,122.59723576359924,123.50106588171543,63.22488675010455,156.567475,137.954795,139.5922,66.3243,91.83537,0.7222086574899337,177.8692834965785,0.8547742705882353,-1.1511600000000044,1.6022700000000043,1.9729263793917968,0.5915699999999902,-1.0694799999999702,1.222187602334406,-0.7932999999999879,1.5582500000000152,1.748561681068194,1.807560000000024,-1.3836299999999824,2.276335900191366,-1.40161999999998,1.663080000000008,2.17494223160064,-0.5897899999999368,-1.1487099999999657,1.2912733669521133,-0.6821999999999662,1.0571700000000137,1.2581753649233411,2.370200000000068,-1.476189999999974,2.7923081771359417,-2.9616699999999696,1.3410100000000114,3.251122422948704,-3.735139999999944,-0.9921099999999684,3.8646543275821608,-0.2903999999999769,0.9624399999999866,1.0052974254418243,0.5156000000000631,-0.2618100000000254,0.578262774264502,-4.520600000000002,0.9051400000000172,4.610325669581277,-3.050640000000044,0.4759600000000148,3.087546328591732,0.359860000000026,3.0279099999999914,3.0492192751096083,-0.8033399999999347,0.3900899999999865,0.8930427558072931,-5.948789999999974,1.1825400000000172,6.065187821963944,-2.45483999999999,-0.4356299999999748,2.493193318316879,-0.1970400000000154,5.855830000000026,5.859144114160387,-0.8182799999999588,0.1905800000000397,0.8401802751790521,-4.427740000000028,2.4823800000000062,5.076129625216468,-1.592520000000036,-1.0149499999999705,1.8884500133442916,-0.9189000000000078,-0.6923500000000047,1.1505328037479077,1.628500000000031,-0.7367299999999943,1.7873956872780274,-3.519530000000032,-0.6560000000000059,3.58014349166346,-0.9258399999999938,-0.2151700000000289,0.9505145104100206,-2.605959999999982,-3.836309999999997,4.637704382310271,-2.6423600000000533,-6.24072000000001,6.777068133640122,-4.700500000000034,-3.3447100000000205,5.76903676830894,-5.623900000000049,-4.698720000000037,7.328452827739351,-0.174099999999953,-4.818729999999988,4.821874077876762,1.7825000000000273,-8.016269999999992,8.21205765706135,-1.0502500000000057,-4.01343,4.148571492381445,-0.2759200000000419,-5.67367999999999,5.680385250033655,-0.6741749999999911,-0.4759499999999832,156.58005599999998,0.7817843505521274,135.46990599999998,2.3829588872853598,136.041652,2.7665477794662574,0.01007146,-0.0930996219999999,0.1267710167778448,0,0
23,766.6666666666667,483.8496,142.90862,0.8786356,485.15704,139.36186,0.8761256,481.72208,140.10797,0.49456862,494.72708,133.2114,0.8695792,484.08047,134.92056,0.21121606,515.4705,140.25731,0.9928188,496.77548,139.13327,0.9556078,534.53503,171.52362,0.98543245,495.81848,160.79868,0.8434382,528.076,210.6366,0.9673891,490.87976,186.54224,0.828279,547.93823,156.62047,0.99131984,536.9808,155.87943,0.9795035,525.6523,191.21469,0.98178536,519.8968,190.60065,0.95789766,534.56683,222.50092,0.9352622,534.2446,218.22778,0.8999198,0.86131033,0.25768207,0.81529721,-0.10366238,139.2503175086086,171.6693668626911,131.3058880936979,126.35673627511204,65.50633136187427,156.24995,139.69529,142.90862,66.21614999999997,89.28952000000001,0.7415892621934881,-176.5592275383104,0.8616928699999999,-2.448280000000011,3.316420000000022,4.122222285952105,-1.2971200000000067,1.7141500000000178,2.149611713054262,-2.0033300000000054,3.508960000000002,4.040560774261419,-1.2100300000000177,1.9507099999999864,2.2955265419942306,-2.454119999999989,2.947800000000001,3.835652462671762,-1.052500000000009,1.284719999999993,1.6608015319116252,-1.1476200000000176,2.9501999999999957,3.165550774257145,-0.4654200000000514,1.8930299999999816,1.9494046161071792,-2.7147600000000125,1.7306499999999971,3.219483076535744,0.2469099999999571,0.3896399999999858,0.4612850286969736,-1.6336000000000013,2.627759999999995,3.0941511885491275,-1.3432000000000244,1.6653200000000083,2.139503901001373,-2.844760000000008,0.8532299999999964,2.96995974560263,1.6758399999999938,-0.0519100000000207,1.6766437766263833,-1.1605299999999945,3.852890000000002,4.023877636434786,-1.5203900000000203,0.8249800000000107,1.7297912453530568,-1.829679999999996,0.8575599999999781,2.0206776229769923,4.119109999999978,-0.3249800000000391,4.131909872262444,-1.4771999999999252,6.419959999999975,6.587716314596391,-1.2801599999999098,0.564129999999949,1.398946847632072,-4.481780000000015,0.9158199999999964,4.574393756641434,-0.0540399999999863,-1.5665600000000095,1.5674918038701284,-2.5622700000000123,0.1138500000000135,2.564798115914792,-1.6433700000000044,0.8062000000000182,1.8304708129058065,-3.0163299999999253,-0.7488999999999919,3.1079089238424507,0.5032000000001062,-0.092899999999986,0.5117036740146628,1.0273599999999306,2.1526199999999847,2.385213079370435,3.633319999999912,5.988929999999982,7.004876641833113,0.6875999999999749,0.3891900000000134,0.7901029148787998,5.3881000000000085,3.733900000000034,6.555427584833834,-1.38417000000004,0.4043499999999937,1.4420213283443857,-1.210070000000087,5.223079999999982,5.36142090227022,1.8383499999999915,-0.6215200000000038,1.940571522232554,2.8885999999999967,3.391909999999996,4.455228771690624,-0.3175249999999892,0.3566500000000019,156.715772,0.6008692545872159,137.004472,2.055996973291096,138.106476,3.335453689954299,-0.14984372,-0.06897724,0.1052127541513398,0,0
24,800.0,483.39462,143.89462,0.94062304,484.5592,139.10901,0.943546,479.36267,141.18327,0.7315074,494.119,132.79143,0.90886366,478.9692,138.01224,0.3297884,514.2075,141.81384,0.9946753,493.94196,143.58801,0.96276546,533.3354,170.20096,0.98503613,490.6255,163.48254,0.8246493,529.7658,207.7941,0.9618697,485.14102,188.01147,0.79490477,546.7124,157.19846,0.98703617,535.47687,157.89307,0.9688028,523.658,187.87874,0.9686733,522.60626,188.85559,0.9234726,535.16315,219.18501,0.8838731,538.7847,215.30666,0.8103325,0.95697347,0.1724431,0.93983945,0.05256812,140.60282432833677,176.86070382534191,122.89878811096058,125.97666988889704,68.14940441762009,157.54576500000002,142.70092499999998,143.89462,67.7432,86.39358000000001,0.7841230704396892,174.99673131667794,0.8776717429411764,-0.4549800000000346,0.98599999999999,1.0859110462648456,1.9932999999999763,-2.330420000000032,3.0666108762606408,-0.5978400000000192,-0.2528499999999951,0.6491115374879887,1.405489999999986,-3.761809999999997,4.015795888264235,-2.3594100000000253,1.0752999999999986,2.592891366428628,0.0947099999999636,-1.8725000000000025,1.874893659411115,-0.6080799999999726,-0.4199700000000064,0.7390102078455832,0.539540000000045,-3.3701700000000017,3.4130850034096807,-5.11126999999999,3.0916799999999967,5.973572317742532,-2.396509999999978,1.3610299999999995,2.7560230116963638,-1.2630000000000337,1.5565300000000093,2.00448363448049,0.3705999999999676,-1.0712299999999857,1.1335246238613192,-2.8335200000000214,4.454739999999987,5.2795401369816295,0.0112399999999865,3.6015099999999904,3.601527539489311,-1.1996299999999565,-1.3226599999999848,1.7856487931561054,-0.0390999999999621,-5.175549999999987,5.175697693306658,-5.192980000000034,2.68386000000001,5.845523567654176,-3.363300000000038,1.826300000000032,3.827160642042658,1.689799999999991,-2.842500000000001,3.3068459731290742,3.1669999999999163,-9.262459999999976,9.788925081519372,-5.73873999999995,1.4692300000000105,5.923830988515748,-1.2569599999999357,0.5534100000000137,1.3733939965282551,-1.2258299999999736,0.5779899999999998,1.3552607236247698,1.3364400000000387,0.4641399999999862,1.4147430201984,-1.503930000000082,2.013639999999981,2.5132750534909967,1.5123999999998432,2.762539999999973,3.149441380880009,-1.9942999999999529,-3.335949999999997,3.8866174101009463,-3.0216599999998834,-5.4885699999999815,6.265367491256925,2.7094600000000355,-1.7450599999999952,3.2227950439331656,2.0218600000000606,-2.1342500000000086,2.939887909785045,0.5963199999999915,-3.3159100000000024,3.3691032442624853,1.980490000000032,-3.720259999999996,4.21457887667322,4.540100000000052,-2.921120000000002,5.398652615644063,2.701750000000061,-2.299599999999998,3.5479026512152667,1.2958150000000046,1.6133399999999938,157.008943,0.5698677840588804,138.713261,2.581184857544505,139.94071,3.52621183019396,0.1562305,-0.02053596,0.0904990255028983,0,0
25,833.3333333333334,481.09637,145.98709,0.939483,482.36127,142.1115,0.9391402,477.9118,143.35544,0.72161,491.5627,135.86592,0.9035733,477.62537,139.19177,0.31485766,512.82227,144.44392,0.9952028,489.44998,144.84904,0.9660137,531.9772,174.92613,0.9866654,482.64572,165.79755,0.8445416,527.551,212.09715,0.9663222,477.9212,188.24005,0.81855863,545.9236,158.73676,0.9900225,532.7496,158.91522,0.97589976,525.32587,195.09329,0.9740693,522.12445,193.92929,0.9365598,535.3389,221.17642,0.9033687,539.3213,214.86609,0.8426735,0.92320553,0.24368028,0.89046472,0.00098258,141.0642542409339,173.89387518285125,129.46509875945165,123.72074246804831,69.63574209485287,158.82599,144.64648,145.98709,68.29822999999999,85.31050000000002,0.8005840922209562,179.0069718454462,0.8834448264705882,-2.298249999999996,2.092469999999992,3.108115789895857,-1.843269999999961,1.1064700000000016,2.149865147817384,-2.1979299999999853,3.0024899999999946,3.721000199543115,-1.600089999999966,3.2553399999999897,3.627330495515928,-1.450869999999952,2.172169999999994,2.612153568571311,0.9085400000000732,1.0968699999999956,1.424278318482776,-2.5563000000000216,3.0744899999999973,3.9983944840523296,-1.948220000000049,3.494460000000004,4.000851391891508,-1.3438300000000254,1.1795299999999995,1.788063223099247,3.767439999999965,-1.912149999999997,4.224916777417008,-1.3852299999999786,2.6300799999999924,2.9725717752982685,-0.122229999999945,1.0735499999999831,1.0804858978255802,-4.491980000000012,1.2610300000000052,4.665627608511006,-1.658459999999991,-3.1937099999999816,3.59864879304717,-1.3582000000000107,4.725169999999991,4.916496595025766,-0.1585700000000542,6.047829999999976,6.049908441769985,-7.979780000000005,2.315010000000001,8.308800162989845,-2.786799999999971,-0.368850000000009,2.8111037978879123,-2.2147999999999683,4.303050000000013,4.8395845216815845,-3.90459999999996,7.145550000000014,8.142775077484327,-7.219820000000027,0.2285799999999938,7.223437523008029,-1.4810800000000768,-1.2406500000000165,1.9320482366908616,-0.7888000000000375,1.5382999999999925,1.7287487758491793,0.4370299999999361,0.9603099999999928,1.0550784411596752,-2.727269999999976,1.0221500000000106,2.912523351906365,-1.2233399999998935,-0.9914899999999705,1.5746787531746536,1.6678699999999935,7.214550000000003,7.404830993304305,3.6621699999999455,10.5505,11.168014118852984,-0.4818099999999958,5.073700000000002,5.096525538648857,-3.191270000000032,6.8187599999999975,7.528591644557444,0.1757499999999936,1.991410000000002,1.999150282144893,-0.4205699999999979,5.307320000000004,5.323957616970673,0.5365999999999076,-0.4405699999999797,0.6942920746342154,-4.003500000000145,2.4805500000000222,4.709685823120399,1.280224999999973,-0.0155900000000315,157.286166,1.0038291211870398,140.403699,3.210141380031717,142.07449200000002,3.2466320576668206,-0.05158554,0.006435908,0.0646911832670059,0,0
26,866.6666666666667,480.8646,148.32582,0.9469572,481.742,144.13971,0.951806,476.97986,145.80646,0.7384142,490.03098,137.28387,0.91812503,475.23624,141.80634,0.3107032,510.71722,145.3852,0.9960006,487.48615,147.41206,0.9577565,529.5597,174.83228,0.98889995,480.07898,167.65614,0.7872644,523.7162,212.93321,0.9687936,473.45416,189.7486,0.7642845,544.6342,160.49861,0.98797995,531.7731,161.53961,0.964324,524.51337,200.46303,0.96363884,523.9276,200.06317,0.89217275,536.3796,224.238,0.85501635,542.08923,216.95474,0.74260306,0.97507935,0.25596255,0.94082203,0.0108084,138.6663457350341,176.5950729475638,126.7521229917555,121.41381710540256,69.49890218689917,161.01911,146.39863,148.32582,71.18003999999996,86.95412999999999,0.81859296598571,175.01369530558992,0.8667494194117649,-0.2317699999999831,2.338729999999998,2.350186236407656,2.0664800000000128,0.2462600000000065,2.081101529959568,-0.6192699999999718,2.0282100000000014,2.1206440382581824,1.5786600000000135,-0.9742799999999932,1.8550980874336616,-0.9319400000000542,2.45102,2.6222149423722114,0.518929999999898,0.2788500000000056,0.5891058202054171,-1.531720000000007,1.417950000000019,2.0872825302052607,1.0245800000000145,-1.6565399999999784,1.947790786506589,-2.389129999999966,2.6145700000000147,3.5417394655451315,-1.0452999999999406,1.435040000000015,1.7753849981341845,-2.1050500000000056,0.941280000000006,2.30591490322172,-0.719820000000027,-1.6887999999999863,1.835806708888491,-1.963829999999973,2.5630199999999945,3.228885223927891,2.528150000000039,1.301989999999989,2.843715946187342,-2.417500000000018,-0.0938500000000033,2.4193209941014624,-1.0593000000000077,-4.819019999999995,4.9340723799312025,-2.5667399999999816,1.8585899999999924,3.1689921135433385,5.413040000000024,-0.4564200000000085,5.432248269179186,-3.834800000000087,0.8360600000000034,3.924880554055202,-1.6200000000001182,-3.46699000000001,3.826802798695074,-4.467039999999997,1.5085500000000138,4.714888064853716,2.7527800000000298,1.27997000000002,3.035806470989252,-1.2894000000000003,1.7618500000000097,2.183269974716832,-0.5005999999999631,0.2235500000000172,0.5482471728153012,-0.9764999999999872,2.6243900000000053,2.800174123532321,1.7507699999999886,1.6022399999999948,2.373261176208793,-0.8125,5.369740000000007,5.430862170742329,-2.480369999999993,-1.8448099999999956,3.091206766458684,1.80314999999996,6.133880000000005,6.393421132453259,2.2849599999999555,1.0601800000000026,2.518933074537671,1.0407000000000153,3.061579999999992,3.233624682364975,0.8649500000000216,1.0701699999999903,1.3760095680626705,2.767930000000092,2.088649999999973,3.4675488904124188,2.231330000000185,2.5292199999999525,3.372801117365295,2.1931200000000217,0.9128950000000486,158.041658,1.943562453378612,142.279224,3.4687403905512797,144.14167000000003,3.286023793462224,0.0098258199999999,0.001375612,0.062750175027518,0,0
27,900.0,477.539,151.40384,0.934748,479.0358,147.42162,0.9346256,474.16364,148.69595,0.7245105,487.57294,141.06491,0.8906518,472.051,144.41219,0.31746873,507.85553,147.78233,0.9941041,481.77728,151.14401,0.95791256,527.5221,176.40918,0.9847498,475.00946,174.35242,0.81641525,521.4302,213.62413,0.9604353,467.26816,199.0076,0.78290707,541.585,162.25659,0.9852997,526.0618,164.1816,0.9639723,523.76526,202.39241,0.952908,514.91754,204.45256,0.8842312,536.5329,221.16113,0.821818,533.63184,219.11932,0.7166689,1.0119749,0.17195181,0.99584661,-0.05305941,136.2144592764543,178.82585700706326,121.83350032625783,112.6180225625022,70.5746608464119,163.21909499999998,149.46317,151.40384,74.31684000000001,80.09622000000002,0.9278445234014224,172.6546561477447,0.8602015770588235,-3.3256000000000085,3.0780200000000093,4.531426097863687,-3.0938300000000254,0.7392900000000111,3.1809328463518645,-2.706200000000024,3.281909999999982,4.253757361216083,-2.086930000000052,1.2536999999999807,2.434551399108297,-2.816219999999987,2.8894900000000234,4.034878876558758,-1.884279999999933,0.4384700000000237,1.9346232344567167,-2.4580399999999827,3.78103999999999,4.5097920266016525,-0.9263199999999756,2.3630899999999717,2.538161360217238,-3.1852400000000216,2.605850000000004,4.115362448205524,-0.7961100000000556,-0.0087200000000109,0.7961577547823602,-2.86169000000001,2.397130000000004,3.733028514892443,-0.7566400000000044,1.455849999999998,1.6407325534955417,-5.70886999999999,3.731950000000012,6.820458010969643,-3.745040000000017,1.1689300000000171,3.9232285106147167,-2.0375999999999976,1.5768999999999949,2.5765145778745318,0.3799000000000205,1.6707499999999982,1.7133970854708518,-5.069520000000011,6.696280000000002,8.398821278536657,-2.5027800000000298,4.837690000000009,5.446756123097512,-2.2859999999999445,0.6909200000000055,2.388130324416939,1.548800000000142,-0.1451399999999978,1.555585760927516,-6.185999999999979,9.258999999999986,11.13533461553803,-1.7189599999999814,7.750449999999972,7.938784458851336,-3.049199999999928,1.757979999999975,3.519675314627682,-1.7597999999999274,-0.0038700000000346,1.759804255279474,-5.711300000000051,2.6419899999999927,6.292778309308261,-4.734800000000064,0.0175999999999874,4.734832710878031,-0.7481099999999969,1.929380000000009,2.069341865545669,0.064390000000003,-3.4403599999999983,3.440962510940796,-9.010059999999951,4.389389999999992,10.022371265109824,-10.813209999999913,-1.7444900000000132,10.953024964100017,0.1533000000000584,-3.0768699999999853,3.080686593423603,-0.8873999999999569,-6.1384499999999775,6.202261455509566,-8.457390000000032,2.164580000000001,8.729997261654814,-11.225320000000124,0.075930000000028,11.225576798868858,2.1999849999999697,0.0068649999999479,159.371982,2.7790991655270108,144.580899,3.692847631398994,146.503998,3.439850193499677,-0.06386781,-0.018472538,0.060696398019888,0,0
28,933.3333333333334,476.10776,153.67844,0.9382673,477.97363,149.3923,0.9402693,472.39865,150.79498,0.74647844,486.7381,143.58481,0.89279777,469.44513,147.20486,0.32851774,506.05963,150.90303,0.9930575,478.31046,155.6932,0.9509944,523.2921,178.98079,0.9815482,469.99042,180.42526,0.7792812,516.45776,216.4093,0.95140076,461.04996,205.93192,0.7385589,540.14484,165.54834,0.97477347,523.39526,168.24693,0.93865526,522.57355,206.92834,0.9077827,512.5264,209.32932,0.7831478,537.33386,223.22412,0.67949724,533.5017,220.68546,0.5315752,1.00442032,0.20879862,0.93713735,-0.29502017,138.11281167904178,179.27698193405928,114.8228519088848,103.6125494880641,71.03972298145816,166.89763499999998,153.298115,153.67844,79.09488000000005,79.63931,0.9931637906812134,170.2059025594599,0.8268590105882354,-1.4312400000000025,2.2745999999999924,2.6874249938556374,1.894360000000006,-0.8034200000000169,2.0576888749274147,-1.0621699999999803,1.970680000000016,2.2387015815646403,1.6440300000000434,-1.3112299999999664,2.102892948725649,-1.7649900000000116,2.099029999999999,2.7424654311403884,1.0512299999999757,-0.7904600000000244,1.3152610100280426,-0.8348400000000424,2.519900000000007,2.654591086325746,1.6231999999999402,-1.2611399999999833,2.0555418603375037,-2.6058699999999817,2.792669999999987,3.819628802095804,0.5793700000000399,0.1868199999999831,0.608745685241415,-1.7958999999999603,3.1207,3.6005590260402416,1.0657900000000495,0.7235699999999952,1.2882010204157186,-3.466820000000041,4.549189999999982,5.719612798826518,2.2420499999999493,0.8172399999999698,2.3863506490245148,-4.230000000000018,2.571610000000021,4.950361400150524,-2.192400000000021,0.9947100000000262,2.407501971774923,-5.019040000000018,6.072840000000014,7.878461029109705,0.0504799999999932,-0.623439999999988,0.625480346613692,-4.972440000000006,2.7851699999999937,5.69932728332915,-2.686440000000061,2.094249999999988,3.4062946050070715,-6.218200000000024,6.9243199999999945,9.30656857828922,-0.0322000000000457,-2.334679999999992,2.3349020412856647,-1.4401599999999917,3.2917500000000075,3.5930041592099533,1.6090399999999363,1.5337700000000325,2.222939525605655,-2.666539999999941,4.065329999999989,4.8618251285396505,3.0447600000001103,1.423339999999996,3.361020710022576,-1.1917100000000571,4.535929999999979,4.689864996884233,-0.4436000000000604,2.60654999999997,2.644027961746981,-2.391140000000064,4.87675999999999,5.431421415909487,6.618919999999889,0.4873699999999985,6.636838967708839,0.8009599999999182,2.062989999999985,2.213021613473264,0.6476599999998598,5.13985999999997,5.180504251055057,-0.130139999999983,1.5661400000000183,1.5715377562120656,8.32725000000005,-0.5984399999999823,8.348725830694214,3.678539999999998,1.4785550000000285,161.501519,3.711714522389585,147.30146399999998,4.1731823710618645,148.657962,3.958482913215575,-0.24196076,-0.056744096,0.1384141735484849,0,0
29,966.6666666666666,474.4022,157.36266,0.93160963,475.83954,153.31116,0.93195283,470.88226,154.43973,0.7143253,484.18655,146.6507,0.8896658,468.1946,149.83751,0.3166244,502.02533,153.04245,0.994522,477.15472,155.04926,0.9580341,516.26245,183.23195,0.9863279,466.7744,179.15343,0.8172242,511.49255,222.31714,0.9613553,456.94415,207.89194,0.77821916,535.5579,162.86075,0.98713976,520.287,164.579,0.9672985,522.60626,206.02223,0.95990425,512.73376,207.21182,0.8968965,536.8707,226.31213,0.84116393,529.6521,223.20576,0.73871666,0.92866888,0.14198306,0.84673983,-0.35397508,147.79393251994017,175.5848391328806,128.18843512508744,123.34435248282848,75.83593244001237,163.719875,154.04585500000002,157.36266,79.92655000000008,79.66143,1.0033280722762823,175.38679712544018,0.8629988364705882,-1.7055599999999913,3.6842200000000105,4.059853682338816,-0.2743199999999888,1.409620000000018,1.4360640677908645,-2.1340900000000147,3.918859999999995,4.462264428258373,-1.0719200000000342,1.9481799999999796,2.2236046858198497,-1.5163900000000012,3.644749999999988,3.947612087655006,0.2486000000000103,1.5457199999999889,1.5655836861694652,-2.551549999999964,3.065889999999996,3.988745278229708,-1.716709999999921,0.5459899999999891,1.801443394669873,-1.250530000000026,2.6326500000000124,2.91456194022363,1.3553399999999556,-0.1600199999999745,1.3647537931802467,-4.03430000000003,2.139420000000001,4.566475054831708,-2.2384000000000697,-0.9812799999999982,2.4440427570728605,-1.1557399999999802,-0.6439399999999864,1.3230244408928873,2.311080000000061,-5.193129999999968,5.684161324531522,-7.029650000000061,4.251159999999999,8.215128755418313,-2.7996500000000424,1.6795499999999777,3.264801421985748,-3.2160199999999577,-1.2718300000000229,3.4583718986395584,1.8030200000000605,-7.344670000000036,7.562741469156588,-4.965210000000013,5.907839999999993,7.71724586946017,0.0072299999999927,3.1226699999999994,3.122678369893383,-4.10581000000002,1.9600200000000143,4.549654289778534,2.112390000000005,-4.96429999999998,5.395040871216809,-4.586940000000027,-2.68759,5.316310616555455,-3.146780000000035,-5.979340000000008,6.756828487093654,-3.108259999999973,-3.667929999999984,4.8078051866209925,-0.4417200000000321,-7.733259999999973,7.745865141222096,0.0327100000000655,-0.906109999999984,0.9067002129700727,1.2244200000001229,-5.442039999999963,5.578082439154149,0.2073599999999942,-2.117500000000007,2.127628825617858,2.598500000000058,-6.994259999999997,7.461358803703268,-0.4631599999999025,3.088009999999997,3.1225507114696938,-1.2641199999998207,1.025020000000012,1.627472081112168,-3.8496000000000095,2.520299999999992,4.601231601430212,-3.7194600000000255,0.9541599999999733,3.839896352403297,-3.177759999999978,-6.856299999999976,162.73634099999998,3.0313563613781334,149.57045,4.130440894685027,151.35156999999998,4.4576638464221885,-0.0589549099999999,-0.138052736,0.1731874391706643,0,0
30,1000.0,472.59247,161.621,0.90852123,474.23022,158.22191,0.91654825,469.74677,158.47949,0.6265344,482.47467,152.28033,0.88331646,467.25922,153.01622,0.2532803,498.0195,158.92259,0.99463683,475.60217,153.31668,0.9428782,509.37543,194.3216,0.9888204,467.37625,173.08797,0.7865295,502.0914,227.27737,0.9677335,464.9284,191.46057,0.76959705,530.8944,161.13248,0.9896191,515.6998,160.20383,0.9693978,523.36926,204.7363,0.97048193,509.2869,204.7171,0.9133624,542.9884,223.47966,0.87967473,525.98517,221.251,0.7810434,0.86404944,0.02677535,0.73546245,-0.45272455,149.7504734626095,164.99909808842202,123.90057250343158,126.51857836893652,82.89394561850679,160.668155,156.11963500000002,161.621,78.05999999999995,74.99704,1.04084106464947,-165.9599618797992,0.8554103223529411,-1.8097300000000016,4.258340000000004,4.626940914740541,-0.1041700000000105,0.5741199999999935,0.583493927389133,-1.6093200000000252,4.910750000000007,5.167724491969377,0.5247699999999895,0.9918900000000122,1.12215387759434,-1.1354899999999477,4.039760000000001,4.196307710082745,0.3809000000000537,0.3950100000000134,0.5487419339726567,-1.7118800000000078,5.629629999999992,5.88415389595649,0.8396699999999555,2.563739999999996,2.697741369460739,-0.9353799999999524,3.1787099999999957,3.313477479703141,0.3151500000000737,0.5460599999999829,0.6304768402566646,-4.005830000000003,5.880140000000012,7.114964540213827,0.028470000000027,3.74072000000001,3.7408283386571055,-1.5525499999999963,-1.7325800000000129,2.3264232114772314,-0.3968100000000163,-1.0886400000000265,1.1587041148196853,-6.88701999999995,11.089649999999978,13.054171042348832,0.1426300000001106,6.838489999999979,6.839977251204842,0.6018500000000131,-6.065459999999973,6.095246380098158,3.817869999999971,-4.793629999999951,6.128215067521643,-9.401149999999973,4.960229999999996,10.62946390818462,-4.43593999999996,-0.9476099999999974,4.53602561673759,7.984250000000031,-16.431370000000015,18.268502077056045,12.09006000000005,-18.39139000000003,22.009379294648504,-4.663499999999999,-1.728270000000009,4.97344442443062,-0.0765599999999722,0.9593199999999912,0.9623701450065762,-4.587200000000053,-4.375169999999997,6.339125836335832,-1.4789400000000796,-0.707240000000013,1.6393449732134642,0.7630000000000337,-1.2859300000000076,1.4952541472606156,0.7302899999999681,-0.3798200000000236,0.8231565564945537,-3.4468599999999583,-2.494720000000001,4.254934986342296,-3.654219999999953,-0.3772199999999941,3.673638351389484,6.1176999999999,-2.8324700000000007,6.741597703133789,6.580859999999802,-5.920479999999998,8.852107193770157,-3.6669299999999794,-1.9547599999999927,4.155413611483197,0.18267000000003,-4.475059999999985,4.478786703170835,-3.051719999999989,0.126039999999989,163.104774,2.5032139125841986,151.865081,3.891074864689231,154.478352,5.178870203714234,-0.09874947,-0.2287941619999999,0.1990559317216104,0,0
31,1033.3333333333337,470.40646,167.23714,0.89739615,471.48917,163.46661,0.89435184,467.5961,164.09308,0.624957,477.9311,156.56274,0.85005856,463.95605,158.30344,0.2797352,494.12817,162.12782,0.9924993,469.93613,162.38863,0.94431084,505.0269,198.70734,0.98408264,456.69662,191.88272,0.7869957,494.77075,233.97615,0.95426744,440.01053,223.62848,0.74340534,529.8097,166.22632,0.97997355,514.2413,167.85,0.95009595,517.7892,207.24396,0.9387231,504.4994,209.7303,0.84532255,538.418,224.67871,0.77017087,524.8948,225.0423,0.63599145,0.5992256,-0.18398843,0.49497556,-0.28322919,147.19437214360264,176.44753633908616,113.8697578830796,113.80279325008762,83.18443900560978,167.03816,162.258225,167.23714,98.40747,77.41341,1.27119408289605,179.38232851131605,0.8277845576470588,-2.1860100000000102,5.6161400000000015,6.026580142974958,-0.3762800000000084,1.3577999999999977,1.4089739097655427,-2.741049999999973,5.244699999999995,5.917789552907386,-1.1317299999999475,0.3339499999999873,1.179972624851896,-2.150670000000048,5.613589999999988,6.011470214265398,-1.0151800000001003,1.5738299999999867,1.8728404366897256,-4.543569999999988,4.282409999999999,6.243641866170727,-2.8316899999999805,-1.347219999999993,3.135836409078106,-3.303170000000023,5.287219999999991,6.234230295497596,-2.3677900000000704,2.1085099999999954,3.1705273858145926,-3.891329999999982,3.20523,5.041423263504053,0.1145000000000209,-2.6749100000000112,2.677359474949164,-5.6660400000000095,9.071950000000015,10.695993926891523,-4.113490000000013,10.804530000000028,11.561084226879446,-4.348529999999983,4.385739999999998,6.176117591861398,2.5384899999999675,-6.703909999999979,7.168426659190952,-10.679630000000031,18.794749999999997,21.617056332891405,-11.281480000000045,24.860209999999967,27.300216706731455,-7.32065,6.698779999999999,9.92298190620642,2.0804999999999723,1.7385500000000036,2.7112794677974263,-24.917869999999997,32.167910000000006,40.6899825399938,-32.902120000000025,48.59928000000002,58.689347559951656,-1.084699999999998,5.09384,5.208049542352684,3.578800000000001,6.822110000000009,7.703829845739074,-1.4584999999999582,7.646169999999984,7.784030955674549,3.1287000000000944,12.02133999999998,12.42181062025984,-5.580060000000003,2.507659999999987,6.1176325714446085,-6.343060000000037,3.7935899999999942,7.390922489899379,-4.787500000000023,5.013200000000012,6.931978829309878,-1.3406400000000644,7.507920000000013,7.626675444517118,-4.57039999999995,1.1990499999999995,4.725069000818881,-10.68809999999985,4.03152,11.423162220698645,-1.0903700000000072,3.791300000000007,3.944979394990558,2.576559999999972,5.74606,6.297290445675811,6.370004999999992,9.42172499999998,164.30858400000002,2.689798230919021,155.037,4.700847247225612,158.26061599999997,6.338142526346232,0.1694953599999999,-0.28760168,0.1472711949975531,0,0
32,1066.6666666666667,464.6158,172.1348,0.8357344,464.97565,168.10437,0.79121524,462.27594,169.513,0.557592,470.4537,159.5921,0.7368094,459.04483,163.01797,0.29488745,488.70755,161.8413,0.9844136,461.749,167.3094,0.94902927,501.1702,196.11264,0.9703944,447.7692,199.44678,0.8494947,490.6757,233.82622,0.928355,429.17703,227.81427,0.79783875,524.87946,168.13998,0.9732945,507.42,172.22922,0.95508826,516.01074,208.47269,0.918997,497.67935,213.9113,0.85816485,537.6265,223.38107,0.7239304,520.1471,227.55869,0.6391301,0.54230068,-0.14419387,0.45665487,-0.25448868,144.46617661754524,170.26810049062496,112.19265867910164,108.12203194380425,82.19490423856683,170.1846,164.57535,172.1348,108.44946999999996,74.23412000000002,1.4609113509945102,168.534043454463,0.8096687835294117,-5.790660000000003,4.897660000000002,7.584116079755113,-3.604649999999992,-0.7184799999999996,3.675556438540965,-6.513520000000028,4.637759999999986,7.99592149836404,-3.7724700000000553,-0.6069400000000087,3.8209823428668734,-5.320159999999987,5.419920000000019,7.594711003849986,-3.1694899999999397,-0.1936699999999689,3.175401538230969,-7.477399999999989,3.029359999999997,8.067746449263252,-2.9338300000000004,-1.2530500000000018,3.19021829525818,-4.911220000000014,4.714529999999996,6.807853920972461,-1.6080499999999915,-0.5726899999999944,1.7069852485009842,-5.420619999999985,-0.2865200000000243,5.428187072568506,-1.5292900000000031,-3.491750000000025,3.811960908325291,-8.187129999999968,4.9207700000000045,9.552124110887563,-2.5210899999999583,-4.151180000000011,4.856767462057441,-3.856699999999989,-2.594699999999989,4.648290328712252,0.4918299999999931,-6.980439999999987,6.997745304203334,-8.927419999999984,7.564059999999984,11.70101839755837,1.7522100000000478,-11.23069000000001,11.36655786771881,-4.095050000000015,-0.1499299999999834,4.09779373656119,3.225599999999986,-6.848709999999983,7.570292202028906,-10.833500000000017,4.185789999999997,11.614024288510004,14.08436999999998,-27.98212000000001,31.32680191132347,-4.930240000000026,1.9136600000000212,5.2886067213586925,-3.845540000000028,-3.1801799999999787,4.990162594946189,-6.821300000000008,4.379220000000004,8.106028713149254,-5.36280000000005,-3.26694999999998,6.279537096195897,-1.7784599999999957,1.228730000000013,2.16164228874715,3.801600000000008,-1.278929999999974,4.010963039582887,-6.820049999999981,4.181000000000012,7.99961517840076,-2.032549999999958,-0.8322000000000003,2.196318816224054,-0.7915000000000418,-1.2976400000000012,1.5199808615900627,3.778899999999908,-2.496690000000001,4.529188245822788,-4.747700000000009,2.516390000000001,5.373348483217899,-3.6573300000000017,-1.2749100000000055,3.873171599219434,3.146439999999984,-3.223565000000008,165.701685,3.625499409128014,158.059436,5.0652937316140285,162.406808,7.419758533545282,0.0287405099999999,-0.327887534,0.0786238890123889,0,0
33,1100.0,463.7672,177.77533,0.8232465,463.467,173.77014,0.80018795,460.69955,175.07993,0.55001634,467.98572,165.51244,0.72771794,456.1452,169.10815,0.27298176,484.79633,167.25891,0.98049563,461.37527,170.08615,0.9122018,498.62943,198.87372,0.96384454,448.4635,195.61877,0.75529945,489.4978,234.88196,0.91302997,430.24316,222.64778,0.7144406,520.9328,167.35245,0.96273893,505.2407,170.55185,0.9276407,520.30096,206.89595,0.9033269,501.671,212.1209,0.81251466,538.86523,221.51587,0.7095915,515.07935,225.79991,0.59845805,0.65964665,-0.07393928,0.44240744,-0.48367587,142.13803623596587,172.84155492591103,127.3060794856362,130.6643111467514,89.59948989912263,168.95215000000002,168.67253,177.77533,108.62207,69.36952,1.5658471967825758,173.1169252618283,0.7839843070588235,-0.8485999999999763,5.640529999999984,5.704007419428886,4.942060000000026,0.7428699999999822,4.997580702750105,-1.5086499999999887,5.665770000000009,5.863188084600396,5.00487000000004,1.0280100000000232,5.109356933802966,-1.5763900000000035,5.566929999999985,5.785820171505493,3.743769999999984,0.1470099999999661,3.7466552754423335,-2.4679800000000114,5.92034000000001,6.414152398875488,5.009419999999977,2.890980000000013,5.78377507315074,-2.899630000000002,6.090180000000004,6.745231394792921,2.0115900000000124,1.3756500000000074,2.436987330824695,-3.9112200000000144,5.417609999999996,6.681926368982231,1.509399999999971,5.704130000000021,5.900456543090555,-0.3737300000000232,2.7767499999999927,2.8017877641605864,7.813399999999945,-2.144020000000012,8.10222446741629,-2.540770000000009,2.7610799999999927,3.7522093437466952,1.3159299999999805,5.3557799999999816,5.515074901875744,0.6942999999999984,-3.8280099999999777,3.890464374608747,9.621719999999982,-11.39206999999996,14.911631521845582,-1.1779000000000224,1.055739999999986,1.581782335721329,2.9171499999999924,1.2056699999999694,3.1564860638691057,1.066129999999987,-5.166489999999982,5.27534378946053,11.899630000000002,-9.35227999999998,15.134937572890731,-3.946659999999952,-0.7875300000000038,4.0244662573439,0.9835800000000744,-2.7011900000000253,2.8746925109479595,-2.179300000000012,-1.6773699999999965,2.750076109292257,4.641999999999996,-6.05659,7.630887656629468,4.290219999999977,-1.576740000000001,4.570787314675646,6.068679999999972,-2.805470000000014,6.685771373843092,3.991649999999993,-1.790400000000005,4.374791638752635,10.811699999999972,-5.971400000000017,12.35113253309184,1.2387300000000323,-1.8651999999999875,2.239067451619096,2.030230000000074,-0.5675599999999861,2.1080697821704777,-5.067750000000046,-1.7587800000000016,5.3642704211197705,-0.3200500000000374,-4.275170000000003,4.287133136654383,-1.2324499999999716,-4.378889999999956,166.11258800000002,3.900897454401696,161.134319,6.027475873437036,167.226186,8.125366234378435,-0.2291871899999999,-0.365618674,0.1009930827861149,0,0
34,1133.3333333333333,458.5061,180.71579,0.8179033,457.93964,176.38602,0.7362527,455.23825,178.38748,0.72792786,459.4021,168.0128,0.5797013,449.9167,173.76485,0.5188095,472.22357,165.4908,0.92190397,453.29297,178.90877,0.93021995,480.21835,177.90784,0.79510945,437.7224,202.04672,0.8061581,476.1061,197.26749,0.6890403,422.10617,222.81961,0.7240008,510.66934,170.94977,0.91458493,497.209,179.42862,0.9234566,522.98596,208.34181,0.86004007,496.90814,219.46735,0.8686647,536.7925,223.71992,0.7225169,502.3472,236.93864,0.7332723,0.4699752,-0.25350609,0.25055835,-0.30631986,135.2321610631239,177.00400202204528,156.31379803579287,162.27736949274788,85.84805920726994,175.18919499999998,172.19978500000002,180.71579,114.68633,71.44783999999999,1.605175585361635,144.67106486365591,0.7805625135294118,-5.261099999999999,2.9404600000000016,6.027062155113385,-4.412500000000023,-2.7000699999999824,5.173058501012734,-5.527359999999987,2.615880000000004,6.115107255314487,-4.018709999999999,-3.049890000000005,5.044983555592626,-5.461299999999994,3.3075500000000204,6.384801069140688,-3.884909999999991,-2.2593799999999646,4.4941432656847695,-8.583619999999996,2.5003600000000006,8.940376526410951,-6.115639999999985,-3.4199800000000096,7.00694768140878,-6.228499999999997,4.656700000000001,7.776828861431886,-3.328869999999995,-1.433480000000003,3.624395175377538,-12.572760000000017,-1.7681099999999788,12.696476164263071,-8.661540000000002,-7.185719999999975,11.254192422826248,-8.082299999999975,8.82262,11.965040616496026,-7.708569999999952,6.045870000000008,9.796662467483472,-18.411080000000027,-20.96588,27.902257810808088,-15.870310000000018,-23.72695999999999,28.54532133884116,-10.741100000000015,6.427949999999981,12.517578456414808,-11.435400000000016,10.25595999999996,15.360764586491117,-13.391699999999958,-37.61446999999998,39.92725863706269,-12.213799999999935,-38.67020999999997,40.55320026686052,-8.136989999999969,0.1718299999999999,8.138804077319929,-9.203119999999956,5.338319999999982,10.639317560670843,-10.263460000000066,3.5973199999999963,10.875629745168844,-6.316800000000114,4.38485,7.689530009207419,-8.0317,8.876769999999993,11.97101710477852,-5.852399999999989,10.55413999999999,12.068158803214336,2.684999999999945,1.4458600000000104,3.049546874471638,-1.6052200000000312,3.0226000000000117,3.4224029582152027,-4.762859999999989,7.346450000000004,8.755293426384975,-8.754509999999982,9.13685000000001,12.653990408665557,-2.072729999999978,2.204049999999995,3.025565410861231,-3.311460000000011,4.069249999999983,5.246385698183077,-12.73214999999999,11.13872999999998,16.91682445482601,-7.664399999999944,12.897509999999984,15.002959426729737,6.237044999999966,7.469494999999938,168.406452,5.273012959367509,164.765105,6.156440583818331,171.896812,7.74100834090536,0.17735601,-0.35608763,0.104552598179687,0,0
35,1166.6666666666667,450.3602,176.59476,0.5368192,449.99207,173.36296,0.42877764,448.8509,175.46783,0.36199957,455.48822,170.73894,0.38721552,450.23465,176.13007,0.26838648,472.46768,169.06448,0.8264081,450.67242,183.8841,0.8524343,476.55948,167.13785,0.72728324,440.9444,199.88332,0.7348767,457.57352,166.17642,0.6967697,434.655,192.39873,0.7200458,500.26956,187.58765,0.85591865,487.2428,194.53079,0.8677801,505.36212,180.45607,0.8609032,498.72058,183.78186,0.8708585,505.41302,228.91264,0.79550296,515.836,228.42603,0.8115175,0.50336701,-0.47753473,0.06583298,-0.14493081,28.112395579414088,71.34167358753524,35.590277550796586,67.85368049439816,65.62266098463368,191.05922,176.47429,176.59476,81.18100000000004,62.73622,1.2940052605336243,145.78637738898178,0.6825586564705882,-8.145899999999983,-4.12102999999999,9.128996389028734,-2.8847999999999843,-7.061489999999992,7.628021503646918,-7.947569999999985,-3.023060000000015,8.503103002345664,-2.4202099999999973,-5.638940000000019,6.136371954803604,-6.387349999999969,-2.9196500000000185,7.02300478036287,-0.9260499999999752,-6.227200000000039,6.295680141374754,-3.913880000000006,2.726140000000015,4.7697270313929,4.66973999999999,0.2257800000000145,4.675194998713948,0.3179499999999962,2.3652199999999937,2.386494888094246,6.546449999999993,-2.291480000000007,6.935912931467633,0.2441099999999778,3.573679999999996,3.5820075983308524,12.816869999999994,5.341789999999975,13.885491600984086,-2.620550000000037,4.975329999999985,5.623272260116884,5.461749999999938,-3.847290000000015,6.680744973923151,-3.658869999999979,-10.769990000000009,11.37453358503108,14.752210000000048,10.195889999999991,17.93275976463749,3.22199999999998,-2.163399999999996,3.880925606089333,13.963099999999995,-8.591349999999977,16.394494698907298,-18.532580000000053,-31.09107,36.195457659785184,-5.140880000000095,6.523399999999981,8.305624283243297,12.548829999999953,-30.42088000000001,32.90749267785833,20.68581999999992,-30.59271000000001,36.92989377477949,-10.399779999999964,16.637879999999996,19.620766420881708,-0.1363199999998983,13.04056,13.041272493740784,-9.966200000000017,15.10217,18.09421678738542,-1.934500000000014,6.225400000000008,6.519040988519718,-17.623839999999973,-27.88574,32.98809227119991,-20.30883999999992,-29.33160000000001,35.67620692710475,1.812439999999981,-35.685490000000016,35.73148660906374,6.57529999999997,-43.03194000000002,43.53139591436968,-31.37948,5.192720000000008,31.806227473072003,-29.306750000000022,2.9886700000000133,29.45874647590086,13.488800000000026,-8.512609999999995,15.950305779266449,26.220950000000016,-19.651339999999976,32.767566017299785,15.870024999999998,9.632980000000032,174.484665,9.743740989904772,168.836036,5.725065686476016,174.89156400000002,5.275617167206685,0.16138905,-0.294528882,0.1225011165186675,0,0
36,1200.0,447.71136,194.64705,0.6009807,446.97052,191.33081,0.47902,444.88885,192.86282,0.31739536,450.14734,184.87714,0.4039447,443.394,188.39322,0.22280788,460.83133,182.83995,0.9370611,449.3536,188.20508,0.8787837,468.27917,199.39569,0.8443047,451.72067,207.84169,0.6014318,459.15872,200.32416,0.7726781,454.3229,202.82661,0.59149575,490.49707,193.08688,0.9533221,482.26187,197.33916,0.93597764,505.5058,183.52328,0.962093,499.12488,187.36908,0.9443625,521.11115,221.86142,0.9482818,519.6013,225.27951,0.93035066,0.53392188,-0.24883883,-0.15328275,0.44682905,71.59144749826763,34.297426196579906,79.64314902210103,87.78138590207216,72.79071082355938,195.21302,185.522515,194.64705,77.71714999999995,42.43956,1.8312430234610568,154.94681478610934,0.7249583229411765,-2.648840000000007,18.05229,18.245589263975557,5.497059999999976,22.17331999999999,22.84455708622952,-3.02154999999999,17.967850000000027,18.2201371571402,4.926019999999994,20.99091000000004,21.56116823524416,-3.9620500000000334,17.394990000000007,17.840502159485325,2.425299999999936,20.314640000000026,20.45890218021487,-5.340880000000027,14.138199999999983,15.113361585511008,-1.427000000000021,11.412059999999968,11.500932242370586,-6.840649999999982,12.263150000000024,14.042056129534604,-7.1585999999999785,9.89793000000003,12.215341675323712,-11.636349999999991,13.775469999999984,18.032421219664304,-11.880459999999973,10.201789999999988,15.65956094581515,-1.3188200000000163,4.32098000000002,4.51775988215401,1.3017300000000205,-0.6543499999999653,1.4569402580064867,-8.280309999999986,32.257840000000016,33.30363005982532,-4.621440000000007,43.02783000000002,43.27530314373895,10.776270000000013,7.958370000000002,13.396404300027688,7.554270000000031,10.121769999999998,12.630012793572318,1.585200000000043,34.14774,34.18451412770994,20.117780000000096,65.23881,68.2702526899125,19.66790000000003,10.427879999999988,22.26133355628995,7.119070000000079,40.84876,41.46447095047157,-9.772490000000005,5.499230000000011,11.213522702210945,0.6272899999999595,-11.138649999999984,11.156299411839017,-4.980930000000001,2.8083699999999965,5.7180945883921845,4.985270000000014,-12.293800000000005,13.26613867758438,0.1436800000000175,3.0672099999999887,3.0705734198191608,17.76751999999999,30.952949999999987,35.68991286978575,0.4043000000000347,3.587220000000002,3.609931553146132,-1.4081399999999462,39.27271000000002,39.29794662579333,15.698129999999937,-7.051220000000001,17.20903800290121,47.077609999999936,-12.24394000000001,48.64376044299715,3.7653000000000247,-3.146520000000009,4.906941226507635,-9.7235,5.366089999999986,11.105916177339893,4.153800000000018,-11.71622499999998,180.11963699999998,12.198480140989725,173.48889400000002,8.031672529472914,180.373546,8.555070617220238,0.59175986,-0.148517234,0.3545817915992453,0,0
37,1233.3333333333337,434.36008,209.3613,0.5548282,432.8073,204.76306,0.53880507,430.43307,208.81337,0.39929956,438.27527,196.29187,0.4527021,428.44617,206.394,0.23094994,460.2689,192.05273,0.82335025,433.15723,203.05937,0.7358453,479.1917,207.13821,0.68109226,424.06586,217.64897,0.49179465,466.1673,213.44241,0.55887383,419.39365,224.61276,0.43280476,495.47034,189.25429,0.8190743,479.82126,196.70798,0.78105825,508.5288,209.16177,0.7856217,499.08105,217.70056,0.74091256,528.72754,219.53578,0.7263107,522.8416,225.13295,0.7001186,1.07964932,0.22820461,-0.28077274,1.01721777,64.39064053022284,178.06987773917447,150.44806157138748,149.90492490402627,96.37729094495214,192.981135,197.55605,209.3613,109.33389,35.87866,3.0473235888039416,157.904113954481,0.6149083547058823,-13.351280000000031,14.714249999999993,19.868714872907624,-10.702440000000024,-3.3380400000000066,11.210920256392896,-14.163220000000024,13.432249999999982,19.51978844226802,-11.141670000000031,-4.535600000000045,12.029483685881996,-14.455780000000004,15.950549999999993,21.52648649247944,-10.493729999999973,-1.4444400000000144,10.592675593375803,-11.872070000000008,11.414729999999992,16.46942946971145,-6.531189999999981,-2.723469999999992,7.07627950670405,-14.94783000000001,18.000779999999992,23.39798500549353,-8.107180000000028,5.737629999999967,9.932107810998634,-0.5624300000000062,9.21278000000001,9.229931897544,11.073919999999989,-4.562689999999975,11.97705490521353,-16.196369999999945,14.854289999999992,21.97663151124389,-14.877549999999928,10.533309999999972,18.22888130299271,10.912530000000004,7.742519999999985,13.380206536197408,19.19283999999999,-24.51532000000003,31.1346434373031,-27.65481,9.807279999999992,29.342311721036904,-38.43108000000001,1.8489099999999892,38.47552960200159,7.008579999999995,13.118249999999987,14.873085647534596,5.423379999999952,-21.02949000000001,21.717562024419315,-34.929250000000025,21.78615000000002,41.16659856467379,-54.597150000000056,11.358270000000031,55.76611054677748,4.973270000000014,-3.8325900000000095,6.27870692109452,14.745760000000018,-9.331820000000022,17.4505100925446,-2.4406099999999924,-0.6311800000000005,2.5209056635463303,2.5403200000000083,-3.439549999999997,4.27594783701813,3.022999999999968,25.63848999999999,25.81609378817987,2.87931999999995,22.57128,22.754190042732784,-0.043830000000014,30.33148,30.33151166788922,-0.4481300000000487,26.74426,26.74801419628193,7.616390000000024,-2.325640000000021,7.963541802596408,-8.081739999999911,4.72557999999998,9.36192436222374,3.240299999999934,-0.1465599999999938,3.243612788789619,-0.525000000000091,2.999960000000016,3.045551674426193,-2.231885000000005,-6.385685000000024,184.678944,11.810889467054054,180.085034,11.621773436885167,187.818846,14.035734919523234,0.57038872,0.105824056,0.6178943439060092,0,0
38,1266.6666666666663,47.65001,131.17487,0.11686043,44.972183,128.0017,0.025101315,48.51991,128.80772,0.113877244,31.543259,125.92236,0.095728025,48.562504,128.144,0.548677,21.644505,133.15532,0.6803055,47.96225,136.8534,0.93081427,8.185282,148.068,0.52877307,57.991253,148.00262,0.9270472,7.976427,160.13918,0.5043068,66.98275,150.36015,0.8569127,20.491268,174.69125,0.9200682,35.876064,176.34033,0.96415716,16.681686,199.99506,0.8553025,28.32723,202.82727,0.93202984,12.3382435,220.5022,0.7273663,19.572987,223.62587,0.8210866,1.19909352,-0.07197411,-0.39892819,1.12849515,138.92385701901907,146.6641551186217,176.60318685232951,173.08117515391385,9.280325319835669,175.51578999999998,135.00436,131.17487,59.006323,97.70351,0.6039324728054041,7.99863824376486,0.620494950235294,-386.71007,-78.18643,394.5349110985615,-373.35879,-92.90068,384.7431902122849,-387.835117,-76.76136,395.3585516559029,-373.671897,-90.19360999999998,384.4028796619644,-381.91316,-80.00565,390.2032365487351,-367.45738,-95.9562,379.779565583648,-406.732011,-70.36950999999999,412.77451073163934,-394.859941,-81.78423999999998,403.2406662514349,-379.883666,-78.25,387.859075172413,-364.935836,-96.25078,377.4153905812895,-438.624395,-58.89741000000001,442.5610294567565,-438.061965,-68.11019000000002,443.32525662485926,-385.19498,-66.20597000000001,390.8431950038805,-368.9986100000001,-81.06026,377.7972206530903,-471.00641800000005,-59.070209999999975,474.6960453876089,-481.91894800000006,-66.81272999999996,486.5283273679752,-366.074607,-69.64634999999998,372.64088873676616,-338.419797,-79.45362999999998,347.6216885087841,-458.190873,-53.30322999999999,461.28094522637184,-465.199453,-66.42147999999997,469.9173800540789,-352.4109,-74.25261,360.14843124831475,-317.48164999999995,-96.03876000000002,331.6896765186702,-474.979072,-14.56304,475.20227374458426,-479.952342,-10.73044999999999,480.0722790877302,-443.945196,-20.36765,444.4121715457408,-441.504586,-19.73647,441.9455030963573,-491.847114,-9.166709999999997,491.9325280181756,-494.870114,-34.805199999999985,496.09256361833616,-470.75382,-14.873289999999995,470.9887193978392,-470.70999,-45.20477,472.87563472498033,-516.3892965,0.9664199999999994,516.3902008243198,-524.0056865,3.2920600000000206,524.0160275634514,-503.268613,-1.507080000000002,503.2708695335645,-506.5089129999999,-1.3605200000000082,506.5107402248366,-17.465345000000013,-15.233460000000008,185.991672,9.823485986543105,173.35139999999998,23.534948787853992,178.49875400000002,29.416639202705085,0.1112773799999999,0.4282582599999999,0.6530123668675296,0,0
39,1300.0,423.2028,227.68692,0.44749954,420.8228,222.88507,0.5409549,418.9902,226.68106,0.26215187,428.6244,210.41687,0.5243276,419.71912,220.49066,0.12915906,462.45676,202.41522,0.7769608,431.18527,210.02057,0.5079151,506.45767,219.23169,0.624562,427.58936,222.90616,0.2584211,519.7509,224.96922,0.48164132,415.29498,228.4007,0.2354647,503.22562,193.60985,0.65342146,486.7225,198.15741,0.5257203,512.4628,225.22107,0.56824857,502.53598,226.2958,0.44081727,530.24664,223.39223,0.470464,523.1521,217.97011,0.40088657,0.99100973,-0.1346137,0.10267979,0.97644062,177.5704315939228,129.6731007231001,100.41750316897316,97.34452130158454,102.11267939437816,195.88363,206.217895,227.68692,114.95165999999996,34.790850000000006,3.304077270199569,166.33081827002218,0.4616833035294117,375.55279,96.51205,387.7556883812107,762.26286,174.69848,782.0257199412881,375.850617,94.88337,387.6422838156817,763.6857339999999,171.64473,782.7373848564355,370.47029,97.87334,383.1806707748184,752.38345,177.87899000000002,773.1246929941656,397.081141,84.49450999999999,405.9713718453581,803.813152,154.86401999999998,818.59541167706,371.156616,92.34666,382.4724032054169,751.0402819999999,170.59666,770.1718805499165,440.812255,69.25990000000002,446.2201002937844,879.43665,128.15731000000002,888.7255580153293,383.22302,73.16717,390.1452522122104,768.4180000000001,139.37314,780.9552451180924,498.272388,71.16368999999997,503.32856407881184,969.278806,130.23389999999995,977.988891792742,369.598107,74.90353999999999,377.11178846930136,735.672714,144.54988999999998,749.7392965712401,511.774473,64.83004,515.8643671555823,969.965346,118.13326999999998,977.1326634197592,348.31223,78.04055,356.9478071257413,700.72313,152.29316,717.081663062013,482.734352,18.9186,483.104924448944,957.713424,33.48164,958.2985039782194,450.846436,21.817080000000004,451.37400659943694,894.791632,42.18473,895.7854743979701,495.781114,25.22601,496.42246582885537,987.628228,34.39272,988.2268848454884,474.20875,23.468530000000012,474.789122113095,944.96257,38.34182000000001,945.7401090478912,517.9083965,2.8900300000000243,517.9164599031412,1034.297693,1.923610000000025,1034.29948178492,503.579113,-5.655759999999987,503.6108722724762,1006.847726,-4.148679999999985,1006.8562732074092,20.36784,37.833185000000014,190.130559,8.38911353266282,180.155022,27.6722296385294,187.89298,36.86006532499425,-0.15205453,0.6848103560000001,0.5332693036239292,0,0
40,1333.3333333333333,44.749268,120.75702,0.01430255,42.510178,117.85316,0.004855396,45.160954,118.50789,0.014715921,31.60746,117.86538,0.15956193,45.278255,120.06064,0.5075407,22.796812,131.11304,0.8948336,46.857483,134.21016,0.957322,6.890545,145.50632,0.7782047,55.536644,148.809,0.94498277,7.455551,150.48718,0.5926253,67.44763,148.90724,0.8118062,22.218924,175.7902,0.9821623,36.71711,176.85835,0.9895154,16.83779,202.15167,0.9171202,29.023586,203.16792,0.9461903,12.608305,224.23907,0.7648932,19.279705,226.67494,0.82212764,1.5420203,-0.99167064,-0.30410905,1.14102307,125.66964112163365,121.20447607421622,179.30304233009218,173.78566738885755,6.997461457649581,176.324275,132.66160000000002,120.75702,60.557085,108.82178,0.5564794514803981,7.334851869174449,0.6531035357058823,-378.453532,-106.9299,393.2697285544427,-754.006322,-203.44195,780.9700126354213,-378.312622,-105.03191,392.6221365164768,-754.163239,-199.91528,780.2104268954943,-373.829246,-108.17317,389.16544023432687,-744.299536,-206.04651,772.2933144686644,-397.01694,-92.55149,407.66190519618544,-794.098081,-177.046,813.5951378688804,-374.440865,-100.43001999999998,387.6753155659367,-745.597481,-192.77668,770.1158692205789,-439.659948,-71.30217999999999,445.4041656160336,-880.472203,-140.56208,891.621555700399,-384.327787,-75.81040999999999,391.7334120606582,-767.5508070000001,-148.97758,781.8750288051203,-499.567125,-73.72537,504.9779624522268,-997.839513,-144.88905999999997,1008.3037902397078,-372.052716,-74.09716,379.3594767539652,-741.650823,-149.0007,756.470192312339,-512.295349,-74.48204000000001,517.6814646958044,-1024.069822,-139.31208,1033.5022283309495,-347.84735,-79.49346,356.81506286141297,-696.15958,-157.53401,713.7612521932361,-481.006696,-17.819649999999996,481.336661311975,-963.741048,-36.73825,964.441033248379,-450.00539,-21.29906,450.50915749398007,-900.851826,-43.11614,901.8830378358572,-495.62501,-23.0694,496.1616145510051,-991.406124,-48.29541,992.581759519976,-473.512394,-23.127880000000005,474.0768778425136,-947.721144,-46.59641000000002,948.8659506007984,-517.638335,0.846839999999986,517.6390277013102,-1035.5467315,-2.0431900000000383,1035.5487471605136,-503.872395,8.704829999999987,503.94758111173127,-1007.451508,14.360589999999974,1007.553853407659,-19.559354999999982,-39.92719499999998,187.18357,10.342101445798557,171.392484,35.07554759685535,176.725432,47.93400247043602,0.1645824499999999,0.942001132,0.28566972289385,0,0
