frame_id,timestamp_ms,nose_x,nose_y,nose_conf,left_eye_x,left_eye_y,left_eye_conf,right_eye_x,right_eye_y,right_eye_conf,left_ear_x,left_ear_y,left_ear_conf,right_ear_x,right_ear_y,right_ear_conf,left_shoulder_x,left_shoulder_y,left_shoulder_conf,right_shoulder_x,right_shoulder_y,right_shoulder_conf,left_elbow_x,left_elbow_y,left_elbow_conf,right_elbow_x,right_elbow_y,right_elbow_conf,left_wrist_x,left_wrist_y,left_wrist_conf,right_wrist_x,right_wrist_y,right_wrist_conf,left_hip_x,left_hip_y,left_hip_conf,right_hip_x,right_hip_y,right_hip_conf,left_knee_x,left_knee_y,left_knee_conf,right_knee_x,right_knee_y,right_knee_conf,left_ankle_x,left_ankle_y,left_ankle_conf,right_ankle_x,right_ankle_y,right_ankle_conf,acc_x,acc_y,acc_z,acc_mag,left_elbow_angle,right_elbow_angle,left_knee_angle,right_knee_angle,spine_angle,hip_height,shoulder_height,head_height,bbox_width,bbox_height,bbox_aspect_ratio,shoulder_tilt,avg_confidence,nose_vx,nose_vy,nose_speed,nose_ax,nose_ay,nose_accel,left_eye_vx,left_eye_vy,left_eye_speed,left_eye_ax,left_eye_ay,left_eye_accel,right_eye_vx,right_eye_vy,right_eye_speed,right_eye_ax,right_eye_ay,right_eye_accel,left_ear_vx,left_ear_vy,left_ear_speed,left_ear_ax,left_ear_ay,left_ear_accel,right_ear_vx,right_ear_vy,right_ear_speed,right_ear_ax,right_ear_ay,right_ear_accel,left_shoulder_vx,left_shoulder_vy,left_shoulder_speed,left_shoulder_ax,left_shoulder_ay,left_shoulder_accel,right_shoulder_vx,right_shoulder_vy,right_shoulder_speed,right_shoulder_ax,right_shoulder_ay,right_shoulder_accel,left_elbow_vx,left_elbow_vy,left_elbow_speed,left_elbow_ax,left_elbow_ay,left_elbow_accel,right_elbow_vx,right_elbow_vy,right_elbow_speed,right_elbow_ax,right_elbow_ay,right_elbow_accel,left_wrist_vx,left_wrist_vy,left_wrist_speed,left_wrist_ax,left_wrist_ay,left_wrist_accel,right_wrist_vx,right_wrist_vy,right_wrist_speed,right_wrist_ax,right_wrist_ay,right_wrist_accel,left_hip_vx,left_hip_vy,left_hip_speed,left_hip_ax,left_hip_ay,left_hip_accel,right_hip_vx,right_hip_vy,right_hip_speed,right_hip_ax,right_hip_ay,right_hip_accel,left_knee_vx,left_knee_vy,left_knee_speed,left_knee_ax,left_knee_ay,left_knee_accel,right_knee_vx,right_knee_vy,right_knee_speed,right_knee_ax,right_knee_ay,right_knee_accel,left_ankle_vx,left_ankle_vy,left_ankle_speed,left_ankle_ax,left_ankle_ay,left_ankle_accel,right_ankle_vx,right_ankle_vy,right_ankle_speed,right_ankle_ax,right_ankle_ay,right_ankle_accel,hip_velocity,hip_acceleration,hip_height_mean_5,hip_height_std_5,shoulder_height_mean_5,shoulder_height_std_5,head_height_mean_5,head_height_std_5,acc_mag_diff,acc_mag_mean_5,acc_mag_std_5,label_binary,label_3class
0,0.0,573.1978,83.93846,0.9450138,577.9711,79.173065,0.9546208,572.3662,80.70422,0.6192292,592.08606,79.31251,0.94517213,577.00214,81.78294,0.19434023,600.9899,99.73448,0.9977343,581.0194,100.19188,0.9652892,589.44165,131.36264,0.9948978,568.3271,126.56348,0.799903,554.88086,138.99617,0.9869446,550.3847,138.08194,0.7895732,587.3455,150.65924,0.9965429,573.972,146.44873,0.9860547,540.2228,160.73013,0.99169254,526.1537,155.89075,0.9655376,550.2093,209.5469,0.9624268,537.15186,200.56372,0.91298395,1.00560538,-0.87842809,0.42152757,0.24883883,122.51352628435988,148.40008727012207,90.50202100666004,87.33897009175334,12.019866144582258,148.553985,99.96318,83.93846,74.83620000000008,130.373835,0.5740124115087024,178.68793929091458,0.8828209852941177,0.0,0.0,0.0,0.0,0.0,0.0,0.0,0.0,0.0,0.0,0.0,0.0,0.0,0.0,0.0,0.0,0.0,0.0,0.0,0.0,0.0,0.0,0.0,0.0,0.0,0.0,0.0,0.0,0.0,0.0,0.0,0.0,0.0,0.0,0.0,0.0,0.0,0.0,0.0,0.0,0.0,0.0,0.0,0.0,0.0,0.0,0.0,0.0,0.0,0.0,0.0,0.0,0.0,0.0,0.0,0.0,0.0,0.0,0.0,0.0,0.0,0.0,0.0,0.0,0.0,0.0,0.0,0.0,0.0,0.0,0.0,0.0,0.0,0.0,0.0,0.0,0.0,0.0,0.0,0.0,0.0,0.0,0.0,0.0,0.0,0.0,0.0,0.0,0.0,0.0,0.0,0.0,0.0,0.0,0.0,0.0,0.0,0.0,0.0,0.0,0.0,0.0,0.0,0.0,148.553985,0.0,99.96318,0.0,83.93846,0.0,0.0,0.24883883,0.0,0,0
1,33.333333333333336,573.0314,84.62746,0.9434785,577.69714,79.810524,0.9531089,572.2101,81.35742,0.61297643,591.7144,79.5097,0.9440182,576.97766,82.02406,0.19392702,600.71,99.46538,0.9977004,581.1462,99.902405,0.9654139,589.1804,131.03221,0.99488235,568.4803,126.30684,0.80349576,555.09546,138.73492,0.9869098,550.49097,137.98059,0.79255056,587.2982,150.62187,0.9966028,574.1916,146.39713,0.98642796,540.19775,161.00647,0.9918184,526.39484,156.02162,0.96638894,549.9859,209.88846,0.9629558,536.9423,200.61374,0.9147195,1.01016289,-0.88825391,0.4146495,0.24392592,122.79855415262652,148.607092665767,91.1103469661418,88.0772908830817,11.78088834821357,148.5095,99.6838925,84.62746,74.31515999999999,130.37876,0.569994372012785,178.7203138296291,0.8827867776470588,-0.1664000000000669,0.688999999999993,0.7088088317734286,-0.1664000000000669,0.688999999999993,0.7088088317734286,-0.2739599999999882,0.6374590000000069,0.6938357574246244,-0.2739599999999882,0.6374590000000069,0.6938357574246244,-0.1561000000000376,0.6531999999999982,0.6715932176548609,-0.1561000000000376,0.6531999999999982,0.6715932176548609,-0.3716600000000198,0.1971899999999919,0.4207315672730198,-0.3716600000000198,0.1971899999999919,0.4207315672730198,-0.0244800000000395,0.2411200000000093,0.2423594949656531,-0.0244800000000395,0.2411200000000093,0.2423594949656531,-0.2798999999999978,-0.2691000000000088,0.3882767312111344,-0.2798999999999978,-0.2691000000000088,0.3882767312111344,0.1268000000000029,-0.2894749999999959,0.3160285044501498,0.1268000000000029,-0.2894749999999959,0.3160285044501498,-0.2612500000000182,-0.3304300000000069,0.4212309905503322,-0.2612500000000182,-0.3304300000000069,0.4212309905503322,0.1532000000000835,-0.2566400000000044,0.2988884902434817,0.1532000000000835,-0.2566400000000044,0.2988884902434817,0.2146000000000185,-0.2612500000000182,0.3380898142506181,0.2146000000000185,-0.2612500000000182,0.3380898142506181,0.1062699999999949,-0.1013499999999965,0.1468507248875477,0.1062699999999949,-0.1013499999999965,0.1468507248875477,-0.0473000000000638,-0.0373700000000098,0.0602810658499563,-0.0473000000000638,-0.0373700000000098,0.0602810658499563,0.219600000000014,-0.0516000000000076,0.2255808502510949,0.219600000000014,-0.0516000000000076,0.2255808502510949,-0.0250499999999647,0.2763400000000047,0.277473058331797,-0.0250499999999647,0.2763400000000047,0.277473058331797,0.2411400000000867,0.1308700000000158,0.2743637302925552,0.2411400000000867,0.1308700000000158,0.2743637302925552,-0.2233999999999696,0.3415600000000154,0.4081308535261662,-0.2233999999999696,0.3415600000000154,0.4081308535261662,-0.2095600000000104,0.0500200000000177,0.2154469633111735,-0.2095600000000104,0.0500200000000177,0.2154469633111735,-0.0444850000000087,-0.0444850000000087,148.5317425,0.0314556451610897,99.82353625,0.1974860851506295,84.28296,0.4871965722375262,-0.00491291,0.246382375,0.0034739519763592,0,0
2,66.66666666666667,572.92285,84.8909,0.94224274,577.5521,80.07289,0.9520923,572.12616,81.57643,0.60756034,591.53357,79.64196,0.94309413,576.9773,82.05829,0.19210306,600.4812,99.44288,0.9976326,581.3147,99.76526,0.96480453,588.793,131.04459,0.9947765,568.59314,126.27492,0.802468,555.0907,138.5122,0.9867273,550.50085,137.832,0.79225814,587.50275,150.55106,0.996503,574.6658,146.29742,0.98611915,540.25586,160.92833,0.9916088,526.81104,155.91621,0.9657448,549.6341,210.00246,0.9620592,536.9114,200.72995,0.9130815,0.98092228,-0.84035305,0.41710596,0.28642258,122.79090628114474,148.20542285575894,91.5687201495932,88.66359845219209,11.365945605982056,148.42424,99.60407,84.8909,73.6701599999999,130.3605,0.5651263951494011,179.0363774393935,0.8818162405882353,-0.1085499999999228,0.2634400000000028,0.2849275979963764,0.057850000000144,-0.4255599999999901,0.4294740226137179,-0.1450399999999945,0.2623660000000001,0.2997874573026671,0.1289199999999937,-0.3750930000000068,0.3966297077237198,-0.0839399999999841,0.2190099999999972,0.2345448863224183,0.0721600000000535,-0.4341900000000009,0.4401454551622776,-0.1808299999999008,0.1322600000000022,0.2240361499846949,0.190830000000119,-0.0649299999999897,0.2015737924434724,-0.0003600000000005,0.0342299999999937,0.0342318930238976,0.024120000000039,-0.2068900000000155,0.2082912540170813,-0.228800000000092,-0.0224999999999937,0.2299036537335625,0.0510999999999057,0.246600000000015,0.2518387777924555,0.1684999999999945,-0.1371450000000038,0.217257913607305,0.0416999999999916,0.152329999999992,0.1579345399208067,-0.3873999999999569,0.0123800000000073,0.387597761087402,-0.1261499999999387,0.3428100000000142,0.3652841614414651,0.1128399999998919,-0.0319199999999995,0.1172678643106267,-0.0403600000001915,0.2247200000000049,0.2283155886049344,-0.0047600000000329,-0.2227199999999811,0.2227708598537787,-0.2193600000000515,0.038530000000037,0.2227181413805922,0.0098800000000665,-0.1485900000000128,0.1489181066895666,-0.0963899999999284,-0.0472400000000163,0.1073436057713162,0.2045500000000402,-0.0708099999999944,0.2164596003877297,0.251850000000104,-0.0334399999999845,0.2540603394866097,0.4741999999999962,-0.0997100000000159,0.4845696277110231,0.2545999999999822,-0.0481100000000083,0.2591056388811168,0.0581099999999423,-0.0781400000000189,0.0973788051887897,0.083159999999907,-0.3544800000000236,0.3641039082459859,0.4162000000000034,-0.1054100000000062,0.4293410160932731,0.1750599999999167,-0.236280000000022,0.2940650302228765,-0.3518000000000256,0.1140000000000043,0.3698097348637797,-0.128400000000056,-0.2275600000000111,0.2612855020853997,-0.0309000000000878,0.1162099999999952,0.1202479692136392,0.1786599999999225,0.0661899999999775,0.1905269316920034,-0.0852600000000052,-0.0407749999999964,148.49590833333335,0.0659317170133974,99.75038083333334,0.1885617190128435,84.48560666666667,0.4918101915712307,0.0424966599999999,0.25972911,0.0232473692414367,0,0
3,100.0,572.3586,85.43168,0.94252646,576.9094,80.48656,0.9528016,571.45605,82.051285,0.60583097,590.8165,79.52371,0.94430864,576.3518,82.090385,0.19130547,599.9704,99.005875,0.99768126,581.3028,99.50103,0.9649236,588.41785,130.93758,0.994902,568.83417,126.365326,0.80234593,554.69885,138.33002,0.986967,550.1171,137.88272,0.79267603,587.96875,150.78757,0.99657744,575.47034,146.62898,0.986323,540.2293,160.89532,0.9918275,527.1499,156.10368,0.96638274,549.44745,210.05453,0.9630747,536.91986,201.0124,0.91495836,0.95465353,-0.82143835,0.39598045,0.28249226,122.25527627275268,146.5033310917966,91.33398501923745,88.82030316508342,10.221021759762142,148.708275,99.2534525,85.43168,72.82050000000004,130.53082,0.5578797363114727,178.48059519988894,0.8820831,-0.5642500000000155,0.540779999999998,0.7815504276116898,-0.4557000000000926,0.2773399999999952,0.533460369287243,-0.6426999999999907,0.4136699999999962,0.764320717303924,-0.4976599999999962,0.1513039999999961,0.5201522623386301,-0.6701100000000224,0.4748549999999909,0.821300604605294,-0.5861700000000383,0.2558449999999936,0.6395716792706206,-0.7170700000000352,-0.1182500000000033,0.7267547367579047,-0.5362400000001344,-0.2505100000000055,0.5918687335044375,-0.6254999999999882,0.0320949999999982,0.6263228712293565,-0.6251399999999876,-0.0021349999999955,0.6251436457527058,-0.5107999999999038,-0.4370049999999992,0.6722276474713763,-0.2819999999998117,-0.4145050000000054,0.5013366085026091,-0.0118999999999687,-0.2642299999999977,0.2644978315601057,-0.1803999999999632,-0.1270849999999939,0.2206688859467623,-0.3751499999999623,-0.1070100000000024,0.3901136534395743,0.0122499999999945,-0.1193900000000098,0.1200168096559903,0.2410300000000234,0.0904060000000015,0.2574270881939419,0.1281900000001314,0.122326000000001,0.1771900854337904,-0.3918499999999767,-0.1821800000000166,0.4321295811443459,-0.3870899999999437,0.0405399999999644,0.3892070910196185,-0.3837499999999636,0.0507200000000125,0.3870873039767299,-0.3936300000000301,0.1993100000000254,0.4412131605018529,0.4660000000000082,0.2365099999999813,0.5225829887204508,0.261449999999968,0.3073199999999758,0.4034869079660063,0.8045399999999745,0.3315600000000245,0.8701819609713679,0.3303399999999783,0.4312700000000404,0.5432479438525475,-0.0265600000000176,-0.0330099999999902,0.0423685461161967,-0.08466999999996,0.0451300000000287,0.0959464736193875,0.3388599999999542,0.1874699999999904,0.387261023729429,-0.0773400000000492,0.2928799999999967,0.3029194117253063,-0.186649999999986,0.0520699999999862,0.1937769527059225,0.1651500000000396,-0.061930000000018,0.1763798384170235,0.0084600000000136,0.2824500000000114,0.2825766694191272,0.0393600000001015,0.1662400000000161,0.1708360243040482,0.2840350000000171,0.3692950000000223,148.549,0.1190499663306752,99.62614875,0.2922980043872056,84.722125,0.6204959288343445,-0.0039303199999999,0.2654198975,0.0221321869813873,0,0
4,133.33333333333334,571.7707,85.75545,0.9402635,576.1944,80.7791,0.9506862,570.89166,82.38656,0.59277314,590.04584,79.56493,0.94355863,576.0215,82.24008,0.18743174,599.7263,98.83748,0.9976841,581.27075,99.3815,0.96551615,588.1554,130.89362,0.99499536,568.6378,126.309784,0.80843806,554.0471,137.98737,0.98724556,549.4131,137.60794,0.7989699,588.56464,151.06871,0.99671197,576.24207,146.88837,0.98700094,540.2081,160.6571,0.9921955,527.43805,155.75137,0.9681791,549.2555,209.92326,0.9646997,537.12494,200.68857,0.91913253,1.04026888,-0.90004489,0.46132214,0.24343463,121.59615486011974,145.57513946408406,90.80939488448088,88.12813960916473,9.220321688365123,148.97854,99.10949,85.75545,72.28825000000006,130.35833,0.5545349456798435,178.31156336899494,0.8820871811764706,-0.5878999999999905,0.3237699999999961,0.6711582696354016,-0.023649999999975,-0.2170100000000019,0.2182948982454689,-0.7150000000000318,0.2925400000000024,0.772531327261262,-0.0723000000000411,-0.1211299999999937,0.1410665335932106,-0.5643900000000031,0.33527500000001,0.6564643156524277,0.1057200000000193,-0.1395799999999809,0.1750979577265216,-0.7706600000000208,0.0412200000000098,0.771761571989713,-0.0535899999999855,0.1594700000000131,0.1682336737992802,-0.3303000000000793,0.1496950000000083,0.3626385018514373,0.2951999999999088,0.1176000000000101,0.31776217521906,-0.2441000000000031,-0.1683950000000038,0.2965496350107394,0.2666999999999007,0.2686099999999953,0.3785237404707194,-0.0320500000000265,-0.1195299999999974,0.1237522662418797,-0.0201500000000578,0.1447000000000002,0.1460962439626782,-0.262450000000058,-0.0439599999999984,0.2661061519394663,0.1126999999999043,0.063050000000004,0.1291378817387793,-0.1963700000000017,-0.0555420000000026,0.204073738300647,-0.4374000000000251,-0.1459480000000041,0.4611069059383335,-0.6517499999999927,-0.3426499999999919,0.7363335419495604,-0.259900000000016,-0.1604699999999752,0.3054482458617177,-0.7040000000000646,-0.2747799999999927,0.7557248496642722,-0.3202500000001009,-0.3255000000000052,0.4566292943954297,0.595890000000054,0.2811400000000219,0.6588813183723429,0.1298900000000458,0.0446300000000405,0.1373435437143498,0.7717300000000478,0.2593899999999962,0.8141562288652416,-0.0328099999999267,-0.0721700000000282,0.0792780234365064,-0.0212000000000216,-0.2382199999999841,0.2391614693047217,0.005359999999996,-0.2052099999999939,0.2052799885522148,0.2881499999999732,-0.3523099999999886,0.4551403724127058,-0.0507099999999809,-0.539779999999979,0.5421567600795691,-0.1919500000000198,-0.1312700000000006,0.2325437924349041,-0.0053000000000338,-0.1833399999999869,0.183416590307408,0.2050800000000663,-0.3238300000000151,0.3833062421876756,0.1966200000000526,-0.6062800000000266,0.6373655644918801,0.2702649999999948,-0.0137700000000222,148.634908,0.2180151214537718,99.522817,0.3427329066735078,84.92879,0.708740791404017,-0.0390576299999999,0.261022844,0.0215417193567187,0,0
5,166.66666666666666,571.05493,85.78761,0.937744,575.2804,80.800255,0.947642,570.09216,82.51999,0.58376926,588.7267,79.48694,0.9413415,575.1868,82.44165,0.18763621,598.9005,98.485985,0.9976325,580.5209,99.330894,0.96608067,587.825,130.44557,0.9950187,567.51904,126.03595,0.8162249,552.9442,137.93051,0.9873656,547.55493,137.01984,0.8067509,588.53485,150.94914,0.9967198,576.2936,146.916,0.9872957,540.0555,160.36212,0.99204355,527.53973,155.6937,0.96816117,549.14325,209.95659,0.9635363,537.12366,200.86215,0.9175016,1.05743129,-0.9076599,0.48809749,0.2368022,121.2248273886592,144.77879845049247,90.60434723896718,88.22679139483643,8.29859870159961,148.93257,98.9084395,85.78761,71.36077,130.46965,0.5469530228144781,177.36796978302291,0.881909668235294,-0.7157700000000204,0.0321600000000046,0.7164921203335244,-0.1278700000000299,-0.2916099999999915,0.3184134560598887,-0.9139999999999872,0.0211550000000073,0.9142447888968124,-0.1989999999999554,-0.2713849999999951,0.3365275890992886,-0.7994999999999663,0.1334300000000041,0.8105577184259904,-0.2351099999999633,-0.2018450000000058,0.3098679010884881,-1.3191399999999476,-0.0779899999999997,1.321443445517008,-0.5484799999999268,-0.1192100000000095,0.5612854305074397,-0.834699999999998,0.2015699999999896,0.8586935162792325,-0.5043999999999187,0.0518749999999812,0.5070605246170481,-0.825800000000072,-0.3514949999999999,0.8974933843907257,-0.5817000000000689,-0.183099999999996,0.6098364534857511,-0.7498500000000377,-0.0506060000000019,0.7515557129954217,-0.7178000000000111,0.0689239999999955,0.7211014892343623,-0.3303999999999405,-0.4480499999999949,0.5566982688135074,-0.0679499999998825,-0.4040899999999965,0.4097632616523609,-1.118759999999952,-0.2738339999999937,1.151785134977826,-0.9223899999999504,-0.218291999999991,0.9478685084777868,-1.102899999999977,-0.0568600000000003,1.104364735764389,-0.4511499999999842,0.2857899999999915,0.5340526627590025,-1.8581699999999728,-0.5881000000000256,1.9490144583609248,-1.1541699999999082,-0.3133200000000329,1.19594222740892,-0.0297900000000481,-0.1195700000000101,0.1232251151348835,-0.6256800000001022,-0.4007100000000321,0.7429966127110901,0.051529999999957,0.0276299999999878,0.0584701445183342,-0.7202000000000908,-0.2317600000000084,0.756571700237416,-0.152599999999893,-0.2949800000000095,0.332114378490262,-0.1313999999998714,-0.0567600000000254,0.1431351026127731,0.1016799999999875,-0.0576700000000016,0.1168958994148112,-0.1864699999999857,0.2946399999999869,0.348688672744021,-0.1122500000000172,0.0333300000000065,0.1170937718241423,0.0797000000000025,0.1646000000000071,0.1828804254150858,-0.0012800000000652,0.1735800000000154,0.1735847193735828,-0.2063600000001315,0.4974100000000305,0.5385175556099213,-0.0459700000000111,-0.316235000000006,148.710625,0.2467342632266633,99.3118689,0.3282179220947196,85.29862,0.5201444935303909,-0.00663243,0.258615518,0.0237980881461393,0,0
6,200.0,570.1754,85.51276,0.9336155,574.36664,80.6673,0.9413106,569.2136,82.36949,0.5758025,587.7156,79.69851,0.9344399,574.0919,82.631516,0.18848583,597.99457,98.602,0.9974368,579.0142,99.19237,0.9676117,586.6911,129.86722,0.9947389,565.13275,124.95209,0.8333842,553.1197,137.45645,0.98700213,546.0759,136.35442,0.82183605,588.3115,150.06108,0.9968966,575.6599,146.02829,0.9887283,539.8279,159.61893,0.99263215,527.1261,154.92955,0.9722304,549.0206,209.31573,0.96661603,536.865,200.33116,0.9269806,1.02203624,-0.87916503,0.47655215,0.21100943,122.61500081354772,149.21287745459907,90.67217589233192,88.28593481170756,7.5553430906212835,148.04468500000002,98.897185,85.51276,70.86847,129.61722,0.546751962842962,178.2184326657947,0.8835145994117647,-0.8795300000000452,-0.2748500000000007,0.9214746569494356,-0.1637600000000247,-0.3070100000000053,0.3479547063915236,-0.9137600000000248,-0.1329550000000097,0.9233820279954812,0.0002399999999624,-0.154110000000017,0.1541101868794053,-0.8785599999999931,-0.150500000000008,0.8913573489908468,-0.0790600000000267,-0.2839300000000122,0.2947316211403371,-1.0111000000000558,0.2115699999999947,1.032998100143515,0.3080399999998917,0.2895599999999945,0.4227690092709376,-1.0948999999999387,0.1898660000000092,1.1112403466198792,-0.2601999999999407,-0.0117039999999803,0.2604630945373426,-0.905930000000012,0.1160150000000044,0.9133283336922288,-0.08012999999994,0.4675100000000043,0.4743273310700053,-1.5067000000000237,-0.1385240000000038,1.5130544565798256,-0.7568499999999858,-0.0879180000000019,0.7619393002227796,-1.1339000000000397,-0.5783500000000004,1.27287781522819,-0.8035000000000991,-0.1303000000000054,0.8139965233341975,-2.386290000000031,-1.0838600000000014,2.62090298631982,-1.2675300000000789,-0.8100260000000077,1.50425211370176,0.1754999999999427,-0.4740600000000086,0.5055028522174608,1.2783999999999196,-0.4172000000000082,1.3447536577380266,-1.479029999999966,-0.6654199999999832,1.6218241326666332,0.3791400000000067,-0.0773199999999576,0.386943822796021,-0.2233499999999821,-0.8880599999999959,0.9157159964202792,-0.193559999999934,-0.7684899999999857,0.7924912325697695,-0.6336999999999762,-0.8877099999999984,1.0906900265886577,-0.6852299999999332,-0.9153399999999864,1.143410454954774,-0.2276000000000522,-0.7431899999999985,0.7772600183336471,-0.0750000000001591,-0.4482099999999889,0.4544416399275202,-0.4136300000000119,-0.7641500000000008,0.8689159909910802,-0.5153099999999995,-0.7064799999999991,0.8744474749806292,-0.1226500000000214,-0.6408600000000035,0.652491043693329,-0.0104000000000041,-0.6741900000000101,0.6742702100048716,-0.2586599999999635,-0.5309900000000027,0.5906398019943999,-0.2573799999998982,-0.7045700000000181,0.750108891628391,-0.8878849999999829,-0.8419149999999718,148.61766200000002,0.3883701223478704,99.1545274,0.2918421908273854,85.47568,0.3608497445613328,-0.0257927699999999,0.25203222,0.0320127016203092,0,0
7,233.3333333333333,568.48425,88.02374,0.934562,572.3333,82.79657,0.9453087,567.29346,84.92591,0.5707498,585.7451,80.35838,0.93892473,572.38635,84.39413,0.17714125,596.81024,98.0694,0.9975096,578.48615,99.58719,0.96421003,585.50745,129.11632,0.9950545,564.36664,125.06781,0.81713086,551.9277,137.949,0.9875916,545.70905,137.1891,0.80951595,588.15753,149.87325,0.99684095,575.8979,146.21954,0.987789,539.21387,158.8126,0.99260557,527.07074,154.59903,0.9702964,548.82275,209.41963,0.9667732,535.7001,200.19653,0.924325,0.9992541,-0.87769116,0.43503807,0.19725329,124.74132014760563,152.00264102278237,89.59982430431475,89.02144718640523,6.514703207366615,148.04639500000002,98.828295,88.02374,69.73950000000002,129.06125000000003,0.5403597087401547,175.2649820174935,0.8809605376470587,-1.6911499999999933,2.5109800000000035,3.027376567739797,-0.811619999999948,2.785830000000004,2.901650532593465,-2.033339999999953,2.1292700000000053,2.944191279197028,-1.119579999999928,2.262225000000015,2.524108026021253,-1.9201400000000604,2.556420000000003,3.1972207987563586,-1.0415800000000672,2.706920000000011,2.900397349123081,-1.9705000000000157,0.659869999999998,2.0780516516439285,-0.9593999999999596,0.4483000000000032,1.058971789048191,-1.7055500000000166,1.7626139999999992,2.4526942156526674,-0.6106500000000779,1.57274799999999,1.6871365368588471,-1.1843299999999315,-0.5326000000000022,1.2985762622579549,-0.2783999999999196,-0.6486150000000066,0.7058384930173217,-0.5280500000000075,0.3948200000000099,0.6593327194217012,0.978650000000016,0.5333440000000138,1.114545488006679,-1.183650000000057,-0.7509000000000015,1.4017411075159838,-0.0497500000000172,-0.1725500000000011,0.1795788545458571,-0.766110000000026,0.115719999999996,0.7748003939725631,1.6201800000000048,1.1995799999999974,2.015930407727412,-1.1920000000000073,0.4925500000000227,1.2897555979719724,-1.36749999999995,0.9666100000000312,1.6746316437055415,-0.3668499999999994,0.8346799999999917,0.9117398888389088,1.1121799999999666,1.500099999999975,1.867416494090124,-0.1539700000000721,-0.187829999999991,0.2428721264369768,0.06937999999991,0.7002300000000048,0.7036587506028715,0.2380000000000564,0.1912499999999966,0.3053204259462925,0.8717000000000326,1.078959999999995,1.3870888838138835,-0.614029999999957,-0.8063300000000027,1.013509205582244,-0.3864299999999048,-0.0631400000000041,0.391554344248569,-0.0553599999999505,-0.330520000000007,0.3351241560974069,0.3582700000000614,0.4336299999999937,0.5624876619091645,-0.197849999999903,0.1039000000000101,0.2234722186312288,-0.0751999999998815,0.7447600000000136,0.7485469241136473,-1.1648999999999887,-0.1346300000000155,1.1726539331362762,-0.9062400000000252,0.3963599999999871,0.9891269823435388,0.0017100000000027,0.8895949999999857,148.542093,0.4646789090678627,98.9993724,0.1765369060973657,86.102248,1.0849602498109967,-0.01375614,0.234198362,0.0328901737427695,0,0
8,266.6666666666667,566.37976,87.94777,0.9244029,570.05804,82.89615,0.9361729,565.6369,84.97692,0.521482,583.83734,80.84225,0.93488204,571.61505,84.76245,0.15806276,595.5522,98.57196,0.9974831,577.48444,99.699326,0.96378994,583.8161,129.2157,0.99533844,562.1594,124.512085,0.8262957,550.6773,138.10118,0.98831254,543.8677,136.83084,0.8192976,587.6184,149.77765,0.99726033,575.4596,146.0004,0.98944795,539.536,158.47272,0.993658,527.08563,154.1261,0.974631,549.2864,208.88937,0.9711968,535.2687,199.67007,0.93439204,1.02256192,-0.90446651,0.43209033,0.2021662,125.96572457843584,155.65936177571413,89.30474028241422,89.34945379309195,5.831570076780966,147.889025,99.135643,87.94777,68.46656999999993,128.04712,0.5346982381587473,176.42956950142036,0.8780062376470589,-2.1044899999999416,-0.0759699999999981,2.105860774362767,-0.4133399999999483,-2.5869500000000016,2.619763397350983,-2.275260000000003,0.0995800000000031,2.277438087852228,-0.2419200000000501,-2.029690000000002,2.044056452865241,-1.6565600000000131,0.0510100000000051,1.6573451824227938,0.2635800000000472,-2.5054099999999977,2.5192367265701754,-1.9077599999999395,0.4838700000000102,1.9681662517429208,0.0627400000000761,-0.1759999999999877,0.1868483545552522,-0.7712999999999965,0.3683199999999971,0.8547299646087018,0.93425000000002,-1.394294000000002,1.6783559875473508,-1.258040000000051,0.5025600000000026,1.354707051432202,-0.0737100000001191,1.0351600000000047,1.037780993129103,-1.0017100000000028,0.1121359999999924,1.0079669670162823,-0.4736599999999953,-0.2826840000000175,0.551601341057113,-1.691349999999943,0.0993799999999964,1.6942671592460872,-0.5076999999998861,0.8502799999999979,0.9903208411418396,-2.207239999999956,-0.5557249999999954,2.2761236111478658,-1.44112999999993,-0.6714449999999914,1.589872342335946,-1.2504000000000133,0.1521799999999871,1.2596264971808226,-0.058400000000006,-0.3403700000000356,0.3453437373111389,-1.841350000000034,-0.3582600000000013,1.875878474235505,-1.4745000000000346,-1.192939999999993,1.8966433754399072,-0.5391300000000001,-0.0956000000000187,0.5475404249003024,-0.385159999999928,0.0922299999999722,0.3960487324811675,-0.4383000000000265,-0.2191399999999816,0.4900298252147672,-0.676300000000083,-0.4103899999999782,0.7910762555532143,0.3221299999999019,-0.3398799999999937,0.4682799924189934,0.9361599999998588,0.4664500000000089,1.0459307568380156,0.0148900000000367,-0.4729299999999909,0.4731643445992022,0.0702499999999872,-0.1424099999999839,0.1587944287435602,0.4636499999999159,-0.5302599999999984,0.7043770226944661,0.661499999999819,-0.6341600000000085,0.916373916913708,-0.4314000000000533,-0.5264599999999859,0.6806365341355335,0.7334999999999354,-0.3918299999999703,0.8315966563784886,-0.1573700000000144,-0.1590800000000172,148.37824300000003,0.5311198539713123,98.9758105,0.1377482126998563,86.605466,1.264782906956729,0.0049129099999999,0.21813315,0.0207987845237011,0,0
9,300.0,564.8514,88.736465,0.91516656,568.20703,83.73688,0.9302023,564.20325,85.72826,0.4802921,581.3378,81.171265,0.9344031,570.5054,84.925575,0.14522627,593.7908,97.95447,0.9974942,577.03973,99.371635,0.9609403,583.3501,128.71378,0.99562895,562.6812,124.985916,0.8190857,549.9352,137.81697,0.9888742,544.0035,136.99469,0.81485367,588.0204,149.58757,0.9973774,576.76263,145.93216,0.9895,539.2486,157.5324,0.9940469,527.5,153.43048,0.9752358,548.0165,208.81009,0.97290885,534.6999,199.79315,0.9366812,1.0266687,-0.92559202,0.39376964,0.20560523,123.98808061862816,152.01244232007156,89.54901594524456,89.82737622406596,3.524271447890124,147.759865,98.6630525,88.736465,66.29079999999999,127.638825,0.5193623451221652,175.16420863247183,0.8734069117647059,-1.5283600000000206,0.7886949999999899,1.7198616492686405,0.576129999999921,0.864664999999988,1.0390242245130228,-1.8510099999999736,0.8407299999999935,2.0329940858251145,0.4242500000000291,0.7411499999999904,0.8539855882858975,-1.4336499999999432,0.751339999999999,1.6185994310204843,0.2229100000000698,0.7003299999999939,0.7349496424926151,-2.4995400000000245,0.3290149999999983,2.5211011645360686,-0.5917800000000852,-0.1548550000000119,0.6117055169157006,-1.1096499999999878,0.1631249999999937,1.1215760732669768,-0.3383499999999912,-0.2051950000000033,0.3957091236312292,-1.7613999999999803,-0.6174900000000036,1.8665004313152287,-0.5033599999999296,-1.1200500000000062,1.227958994470069,-0.4447099999999864,-0.3276910000000015,0.5524023674650471,0.5570000000000164,-0.439826999999994,0.7097159924427608,-0.4660000000000082,-0.5019199999999842,0.6848939234655186,1.2253499999999349,-0.6012999999999806,1.364933812497814,0.5217999999999847,0.4738310000000041,0.7048340631389689,2.729039999999941,1.0295559999999997,2.916786738645058,-0.7420999999999367,-0.2842100000000016,0.7946620250772695,0.5083000000000766,-0.4363899999999887,0.6699291918554289,0.1358000000000174,0.1638499999999965,0.2128108608600688,1.9771500000000517,0.5221099999999979,2.044925664810387,0.4020000000000436,-0.1900799999999947,0.4446733704642466,0.9411300000000438,-0.0944799999999759,0.9458605326897184,1.3030299999999215,-0.0682400000000029,1.3048156492393077,1.741329999999948,0.1508999999999787,1.7478561093235945,-0.2873999999999341,-0.940320000000014,0.9832601193987216,-0.609529999999836,-0.6004400000000203,0.8556021356330432,0.4143699999999626,-0.6956200000000194,0.809684927178465,0.3994799999999259,-0.2226900000000284,0.4573566513126856,-1.269900000000007,-0.0792800000000113,1.272372323024994,-1.7335499999999229,0.450979999999987,1.7912505583808538,-0.5688000000000102,0.1230799999999874,0.5819640250049899,-0.1373999999999569,0.6495399999999734,0.6639133765785665,-0.129160000000013,0.0282100000000014,148.134508,0.4618858919365534,98.886523,0.170282375754609,87.201669,1.4525875755543525,0.00343903,0.21056727,0.0154994269177717,0,0
10,333.3333333333333,563.59686,89.0376,0.9183222,566.85535,83.982285,0.9277778,562.33734,86.195946,0.5127099,579.4321,81.49724,0.92748404,567.4795,85.88223,0.16276266,592.45087,98.294464,0.9972867,574.3682,100.07875,0.9656515,582.5773,129.05557,0.9951297,559.7927,125.03441,0.844929,549.647,138.08539,0.9880823,542.30835,136.80371,0.83665955,588.6343,148.8966,0.99744534,576.5037,145.55609,0.9908414,539.0118,156.70424,0.9943809,527.1187,153.33838,0.97892934,547.1049,208.1494,0.975066,533.82153,200.16849,0.9451462,1.07457125,-0.97987966,0.40285852,0.17956682,123.12953753263518,154.2331296358873,90.00143313117327,90.8097934038246,1.0024506925100014,147.226345,99.186607,89.0376,65.33217000000002,126.65216,0.5158393625830041,174.36464928513564,0.8799179135294117,-1.25454000000002,0.3011350000000021,1.290175530625601,0.2738200000000006,-0.4875599999999878,0.559188828572235,-1.3516799999999876,0.2454050000000052,1.3737767054456007,0.4993299999999863,-0.5953249999999883,0.7770085614232138,-1.8659099999999853,0.4676860000000005,1.9236294660604327,-0.432260000000042,-0.2836539999999985,0.5170186643787974,-1.9057000000000244,0.3259749999999997,1.933378439578008,0.5938400000000001,-0.0030399999999985,0.5938477811695521,-3.0258999999999787,0.956655000000012,3.1735247909894917,-1.916249999999991,0.7935300000000183,2.0740549470541985,-1.3399299999999812,0.3399940000000043,1.382392247133914,0.4214699999999993,0.957484000000008,1.0461417548095548,-2.671529999999961,0.7071150000000017,2.76352748568289,-2.226819999999975,1.0348060000000032,2.4555143595662186,-0.7727999999999611,0.3417899999999747,0.8450090201293253,-0.3067999999999529,0.8437099999999589,0.8977598810928799,-2.888500000000022,0.0484939999999909,2.888907045585947,-3.4103000000000065,-0.4253370000000132,3.4367219342811337,-0.2881999999999607,0.2684199999999919,0.3938382109445108,0.453899999999976,0.5526299999999935,0.7151399351874925,-1.6951500000000124,-0.1909799999999961,1.705874228335735,-1.8309500000000296,-0.3548299999999926,1.865015343475786,0.6139000000000578,-0.690969999999993,0.9242904039857068,0.2119000000000142,-0.5008899999999983,0.5438680006214782,-0.2589299999999639,-0.3760699999999985,0.4565888629828593,-1.5619599999998854,-0.3078299999999956,1.59200450706009,-0.2368000000000165,-0.8281599999999969,0.8613496535089584,0.0505999999999176,0.1121600000000171,0.1230456240587023,-0.3813000000000102,-0.0920999999999878,0.3922653438681596,-0.7956699999999728,0.6035200000000316,0.9986626754314966,-0.9115999999999076,-0.6606899999999882,1.1258444990760563,0.3583000000000993,-0.5814099999999769,0.6829469072336768,-0.8783699999999044,0.3753399999999942,0.9552036288142062,-0.3095699999998942,0.2522600000000068,0.3993353133645182,-0.5335199999999816,-0.4043599999999685,147.793263,0.3387368585200899,98.9421565,0.217990247742321,87.85166699999999,1.3873207487707504,-0.02603841,0.1991201939999999,0.0120260918679563,0,0
11,366.6666666666666,562.1542,90.264145,0.9079506,565.14374,85.1393,0.9177673,560.83124,87.45616,0.48041308,577.4574,82.096634,0.92132574,566.0743,86.771286,0.15324917,591.35675,98.47443,0.9970427,573.35114,100.152176,0.9639955,581.47003,129.5365,0.99490947,558.7373,125.06383,0.8462214,548.53534,138.55064,0.98781836,542.3357,137.51443,0.8391969,588.9516,149.38089,0.9974049,577.07196,145.99083,0.9909191,537.55316,156.05818,0.99454653,527.57996,152.50581,0.97995305,545.0591,208.72293,0.9763689,534.53174,200.33688,0.948621,1.03289871,-0.94499801,0.3795222,0.17268874,122.9625521532802,157.59947715672274,89.29062986928905,89.22964885628473,0.7792240198392268,147.68586,99.313303,90.264145,63.776790000000005,126.626296,0.5036614945788078,174.6766035347441,0.8763355117647058,-1.4426600000000462,1.2265450000000016,1.8935893199490583,-0.1881200000000262,0.9254099999999994,0.9443372292248192,-1.7116100000000642,1.1570150000000012,2.0659846326449824,-0.3599300000000767,0.911609999999996,0.9800930552758998,-1.5061000000000604,1.2602139999999906,1.9637913676855183,0.3598099999999249,0.7925279999999901,0.8703814490692747,-1.9746999999999844,0.5993939999999895,2.063665006059832,-0.0689999999999599,0.2734189999999898,0.2819910451787236,-1.4052000000000362,0.8890559999999965,1.6628312034407149,1.6206999999999423,-0.0675990000000155,1.622109156253307,-1.0941199999999751,0.1799659999999932,1.108822048642587,0.2458100000000058,-0.1600280000000111,0.293311296891215,-1.017060000000015,0.0734259999999977,1.019707027079852,1.6544699999999466,-0.6336890000000039,1.7716751196595917,-1.107270000000085,0.4809300000000007,1.2072035941796184,-0.3344700000001239,0.139140000000026,0.362256981299312,-1.0553999999999633,0.0294200000000017,1.0558099717278306,1.8331000000000583,-0.0190739999999891,1.8331992328921085,-1.111660000000029,0.4652499999999975,1.2050914978125362,-0.8234600000000682,0.1968300000000056,0.8466572036545338,0.0273499999999558,0.7107200000000091,0.7112460480733869,1.7224999999999682,0.9017000000000052,1.9442399903303864,0.3172999999999319,0.4842899999999872,0.5789784919148072,-0.2966000000001259,1.1752599999999802,1.2121087523815792,0.5682600000000093,0.4347399999999766,0.7154846575573722,0.8271899999999732,0.8108099999999752,1.1582988181811786,-1.4586399999999458,-0.6460600000000056,1.595313189690303,-1.2218399999999292,0.1820999999999912,1.2353353373071718,0.4612600000000384,-0.832570000000004,0.9518054383643972,0.8425600000000486,-0.7404700000000162,1.1216965607953453,-2.0458000000000998,0.5735299999999768,2.124672751484421,-1.1342000000001915,1.234219999999965,1.6762185562749117,0.7102099999999609,0.1683900000000164,0.7298996069323165,1.588579999999865,-0.2069499999999777,1.6020033454707774,0.4595149999999819,0.9930349999999636,147.72149800000005,0.3088454077205409,99.0253801,0.2698033742877507,88.801944,0.9398228160229408,-0.0068780799999999,0.1914560559999999,0.014509310062347,0,0
12,400.0,561.468,91.20298,0.9234856,564.6478,86.08191,0.93267065,559.6238,88.34317,0.5353757,577.0531,83.10542,0.9289105,564.00085,87.744774,0.17073157,589.96356,99.49492,0.9972018,572.69617,101.06977,0.9661316,579.0116,129.41469,0.994842,558.3284,124.86969,0.84574306,547.8564,138.7236,0.98768824,541.8158,137.27676,0.83957326,589.1808,149.25534,0.9971795,577.9407,145.8878,0.9901924,535.8573,155.68489,0.9940899,528.3553,152.19962,0.9783005,541.1288,208.55243,0.9744762,534.552,200.13013,0.94456637,1.02939257,-0.93566348,0.37657446,0.20585088,126.74056212383388,158.0390501778688,91.18109700312874,89.88764835027729,2.700970734742964,147.57157,100.282345,91.20298,61.60825999999997,125.44701,0.4911098280372736,174.78882956995636,0.8824211088235295,-0.6861999999999853,0.9388349999999974,1.162876432483252,0.756460000000061,-0.2877100000000041,0.8093261244393972,-0.4959400000000187,0.9426099999999876,1.0651150621881165,1.2156700000000455,-0.2144050000000135,1.2344322796026992,-1.2074400000000196,0.8870100000000036,1.4982316555526565,0.2986600000000408,-0.373203999999987,0.4779947920385897,-0.4043000000000347,1.0087860000000006,1.0867877823181624,1.5703999999999496,0.4093920000000111,1.6228856921126178,-2.07344999999998,0.9734880000000032,2.2906055506446155,-0.6682499999999436,0.0844320000000067,0.6735627848418629,-1.393190000000004,1.0204899999999952,1.7269563446132623,-0.2990700000000288,0.840524000000002,0.8921454250715074,-0.6549699999999348,0.9175940000000082,1.1273705911260634,0.3620900000000802,0.8441680000000105,0.9185471029425089,-2.4584299999999075,-0.1218099999999822,2.461445863918104,-1.3511599999998225,-0.602739999999983,1.4795029074657136,-0.4089000000000169,-0.1941399999999902,0.4526472684110775,0.6464999999999463,-0.223559999999992,0.6840623682091619,-0.6789400000000114,0.1729600000000175,0.7006244965743216,0.4327200000000175,-0.2922899999999799,0.5221877464092809,-0.5199000000000069,-0.2376700000000084,0.5716494020813905,-0.5472499999999627,-0.9483900000000176,1.0949548641839044,0.2291999999999916,-0.125550000000004,0.2613339673674227,-0.0880999999999403,-0.6098399999999913,0.6161707844420886,0.8687400000000025,-0.1030299999999897,0.8748281937043423,0.3004799999999932,-0.5377699999999663,0.6160233788582701,-1.6958600000000388,-0.3732899999999972,1.7364580512353671,-0.237220000000093,0.2727700000000084,0.3614924636836136,0.7753400000000283,-0.3061899999999866,0.8336092799987509,0.3140799999999899,0.5263800000000174,0.6129617857583064,-3.930299999999989,-0.1705000000000041,3.933996484492571,-1.884499999999889,-0.7440299999999809,2.026060436141912,0.0202600000000074,-0.2067499999999995,0.2077402948394945,-0.6899499999999534,-0.375140000000016,0.7853413411376914,-0.1142899999999826,-0.5738049999999646,147.626533,0.2516796236936472,99.3161901,0.5935994831951512,89.437792,1.291406860194439,0.03316214,0.193175574,0.0158184989736692,0,0
13,433.33333333333337,559.4313,93.49257,0.8942316,561.7395,88.65165,0.9110148,558.09717,90.53203,0.4057319,572.47815,83.75437,0.91569424,563.88403,87.88608,0.112474374,586.49066,98.3226,0.9963726,572.52203,99.16838,0.9447396,577.738,129.77878,0.9948388,557.3069,124.98692,0.7877365,547.10004,138.14249,0.9887777,542.6091,136.35991,0.8093204,587.84015,149.12253,0.9964302,579.17554,145.56726,0.9858349,533.938,155.8281,0.9941584,530.923,151.82898,0.974944,540.1578,211.14609,0.9792509,536.6985,201.67706,0.9498907,1.01464666,-0.91674878,0.36453783,0.23704785,120.81806224861474,158.2435756824106,90.67608087670756,90.78500064811529,4.706925099676032,147.344895,98.74549,93.49257,56.91714999999999,127.39172,0.446788453387799,176.53505500178957,0.8612612714117647,-2.036699999999996,2.289590000000004,3.064370940029944,-1.350500000000011,1.3507550000000066,1.910075736724868,-2.90829999999994,2.56974000000001,3.8809499555649647,-2.412359999999921,1.6271300000000224,2.9098166276416277,-1.5266299999999546,2.1888600000000054,2.6686527043622377,-0.319189999999935,1.3018500000000015,1.340408772949492,-4.574949999999944,0.6489499999999992,4.6207470829942086,-4.17064999999991,-0.3598360000000014,4.186144212684896,-0.1168199999999615,0.1413060000000001,0.1833420247406225,1.9566300000000183,-0.8321820000000031,2.1262473604978505,-3.472899999999981,-1.1723199999999991,3.665428841540901,-2.0797099999999773,-2.1928099999999944,3.0221861921794098,-0.1741400000000794,-1.9013900000000064,1.909347708433446,0.4808299999998553,-2.8189840000000146,2.8596972359248003,-1.2735999999999876,0.3640900000000044,1.3246201297353033,1.18482999999992,0.4858999999999867,1.2805939789409433,-1.0214999999999463,0.1172299999999921,1.0282048059116864,-0.6125999999999294,0.3113699999999824,0.6871899569259599,-0.7563599999999724,-0.5811099999999954,0.9538182645032296,-0.0774199999999609,-0.7540700000000129,0.7580339183044604,0.7933000000000447,-0.9168499999999824,1.2124103317359345,1.3132000000000517,-0.6791799999999739,1.478438268038304,-1.3406499999999824,-0.1328099999999779,1.347212276740361,-1.569849999999974,-0.0072599999999738,1.569866787373985,1.2348399999999629,-0.320539999999994,1.2757647577825248,0.3660999999999603,-0.2175100000000043,0.4258401226986166,-1.919300000000021,0.1432100000000105,1.924635444467363,-0.2234399999999823,0.5165000000000077,0.5627589924648029,2.567699999999945,-0.3706400000000087,2.5943124907381003,1.792359999999917,-0.0644500000000221,1.7935183779654185,-0.9710000000000036,2.59366,2.769460813154793,2.9592999999999847,2.764160000000004,4.049448974317362,2.1464999999999463,1.5469300000000032,2.6458372351487878,2.126239999999939,1.7536800000000028,2.756136803571214,-0.2266750000000001,-0.1123850000000175,147.517707,0.2261487085583043,99.2381595,0.6465483087012935,90.546752,1.9198323087596023,0.0311969699999999,0.200151904,0.0255024458793843,0,0
14,466.6666666666667,557.2021,92.02247,0.88841283,559.5632,87.28022,0.9084904,556.1151,88.99991,0.39037567,570.4342,83.24449,0.91561776,562.3913,86.93452,0.107345626,584.5174,98.47418,0.99600345,571.60803,99.50803,0.9385602,576.0601,129.0306,0.9943176,557.2928,125.35828,0.7681774,546.31964,138.16705,0.9877143,542.75354,136.6419,0.7937502,587.5444,149.54218,0.995739,579.53046,146.11296,0.9830873,533.73303,155.03107,0.993024,530.8825,151.23538,0.97013533,539.2797,211.00867,0.9756469,536.1305,201.852,0.94141287,1.00747419,-0.89783408,0.38836544,0.24097818,122.54811540226932,156.7909025299794,90.16535164141104,90.09149474407027,6.396334888343232,147.82756999999998,98.991105,92.02247,56.661899999999946,127.76418,0.4434881479027361,175.42122591550668,0.8557535785882353,-2.229199999999992,-1.4701000000000022,2.670304598730259,-0.1924999999999954,-3.759690000000006,3.76461487354285,-2.1762999999999693,-1.3714300000000037,2.5723728219097395,0.7319999999999709,-3.941170000000014,4.008571437420078,-1.982070000000021,-1.532120000000006,2.5051932419077185,-0.4554400000000669,-3.720980000000012,3.748748825141549,-2.0439499999999957,-0.5098799999999954,2.106587101664675,2.530999999999949,-1.1588299999999947,2.783675262831448,-1.4927300000000514,-0.9515600000000006,1.7702285972439138,-1.37591000000009,-1.0928660000000008,1.7571239062901196,-1.973260000000096,0.1515800000000098,1.97907340035694,1.4996399999998855,1.323900000000009,2.000407793326071,-0.9139999999999872,0.339650000000006,0.9750682655588688,-0.7398599999999078,2.2410400000000124,2.360011250227405,-1.6779000000000224,-0.7481800000000192,1.8371504354298545,-0.4043000000000347,-1.1122700000000236,1.1834707613203128,-0.0140999999999849,0.3713599999999957,0.3716275818611912,1.0073999999999614,0.2541300000000035,1.0389594876124495,-0.780399999999986,0.0245599999999797,0.7807863687334565,-0.0240400000000136,0.6056699999999751,0.6061469050485785,0.1444400000000314,0.2819899999999791,0.3168300391377012,-0.6488600000000133,1.1988399999999615,1.363171539168833,-0.2957499999999982,0.4196499999999901,0.5133947652635257,1.0448999999999842,0.552459999999968,1.181959416223726,0.3549199999999928,0.5456999999999823,0.6509659717680915,-0.8799199999999701,0.8662399999999764,1.234759468074615,-0.2049700000000029,-0.7970300000000066,0.8229638642127682,1.714330000000018,-0.9402400000000172,1.9552438739195923,-0.0404999999999518,-0.5936000000000092,0.594980008067504,-2.608199999999897,-0.2229600000000005,2.617712436766014,-0.878099999999904,-0.1374199999999916,0.8887878635534067,0.0929000000000996,-2.7310799999999915,2.732659579310964,-0.5679999999999836,0.1749399999999923,0.5943298777614825,-2.71449999999993,-1.371990000000011,3.041523764513381,0.482674999999972,0.7093499999999722,147.531248,0.2454744090176904,99.30377,0.5875506441805685,91.203953,1.6944072116951994,0.0039303299999999,0.207226494,0.0315764782415214,0,0
15,500.0,555.21344,92.54814,0.85948855,557.2019,87.89844,0.88554704,554.6224,89.60073,0.31967184,567.62494,83.71857,0.907747,561.99634,87.31514,0.09104776,582.37286,98.29548,0.9957391,570.8345,99.7255,0.9305176,573.8532,128.75461,0.9945393,556.2581,126.36029,0.7582509,544.84686,138.88196,0.98794377,541.7437,137.39966,0.78621006,586.1194,150.2886,0.9958391,579.08185,147.06891,0.98293674,532.2708,155.43054,0.9930125,530.19556,151.75504,0.96914816,538.20593,211.29807,0.97519284,534.93427,201.91693,0.93916756,1.02841425,-0.91109894,0.4119474,0.24048689,124.8729991744655,155.94644111422087,89.39045264556293,90.07889367812604,6.884574735560633,148.678755,99.01049,92.54814,55.92384000000004,127.5795,0.4383450284854151,172.93500743564678,0.845411754117647,-1.9886599999999817,0.5256700000000052,2.056963185013269,0.2405400000000099,1.9957700000000076,2.010213268412094,-2.3613000000000284,0.6182199999999938,2.44088788320974,-0.1850000000000591,1.9896499999999973,1.998232249389448,-1.4927000000000137,0.6008199999999988,1.6090798496035053,0.4893700000000081,2.132940000000005,2.1883592119439688,-2.8092599999999948,0.4740800000000007,2.848981150165787,-0.7653099999999995,0.9839599999999962,1.2465458987538292,-0.3949599999999691,0.3806199999999933,0.5485116097221375,1.0977700000000823,1.332179999999994,1.726210452204529,-2.1445400000000063,-0.1787000000000063,2.151972467667751,-0.1712799999999106,-0.3302800000000161,0.3720506911698727,-0.773529999999937,0.2174699999999916,0.8035184265465845,0.1404700000000502,-0.1221800000000143,0.1861713546709526,-2.2069000000000187,-0.2759899999999788,2.2240903961170444,-0.5289999999999964,0.4721900000000403,0.7090870158873551,-1.0347000000000437,1.0020100000000127,1.4403569453785112,-1.0206000000000586,0.630650000000017,1.1997265448843504,-1.472780000000057,0.7149100000000033,1.6371246856914023,-0.692380000000071,0.6903500000000236,0.9777388132319034,-1.0098400000000538,0.7577600000000189,1.2625280365996383,-1.1542800000000852,0.4757700000000397,1.248486848669314,-1.4249999999999543,0.7464200000000005,1.608654038754098,-1.1292499999999563,0.3267700000000104,1.175578238740369,-0.4486099999999169,0.9559500000000014,1.055978851398042,-0.8035299999999097,0.4102500000000191,0.9022003787407044,-1.4622299999999768,0.399470000000008,1.5158142543860504,-1.2572599999999738,1.1965000000000146,1.73560218875178,-0.6869400000000496,0.519660000000016,0.8613553733506775,-0.6464400000000978,1.1132600000000252,1.28733542684111,-1.0737700000000814,0.2894000000000005,1.1120855960312477,-0.1956700000001774,0.4268199999999922,0.4695338766266634,-1.196230000000014,0.0649300000000039,1.1979908671605282,-0.6282300000000305,-0.1100099999999884,0.6377892543779926,0.8511850000000152,0.3685100000000432,147.82173,0.5106217425722666,99.2685466,0.6014452569023233,91.906061,1.2382485966293992,-0.0004912899999999,0.219410508,0.0299467915772235,0,0
16,533.3333333333334,553.0506,93.61362,0.911338,555.48694,88.75358,0.9314976,551.54706,90.736664,0.4465981,566.81726,84.34217,0.9310452,557.4665,88.79205,0.11455131,581.0613,99.01952,0.99663097,568.45013,101.59512,0.9408272,571.54285,128.73102,0.9948143,555.26764,127.90146,0.7557701,543.3802,138.61534,0.98827434,541.91266,137.63974,0.78240275,586.44543,149.59543,0.9957806,578.49133,146.83026,0.9822504,531.6782,155.19974,0.9930368,529.151,151.8946,0.96833503,537.0439,211.42169,0.9756294,534.1161,201.93784,0.93906146,1.02841425,-0.91109894,0.4119474,0.24048689,127.10318763778275,152.715166574566,90.39104644119476,90.1942468738246,9.14599597210446,148.21284500000002,100.30732,93.61362,57.294430000000034,127.07952000000002,0.4508549414504011,168.45712815597523,0.8616378564705882,-2.16283999999996,1.0654799999999938,2.4110422012067345,-0.1741799999999784,0.5398099999999886,0.5672155749800777,-1.7149600000000191,0.8551400000000058,1.916338232463172,0.6463400000000092,0.236920000000012,0.6883941327466538,-3.075339999999983,1.135934000000006,3.2784237322158205,-1.5826399999999694,0.5351140000000072,1.6706574641726863,-0.8076800000000048,0.6235999999999962,1.0204038133993831,2.00157999999999,0.1495199999999954,2.007156876479753,-4.529840000000036,1.4769100000000035,4.764526584425816,-4.1348800000000665,1.0962900000000104,4.277742907013064,-1.3115599999999858,0.7240400000000022,1.4981400319062188,0.8329800000000205,0.9027400000000084,1.2283302438676862,-2.384370000000104,1.8696199999999976,3.0299668713206227,-1.6108400000001666,1.652150000000006,2.3074672539606182,-2.3103499999999717,-0.0235900000000128,2.3104704305833192,-0.1034499999999525,0.252399999999966,0.2727776796220193,-0.9904599999999846,1.541169999999994,1.831997811270513,0.0442400000000589,0.5391599999999812,0.5409719800507092,-1.4666600000000471,-0.266619999999989,1.4906970785508813,0.0061200000000098,-0.9815299999999922,0.9815490794147712,0.16895999999997,0.2400799999999776,0.2935743313029583,1.1788000000000238,-0.5176800000000412,1.2874634062372798,0.3260299999999461,-0.6931700000000092,0.7660158025784961,1.7510299999999006,-1.4395900000000097,2.2668315837308426,-0.5905200000000832,-0.2386499999999785,0.636920476119341,-0.1419100000001663,-1.19459999999998,1.2029994214878073,-0.5926000000000613,-0.2308000000000163,0.6359586464543745,0.8696299999999155,-0.6302700000000243,1.0740095948360442,-1.0445600000000468,0.1395599999999888,1.0538418226660462,-0.3576199999999971,-0.3801000000000272,0.5218889483405628,-1.1620299999999588,0.1236200000000167,1.1685870208503553,-0.0882599999998774,-0.1657799999999838,0.1878106386762288,-0.8181700000000092,0.0209099999999864,0.818437155192758,0.3780600000000049,-0.0440200000000174,0.3806141405675902,-0.4659099999999796,-1.3170949999999948,147.92712699999998,0.5296002983925927,99.46735,0.7626235424752497,92.575956,1.01354715979557,0.0,0.232970138,0.01524150376077,0,0
17,566.6666666666666,550.27625,94.17243,0.90095645,552.43915,89.20787,0.92417336,548.7712,91.37128,0.42043525,563.73584,83.817406,0.92585117,555.09796,88.74286,0.106683314,579.3843,97.666,0.9961875,566.40796,100.62466,0.9329018,571.5324,128.67508,0.99425924,554.06854,127.954895,0.73873085,543.16534,139.16505,0.98719645,541.3244,137.83955,0.7691808,585.4028,148.79999,0.99535275,577.29956,146.28381,0.9805495,531.9922,154.72359,0.9925815,529.37836,151.96198,0.96668464,537.55756,211.29504,0.9748331,534.10803,202.54941,0.9375805,1.03714187,-0.91552055,0.46033955,0.15991518,124.50346452344846,152.09685819369454,90.71009079356172,91.41611486627782,9.909767766094266,147.5419,99.14533,94.17243,56.02443999999991,127.477634,0.4394844632942862,167.15588848901842,0.8555375396470587,-2.7743500000000267,0.5588100000000082,2.8300682922149,-0.6115100000000666,-0.5066699999999855,0.7941403962776776,-3.047789999999964,0.4542900000000003,3.081461226139277,-1.3328299999999444,-0.4008500000000055,1.3918033379036912,-2.775859999999966,0.6346159999999941,2.8474789212662848,0.2994800000000168,-0.5013180000000119,0.5839589091057881,-3.08141999999998,-0.5247639999999905,3.125784137155966,-2.2737399999999752,-1.1483639999999866,2.547279620319657,-2.3685400000000527,-0.04919000000001,2.369050735569049,2.161299999999983,-1.5261000000000138,2.645788899364416,-1.6769999999999072,-1.3535200000000032,2.1550743352375803,-0.3654399999999214,-2.0775600000000054,2.109455367434913,-2.042169999999942,-0.9704599999999886,2.261028730578128,0.3422000000001617,-2.840079999999986,2.86062147904962,-0.0104499999999916,-0.0559399999999925,0.0569076980732746,2.29989999999998,-0.0323499999999796,2.3001275035310336,-1.199100000000044,0.0534349999999932,1.2002900104662644,-0.2086400000000594,-1.4877350000000007,1.502293606398239,-0.2148599999999305,0.5497100000000046,0.5902083561759992,1.2518000000001166,0.8163299999999936,1.4944557232987137,-0.5882599999999911,0.1998100000000136,0.621267948392636,-0.7572199999999611,-0.040269999999964,0.7582900509039653,-1.042630000000031,-0.795439999999985,1.3114122580256908,-1.3686599999999771,-0.1022699999999758,1.3724756276524304,-1.1917699999999058,-0.5464500000000214,1.3110771660736826,-0.6012499999998226,-0.3078000000000429,0.6754571803599493,0.3140000000000782,-0.4761499999999898,0.5703637633125368,0.9066000000001396,-0.2453499999999735,0.9392125331895012,0.2273600000000897,0.0673800000000142,0.2371342109440194,1.2719200000001365,-0.0721799999999746,1.2739664198087577,0.5136599999999589,-0.1266500000000121,0.5290433045601852,1.6756899999999175,-0.2502700000000288,1.6942762611214677,-0.0080699999999751,0.6115700000000004,0.6116232417101235,0.810100000000034,0.590660000000014,1.00256732721552,-0.6709450000000174,-0.2050350000000378,147.921193,0.5347216340606827,99.239947,0.6138603421137502,93.169846,0.8673596220885893,-0.08057171,0.2237829979999999,0.0357378258102373,0,0
18,600.0,548.736,94.179146,0.8966198,550.7742,89.16289,0.9144926,547.06274,91.52302,0.42596248,561.81104,83.80072,0.91638947,553.1363,89.1062,0.11773968,577.83386,97.73848,0.99583745,564.13306,100.68489,0.94104207,569.7761,128.71411,0.99367005,550.8505,126.76343,0.775418,540.49554,140.22859,0.98618317,536.56604,136.73344,0.7952842,584.3433,148.6315,0.99537426,575.8324,146.24243,0.9827361,531.44366,156.32684,0.99229336,529.0423,153.6203,0.9691001,538.13544,211.87393,0.9733874,534.97815,203.18277,0.93874687,1.04534272,-0.91625749,0.48465845,0.13535064,126.0483763663842,151.9046450893,91.4074499947347,92.13112981725452,10.690976562152148,147.436965,99.211685,94.179146,55.301000000000045,128.07321000000002,0.4317920942889457,167.8631699574023,0.8594280623529411,-1.5402500000000146,0.0067159999999972,1.5402646419223045,1.2341000000000122,-0.552094000000011,1.351965456228835,-1.66495000000009,-0.0449799999999953,1.6655574751116513,1.3828399999998735,-0.4992699999999956,1.470209848456895,-1.7084600000000592,0.1517400000000037,1.715185295879195,1.0673999999999069,-0.4828759999999903,1.171542569169295,-1.9248000000000047,-0.016686000000007,1.924872323712931,1.1566199999999751,0.5080779999999834,1.263294533544702,-1.961659999999938,0.363340000000008,1.9950252908672017,0.4068800000001147,0.412530000000018,0.5794241411091777,-1.5504400000000942,0.0724799999999987,1.5521332236635783,0.126559999999813,1.426000000000002,1.4316051947376969,-2.2749000000000024,0.06022999999999,2.275697181722561,-0.2327300000000605,1.0306899999999786,1.056638599048882,-1.7563000000000102,0.0390299999999967,1.7567336254822572,-1.7458500000000186,0.0949699999999893,1.7484311606122966,-3.2180399999999736,-1.1914649999999938,3.431525941592868,-2.0189399999999296,-1.244899999999987,2.371896864030914,-2.6698000000000093,1.063539999999989,2.8738387866406194,-2.4549400000000787,0.5138299999999845,2.508137092046679,-4.758359999999925,-1.106110000000001,4.885229699993572,-4.170099999999934,-1.3059200000000146,4.36980103167175,-1.0594999999999573,-0.1684900000000198,1.0728136511528532,-0.0168699999999262,0.6269499999999653,0.6271769283064819,-1.467160000000035,-0.0413799999999753,1.4677434278511017,-0.2753900000001295,0.5050700000000461,0.5752698123490558,-0.5485400000000027,1.6032500000000027,1.694493049292328,-0.8625400000000809,2.0793999999999926,2.251195151824939,-0.3360600000000886,1.658319999999975,1.692028825404572,-0.5634200000001783,1.5909399999999607,1.6877595148598854,0.5778800000000501,0.5788900000000012,0.817960223054923,0.0642200000000912,0.7055400000000134,0.7084567029819329,0.8701200000000426,0.6333600000000104,1.0762219585197503,0.8781900000000178,0.0217900000000099,0.8784602894838398,-0.1049350000000117,0.5660100000000057,147.93960699999997,0.510972332404144,99.333186,0.5523000857029671,93.3071612,0.9784565965319352,-0.0245645399999999,0.203443556,0.0516832417546367,0,0
19,633.3333333333333,545.97003,95.04001,0.8668659,547.65594,90.0997,0.89822376,544.5194,92.462364,0.34548116,558.3287,84.52525,0.91492254,551.42236,89.74962,0.096965685,574.89453,97.58214,0.9956334,563.6122,100.69323,0.9253503,568.3707,128.30809,0.99379164,551.66565,126.63605,0.7297044,538.7865,141.66702,0.9857584,536.417,137.55539,0.7585784,583.6695,147.67879,0.9957371,576.78723,145.57378,0.9825033,531.2793,156.4173,0.9935213,530.27167,154.69156,0.97163177,538.6803,211.66837,0.97856313,536.19775,204.2069,0.9476546,1.0934067,-0.95384124,0.51880317,0.12871821,126.2890555113461,150.33176308729472,91.84009122083208,94.26546743105582,13.013054454607005,146.626285,99.137685,95.04001,53.39783,127.14312,0.4199820610035205,164.58386482607088,0.8459345167647059,-2.7659700000000385,0.8608639999999923,2.8968391165883203,-1.225720000000024,0.854147999999995,1.4939740038916507,-3.118259999999964,0.936809999999994,3.2559420147938387,-1.453309999999874,0.9817899999999896,1.7538590479852174,-2.543339999999944,0.9393439999999912,2.7112627142967347,-0.8348799999998846,0.7876039999999875,1.1477563657918817,-3.482340000000022,0.7245300000000015,3.556913774116566,-1.5575400000000172,0.7412160000000085,1.7249150733459506,-1.7139399999999796,0.6434199999999919,1.8307319902159132,0.2477199999999584,0.2800799999999839,0.3739117607136346,-2.939329999999927,-0.1563400000000001,2.943484846996766,-1.388889999999833,-0.2288199999999989,1.4076128816189255,-0.5208599999999706,0.008340000000004,0.5209267656782183,1.7540400000000318,-0.051889999999986,1.7548073665505597,-1.405399999999986,-0.4060200000000122,1.462874362479557,0.3509000000000242,-0.445050000000009,0.5667453683092831,0.8151500000000169,-0.1273800000000022,0.8250425364185947,4.033189999999991,1.0640849999999915,4.171198684230339,-1.709039999999959,1.438430000000011,2.2338080907947067,0.9607600000000502,0.3748900000000219,1.0313109568409098,-0.1490400000000136,0.8219499999999869,0.8353530535647682,4.609319999999912,1.928059999999988,4.996323270766128,-0.6738000000000284,-0.9527099999999962,1.1669030739954502,0.3856999999999289,-0.7842199999999764,0.8739367816952825,0.9548300000000154,-0.6686500000000137,1.1656728320588277,2.4219900000000507,-0.6272700000000384,2.5018999206603554,-0.1643599999999878,0.0904600000000073,0.1876092247198877,0.3841800000000148,-1.5127899999999954,1.5608100001281378,1.2293700000000172,1.0712600000000236,1.630628279069173,1.5654300000001058,-0.5870599999999513,1.671888312208765,0.5448599999999715,-0.2055599999999913,0.5823464030969586,-0.0330200000000786,-0.7844499999999925,0.7851446509401905,1.219600000000014,1.024129999999985,1.5925659851007756,0.3494799999999713,0.3907699999999749,0.5242494285165797,-0.8106799999999907,-0.705744999999979,147.69935,0.7854960461390539,99.362502,0.53316170854395,93.9106692,0.9166151317716964,-0.0066324299999999,0.180991562,0.0555409737855554,0,0
20,666.6666666666666,543.52716,95.80634,0.8705598,545.2148,91.060455,0.9010544,542.0452,93.26452,0.35270804,555.72656,85.200775,0.91729873,548.648,90.09005,0.09958543,572.5168,97.55921,0.9960891,560.6342,100.27219,0.9286853,567.6131,127.643936,0.99433655,549.3896,125.44531,0.73536956,539.48706,141.50684,0.9865868,535.08276,137.18158,0.7620177,582.1943,147.08319,0.9963515,575.11176,144.9733,0.98457897,531.40076,158.17522,0.99444205,531.1571,155.99728,0.9750772,539.3837,212.49374,0.9813588,538.722,204.37192,0.9537921,1.01690243,-0.87081308,0.51610107,0.09702995,125.49558777351162,153.4327864110127,93.95792745588632,95.19154594259716,14.378421109689665,146.028245,98.9157,95.80634,51.037199999999984,127.292965,0.4009428140750525,167.1389428470393,0.8488171782352941,-2.442869999999971,0.7663300000000106,2.5602491101062554,0.3231000000000676,-0.0945339999999816,0.3366456403342248,-2.4411400000000185,0.960755000000006,2.623397543191863,0.6771199999999453,0.0239450000000118,0.6775432513315489,-2.474199999999996,0.8021560000000107,2.6009844075534168,0.0691399999999475,-0.1371879999999805,0.1536258016870454,-2.6021400000000767,0.6755249999999933,2.688394800847783,0.8801999999999452,-0.0490050000000081,0.8815631174368086,-2.774360000000001,0.340430000000012,2.795168330262064,-1.060420000000022,-0.3029899999999799,1.102856979168212,-2.3777300000000423,-0.0229300000000023,2.377840561896487,0.5615999999998849,0.1334099999999978,0.5772285406144347,-2.978000000000065,-0.4210400000000049,3.007616777716269,-2.457140000000095,-0.429380000000009,2.494374503558052,-0.7576000000000249,-0.6641539999999964,1.0075010152431771,0.6477999999999611,-0.2581339999999841,0.6973363621351903,-2.2760500000000548,-1.190739999999991,2.568708887768372,-3.091200000000072,-1.0633599999999888,3.268983317424612,0.7005599999999959,-0.1601799999999968,0.7186389538565198,2.409599999999955,-1.598610000000008,2.8916649342722622,-1.3342400000000223,-0.3738099999999917,1.3856154927324007,-1.185200000000009,-1.1957599999999786,1.6836095205242725,-1.4751999999999723,-0.5955999999999904,1.5908973568398144,-0.8013999999999442,0.3571100000000058,0.8773650962398234,-1.6754700000000184,-0.6004800000000046,1.7798246967890032,-2.630300000000034,0.0681700000000091,2.631183239324122,0.1214599999999563,1.7579199999999844,1.762111023176444,0.2858199999999442,1.667459999999977,1.6917789229092233,0.8854300000000421,1.3057199999999796,1.5776219456194254,-0.343939999999975,0.2344599999999559,0.4162525858177486,0.7033999999999878,0.8253699999999924,1.084438655203682,0.1585400000000163,1.0309299999999837,1.0430491822056962,2.524249999999938,0.1650199999999984,2.5296382474377017,1.304649999999924,-0.8591099999999869,1.5621080675163863,-0.5980399999999975,0.2126399999999932,147.16924799999998,0.8509308533865799,99.343544,0.5502199969262371,94.5623092,0.8623574827603991,-0.0316882599999999,0.152300174,0.0541596680777524,0,0
21,700.0,540.3978,96.624664,0.8575188,542.01654,91.6349,0.8821471,539.68933,93.88344,0.32511085,552.7269,85.87928,0.90252006,547.5259,90.53255,0.10561465,569.41565,97.384735,0.99454546,559.0007,100.66176,0.93561697,566.553,126.64696,0.9920752,546.7186,124.98953,0.762349,537.3961,142.02495,0.9845493,532.1932,138.56908,0.7960396,582.4144,145.40894,0.9953578,575.9363,144.08171,0.9836997,532.0194,159.14407,0.9942631,531.74225,159.77351,0.978518,543.13916,210.9564,0.98182064,543.07465,207.2615,0.9607491,1.01575687,-0.85509178,0.5281377,0.14714162,123.39547325173577,159.85983290005817,93.13278134336824,96.12633599783209,18.12592277455399,144.74532499999998,99.0232475,96.624664,50.67214999999999,125.07712,0.4051272494511605,162.53401314527477,0.8489703135294117,-3.12936000000002,0.8183239999999898,3.2345862453451613,-0.6864900000000489,0.0519939999999792,0.6884561686382547,-3.1982600000000048,0.5744449999999972,3.2494390416847376,-0.7571199999999862,-0.3863100000000088,0.8499800647662191,-2.3558699999999817,0.6189199999999886,2.4358130928500854,0.1183300000000144,-0.1832360000000221,0.2181224898904547,-2.999659999999949,0.6785050000000012,3.075439667856402,-0.3975199999998722,0.0029800000000079,0.3975311695954148,-1.1221000000000458,0.4424999999999954,1.2061984330946955,1.6522599999999557,0.1020699999999834,1.655409735533729,-3.101149999999961,-0.1744749999999868,3.106054224917002,-0.7234199999999191,-0.1515449999999845,0.7391227120207295,-1.633499999999913,0.3895700000000062,1.6793114764389956,1.3445000000001528,0.8106100000000112,1.5699582230430302,-1.060100000000034,-0.9969759999999894,1.455257075081943,-0.3025000000000091,-0.332821999999993,0.4497518578994431,-2.6709999999999354,-0.4557800000000043,2.709608165104257,-0.3949499999998807,0.7349599999999867,0.8343570603164369,-2.0909599999999955,0.5181099999999788,2.154193977732729,-2.791519999999992,0.6782899999999756,2.872744547379721,-2.8895599999999604,1.387500000000017,3.2054193553417965,-1.555319999999938,1.7613100000000088,2.3497304565630155,0.2201000000000021,-1.674250000000001,1.6886554037162238,1.6952999999999747,-1.0786500000000103,2.0093600753722405,0.8245399999999563,-0.8915900000000079,1.2144130021125197,2.5000099999999748,-0.2911100000000033,2.516901871786001,0.6186400000000276,0.9688500000000032,1.1495154510053531,0.4971800000000712,-0.7890699999999811,0.9326410977970256,0.5851499999999987,3.776229999999998,3.8212973628598954,-0.3002800000000434,2.470510000000018,2.488691973406938,3.755459999999971,-1.5373400000000004,4.0579421000304805,3.052059999999983,-2.3627099999999928,3.859723926357928,4.35265000000004,2.889580000000024,5.224484146679027,1.8284000000001013,2.724560000000025,3.281200047787472,-1.2829200000000185,-0.684880000000021,146.475744,1.1486842789058278,99.0867295,0.1171808567504152,95.164518,1.0623865399644552,0.05011167,0.13363112,0.0236649767557509,0,0
22,733.3333333333333,538.03564,97.19461,0.8653991,539.699,92.242516,0.8908819,537.15283,94.53144,0.33079565,550.62964,86.24589,0.9107338,544.8098,91.02217,0.105422094,567.12115,97.40344,0.9953206,557.0271,100.64447,0.93915355,563.37787,127.67195,0.9932094,545.5313,125.57785,0.7678341,534.4512,143.06877,0.98624694,531.8466,138.92107,0.80068356,581.87036,144.50764,0.9960603,575.4607,143.36102,0.98551744,531.86554,160.589,0.9950127,531.89966,161.3933,0.9804134,544.25494,211.49301,0.9835677,544.3293,207.76263,0.9634445,1.03501548,-0.83568579,0.58832083,0.16359986,125.07498977122826,159.02871046219943,94.14848268497308,97.48153778902449,20.275931025799977,143.93433,99.023955,97.19461,50.02376000000004,125.24712,0.3994004780357389,162.19904756067018,0.852335102,-2.362160000000017,0.5699460000000016,2.4299461534190594,0.7672000000000025,-0.2483779999999882,0.8064040369963421,-2.317540000000008,0.607615999999993,2.395869123106692,0.8807199999999966,0.0331709999999958,0.8813444466501129,-2.5365000000000464,0.6480000000000103,2.617964142229654,-0.1806300000000646,0.0290800000000217,0.1829558506854171,-2.0972600000000057,0.3666100000000085,2.129061389368571,0.9023999999999432,-0.3118949999999927,0.954779687166046,-2.716099999999983,0.4896200000000021,2.759878068755921,-1.5939999999999372,0.0471200000000067,1.5946963016197788,-2.2945000000000846,0.018704999999997,2.2945762412753665,0.8066499999998769,0.1931799999999839,0.8294593027387148,-1.973600000000033,-0.0172900000000026,1.9736757342836568,-0.3401000000001204,-0.4068600000000089,0.5302858376386165,-3.175129999999968,1.0249899999999883,3.3364734401759844,-2.1150299999999334,2.0219659999999777,2.9260380048891417,-1.1873000000000502,0.588319999999996,1.3250666822466386,1.4836999999998852,1.0441000000000005,1.814252049743822,-2.944900000000075,1.0438200000000109,3.1244193384372183,-0.8539400000000796,0.5257100000000321,1.0027883763288097,-0.3466000000000804,0.3519899999999722,0.4939924291930355,2.54295999999988,-1.0355100000000448,2.745710567721857,-0.5440399999999954,-0.901299999999992,1.0527683560973804,-0.7641399999999976,0.7729500000000087,1.0869046149961872,-0.4755999999999858,-0.7206899999999905,0.8634752087350122,-1.300139999999942,0.1709000000000173,1.3113240749714985,-0.1538600000000087,1.4449299999999994,1.4530986217390756,-0.7725000000000364,0.476079999999996,0.9074185453251726,0.1574100000000271,1.6197900000000232,1.6274205210086554,-0.4277399999999716,-2.156439999999975,2.1984528608091347,1.115780000000086,0.536609999999996,1.2381095672436215,-2.639679999999885,2.0739499999999964,3.3569598009060786,1.2546499999999696,0.5011299999999892,1.3510284598778493,-3.09800000000007,-2.3884500000000344,3.911815103312093,-0.8109949999999913,0.4719250000000272,145.75423,1.4139560223449732,99.0624545,0.1145487384042766,95.768954,1.2067498891061228,0.01645824,0.1343680559999999,0.0247218662987063,0,0
23,766.6666666666667,536.303,98.30126,0.8469689,537.5194,93.285416,0.8690692,534.9158,95.90088,0.3145228,546.7622,86.55415,0.8926097,541.13153,92.159424,0.10624465,564.2548,96.02861,0.99455345,553.32355,101.14304,0.9349764,563.91785,126.35895,0.99257773,543.44385,126.916275,0.7709511,534.5961,144.18117,0.9853196,530.0246,140.32933,0.8037894,582.1337,142.43903,0.99585706,575.2277,142.42407,0.9853757,531.8043,160.15025,0.994835,531.7208,163.0057,0.9803842,546.4327,212.05237,0.9830602,546.0207,210.42001,0.962954,1.03501548,-0.83568579,0.58832083,0.16359986,121.9283830296878,155.96018712579644,93.6470055178032,98.53420616438332,24.402410725458527,142.43155000000002,98.585825,98.30126,52.10910000000001,125.49822,0.4152178380281583,154.9264043868434,0.8478852405882353,-1.732639999999947,1.106650000000002,2.055897758182497,0.6295200000000705,0.5367040000000003,0.8272524487821653,-2.1795999999999367,1.042900000000003,2.416256726840037,0.1379400000000714,0.43528400000001,0.4566175689305312,-2.2370300000000043,1.369439999999997,2.62291233831785,0.2994700000000421,0.721439999999987,0.7811260810522245,-3.867439999999988,0.3082600000000042,3.879705708066001,-1.770179999999982,-0.0583500000000043,1.7711414271310852,-3.6782699999999977,1.1372539999999989,3.850067123235124,-0.9621700000000146,0.6476339999999965,1.159827964336101,-2.8663499999998976,-1.3748300000000029,3.1790124018945605,-0.571849999999813,-1.393535,1.5063041587690005,-3.703550000000064,0.4985700000000008,3.736957940277154,-1.7299500000000307,0.5158600000000035,1.8052253438560268,0.5399800000000141,-1.3130000000000024,1.419699757131775,3.7151099999999815,-2.3379899999999907,4.389560291441481,-2.08744999999999,1.3384250000000009,2.4796832424979125,-0.9001499999999396,0.7501050000000049,1.171719904040594,0.1449000000000069,1.112400000000008,1.121797561951362,3.089800000000082,0.0685799999999972,3.0905609938003984,-1.8220000000000027,1.4082600000000127,2.302798347142026,-1.4753999999999223,1.0562700000000405,1.8145278925659576,0.263339999999971,-2.0686100000000067,2.085304603097593,0.8073799999999665,-1.1673100000000147,1.4193220566523936,-0.2329999999999472,-0.936949999999996,0.9654865625683082,0.2426000000000385,-0.2162600000000054,0.3249971501413836,-0.0612399999999979,-0.4387499999999988,0.4430032732384703,0.0926200000000108,-1.8836799999999985,1.885955674664703,-0.178859999999986,1.6123999999999796,1.6222899431359146,-0.3362700000000131,-0.0073900000000435,0.3363511929516669,2.177759999999921,0.5593599999999981,2.248448849140148,1.061979999999835,0.022750000000002,1.0622236501319529,1.6914000000000442,2.657379999999989,3.150000384825388,0.4367500000000746,2.15625,2.200037414454596,-1.502779999999973,-0.6917849999999817,144.75314699999998,1.6729357407140362,98.9372825,0.21157235411323,96.5933768,1.256154908281948,0.0,0.1400179,0.0280116578446373,0,0
24,800.0,532.70013,98.40442,0.85371095,534.1278,93.39526,0.8737253,531.302,96.14986,0.33674607,543.95056,86.87117,0.8925782,537.41766,92.77429,0.110461734,561.96454,96.60093,0.99430084,549.42065,102.10381,0.93696874,561.8324,127.77911,0.99183697,540.0079,128.41385,0.77537173,533.0726,145.49004,0.98389083,528.0442,140.82806,0.8024578,580.53613,142.46501,0.9956708,572.47235,142.76369,0.98539275,531.5063,161.00763,0.9945815,529.9332,164.12354,0.9803438,548.30066,211.66422,0.9826927,546.58496,210.40393,0.96323806,1.06303384,-0.85681129,0.60797246,0.16212599,121.86852410805233,155.74403281321895,92.37405428873792,96.87342713229076,25.690388375169864,142.61435,99.35237,98.40442,52.49192999999991,124.79305,0.4206318347004747,156.31341570177605,0.8502334572941177,-3.6028700000000526,0.1031600000000025,3.60434657358312,-1.870230000000106,-1.003489999999999,2.1224402071673056,-3.3916000000000395,0.1098439999999953,3.3933782966737245,-1.2120000000001028,-0.9330560000000075,1.5295546734707666,-3.613799999999969,0.2489800000000031,3.6223668340464608,-1.376769999999965,-1.1204599999999942,1.7750848555773018,-2.8116400000000112,0.3170199999999994,2.829455984814053,1.0557999999999763,0.0087599999999952,1.0558363403482334,-3.713870000000042,0.6148659999999921,3.7644243351216806,-0.0356000000000449,-0.5223880000000065,0.5235996395567992,-2.2902599999999893,0.5723200000000048,2.3606865632692444,0.5760899999999083,1.947150000000008,2.0305843520031184,-3.902899999999931,0.9607699999999966,4.019416301268066,-0.1993499999998675,0.4621999999999957,0.5033579864270986,-2.085450000000037,1.42016000000001,2.523084645448936,-2.6254300000000512,2.733160000000012,3.789860983004566,-3.435950000000048,1.4975749999999977,3.748130638481712,-1.3485000000000582,0.1591499999999968,1.357858966351129,-1.5235000000000127,1.3088699999999849,2.008530041323753,-1.6684000000000196,0.1964699999999766,1.679928278498834,-1.9803999999999176,0.4987299999999948,2.0422330358946965,-0.158399999999915,-0.909530000000018,0.9232201150863242,-1.5975700000000188,0.0259800000000041,1.597781231990181,-1.8609099999999896,2.094590000000011,2.8018374856868498,-2.7553500000000213,0.3396199999999965,2.77620160775476,-2.522350000000074,1.2765699999999924,2.8269914197606534,-0.2980000000000018,0.8573800000000062,0.9076918333884092,-0.2367600000000038,1.2961300000000051,1.3175766674087754,-1.7875999999999976,1.117840000000001,2.1083358426967926,-1.6087400000000116,-0.4945599999999786,1.6830430717007858,1.8679600000000391,-0.388149999999996,1.9078613639623143,-0.3097999999998819,-0.947509999999994,0.9968707238653944,0.5642599999999902,-0.0160799999999881,0.5644890734106273,-1.127140000000054,-2.6734599999999773,2.9013501945128923,0.182799999999986,1.685579999999959,143.95076,1.5034575253024818,98.9802195,0.2747589784270292,97.2662588,1.1084650131721907,-0.00147387,0.146699456,0.0286202751439712,0,0
25,833.3333333333334,530.7795,99.021774,0.8699717,531.8164,93.84697,0.9002145,528.748,97.18839,0.40208387,541.47925,87.21004,0.9195008,534.0263,94.15258,0.14229167,559.06824,96.508865,0.9962239,547.1503,102.23493,0.94531083,559.096,127.54401,0.9939539,541.0305,129.29434,0.7750361,531.25745,148.1429,0.98309475,526.75885,142.74612,0.76749957,578.8445,141.76276,0.9964561,571.1314,142.1752,0.9868435,530.98584,159.61018,0.99322456,530.0274,162.00351,0.9731083,550.31323,212.94867,0.9720839,548.8482,209.99878,0.9357534,1.04214371,-0.82364916,0.60355085,0.20830733,126.44801465118698,146.0497917111622,90.53329559528832,94.34030324006508,27.18590561778064,141.96898,99.3718975,99.021774,52.08564999999999,125.73863,0.4142374510185337,154.33768842806384,0.8560383147058823,-1.92062999999996,0.6173539999999917,2.017410607242818,1.6822400000000926,0.5141939999999892,1.7590698926524495,-2.311399999999935,0.4517100000000056,2.355124600546584,1.0802000000001044,0.3418660000000102,1.1330067969594149,-2.5539999999999736,1.0385299999999944,2.757074638253352,1.0597999999999956,0.7895499999999913,1.321576801589668,-2.4713100000000168,0.33887,2.494435004765625,0.3403299999999944,0.0218500000000005,0.3410306898213066,-3.3913599999999637,1.378290000000007,3.660738446502259,0.3225100000000793,0.7634240000000148,0.8287514125937123,-2.8963000000001102,-0.0920650000000051,2.897762870599601,-0.6060400000001209,-0.66438500000001,0.8992729896005772,-2.270350000000008,0.1311200000000099,2.274133148454601,1.6325499999999238,-0.8296499999999867,1.8312669453140165,-2.7364000000000037,-0.2351000000000027,2.7464808337215865,-0.6509499999999662,-1.6552600000000126,1.7786572379466477,1.0226000000000113,0.8804900000000089,1.3494344741779938,4.458550000000059,-0.6170849999999888,4.501051210520218,-1.815150000000017,2.652860000000004,3.21441063059779,-0.2916500000000042,1.3439900000000191,1.3752704616183882,-1.285349999999994,1.918059999999997,2.3089129013672154,0.6950499999999238,1.4193300000000022,1.580377218071654,-1.6916299999999185,-0.7022500000000207,1.8316023365894007,-0.0940599999998994,-0.7282300000000248,0.7342793858607344,-1.3409500000000207,-0.5884900000000073,1.4644000077164927,1.4144000000000003,-0.9281100000000038,1.691719696669637,-0.5204599999999573,-1.397449999999992,1.4912226909821125,-0.2224599999999554,-2.2548299999999983,2.26577730161196,0.094199999999887,-2.1200299999999856,2.1221217780560844,1.881799999999885,-3.2378699999999867,3.744993107723895,2.0125699999999824,1.2844499999999923,2.3875195930923603,0.1446099999999432,1.6725999999999883,1.678839721980614,2.263239999999996,-0.4051499999999919,2.2992176539205627,1.698980000000006,-0.3890700000000038,1.7429596969809782,-0.645370000000014,-0.8281700000000001,143.138907,1.1573158273226016,99.071459,0.319998298006237,97.9093456,0.9743518736670184,0.04618134,0.168954932,0.0230674004270606,0,0
26,866.6666666666667,527.6494,100.60759,0.8643829,528.55164,95.59792,0.8997144,526.17224,98.759995,0.38751465,538.18195,88.66496,0.9225074,532.7182,95.05601,0.1384575,555.49756,97.64895,0.9960598,546.2785,102.170135,0.94126475,554.96826,128.88303,0.993619,539.4402,128.72838,0.75897616,529.7542,149.90097,0.98175025,525.4147,144.17465,0.74975,577.04333,142.65045,0.99607736,571.09406,142.86415,0.98534817,529.6326,159.97403,0.9926266,530.3513,162.43924,0.9705712,551.24835,212.45895,0.9705367,550.0252,209.98865,0.93197054,1.02578886,-0.77108103,0.62074603,0.26898176,130.78477068396228,152.1990266713934,87.68782277831406,93.18455413775288,28.413419395415183,142.7573,99.9095425,100.60759,51.62862999999993,123.79399,0.4170527953977987,153.87587643079436,0.8518310223529412,-3.1300999999999704,1.5858160000000083,3.5088941841919143,-1.2094700000000105,0.9684620000000166,1.5494309685636392,-3.264760000000024,1.7509500000000031,3.704657036771443,-0.9533600000000888,1.2992399999999975,1.6114961579849214,-2.57576000000006,1.5716050000000052,3.017363394360269,-0.0217600000000857,0.5330750000000108,0.5335189342703923,-3.29729999999995,1.4549199999999871,3.604022682558981,-0.8259899999999334,1.116049999999987,1.3884621286156351,-1.3080999999999676,0.9034300000000002,1.5897519853423412,2.083259999999996,-0.4748600000000067,2.1366947014489432,-3.570679999999925,1.1400849999999991,3.7482728648838335,-0.6743799999998146,1.2321500000000043,1.4046287790372802,-0.8718000000000075,-0.0647950000000037,0.8742045710387321,1.3985500000000002,-0.1959150000000136,1.4122056471084534,-4.127740000000017,1.3390199999999908,4.339494448435223,-1.3913400000000138,1.5741199999999935,2.100876191021265,-1.5902999999999563,-0.5659600000000182,1.6880061645621685,-2.612899999999968,-1.446450000000027,2.986547172321226,-1.50324999999998,1.7580700000000036,2.3131300627936926,0.3119000000000369,-0.8947900000000004,0.9475920821218504,-1.3441500000000133,1.4285300000000234,1.9614885121764292,-0.0588000000000192,-0.4895299999999736,0.4930487408968574,-1.80117000000007,0.8876900000000205,2.0080355835991277,-0.1095400000001518,1.5899400000000412,1.5937089493380416,-0.0373399999999719,0.6889500000000055,0.6899611424565919,1.3036100000000488,1.2774400000000128,1.825171768820721,-1.353240000000028,0.3638499999999851,1.4013012952609674,-0.8327800000000707,1.7612999999999772,1.9482556860946247,0.3239000000000942,0.4357300000000066,0.542928948298087,0.2297000000002071,2.5557599999999923,2.566061430987196,0.9351199999999836,-0.4897200000000055,1.055592294780506,-1.077449999999999,-1.774169999999998,2.0757113699645218,1.177000000000021,-0.0101300000000037,1.177043591758627,-1.0862399999999752,0.3950199999999881,1.1558365533240142,0.7883199999999988,1.4336900000000128,142.741302,0.7300883727820372,99.248718,0.4879937196682344,98.7059308,1.2504821489460938,0.06067443,0.19332296,0.0466072999811665,0,0
27,900.0,524.2652,100.5227,0.8836793,525.53687,95.34667,0.91949046,522.6555,98.82526,0.43791825,536.5014,89.343124,0.9325684,529.4827,96.40195,0.14723495,553.2494,99.23925,0.9959441,544.0546,104.74776,0.93975496,550.7515,129.69899,0.9926369,536.77637,131.39963,0.7317064,526.8336,148.75848,0.978681,523.30304,145.30637,0.71861005,575.68274,142.8879,0.99531084,569.3335,143.70677,0.98259187,529.8333,160.64795,0.99141335,529.336,163.86719,0.96598303,553.30316,211.57243,0.9671797,549.6235,209.86241,0.92472124,0.98103657,-0.64408234,0.58267098,0.45616358,133.23848041978889,151.18108413489048,86.4303374851447,92.94878138339102,30.00972104939325,143.297335,101.993505,100.5227,53.027240000000006,122.229306,0.4338340885791,149.07460900466327,0.8532602823529412,-3.3841999999999643,-0.0848900000000014,3.3852645320712766,-0.254099999999994,-1.6707060000000098,1.6899187401872404,-3.0147699999999986,-0.2512499999999988,3.025221432457464,0.2499900000000252,-2.002200000000002,2.0177462278740657,-3.516740000000027,0.0652649999999965,3.517345554224832,-0.9409799999999676,-1.506340000000009,1.776092214948302,-1.6805500000000393,0.6781640000000095,1.812223692979469,1.6167499999999109,-0.7767559999999776,1.793663972441794,-3.235500000000002,1.3459399999999988,3.5042851958138352,-1.9274000000000344,0.4425099999999986,1.9775454129046264,-2.2481599999999844,1.5902999999999992,2.753775131632924,1.3225199999999404,0.450215,1.3970514294845564,-2.223899999999958,2.5776249999999976,3.404391553659009,-1.3520999999999503,2.6424200000000013,2.968258389426344,-4.216760000000022,0.8159600000000182,4.294980281584564,-0.0890200000000049,-0.5230599999999725,0.5305811191514189,-2.6638299999999617,2.671250000000015,3.772474894734208,-1.0735300000000052,3.237210000000033,3.4105711024695298,-2.920599999999922,-1.142490000000009,3.136110291443776,-1.4173499999999422,-2.900560000000013,3.228332284028382,-2.111660000000029,1.131719999999973,2.39580844685047,-0.7675100000000157,-0.2968100000000504,0.8229020453249912,-1.360590000000002,0.2374499999999955,1.3811544629765358,0.4405800000000681,-0.650240000000025,0.7854443290266298,-1.760560000000055,0.8426200000000108,1.951814534734336,-1.723220000000083,0.1536700000000053,1.7300582756948646,0.2006999999999834,0.6739200000000096,0.7031704319722255,1.5539400000000114,0.3100700000000245,1.5845734216185916,-1.0153000000000247,1.4279499999999814,1.7521059592673034,-1.339200000000119,0.9922199999999748,1.666720482984555,2.0548100000000886,-0.8865199999999902,2.2378922776801278,1.119690000000105,-0.3967999999999847,1.1879208458900885,-0.4017000000000053,-0.1262399999999957,0.4210693857311442,-1.5787000000000262,-0.1161099999999919,1.5829640621631562,0.5400350000000174,-0.2482849999999814,142.613903,0.4839474378964766,99.842628,1.2915342920769264,99.3715488,1.1242937311116084,0.18718182,0.251835704,0.1222415482175194,0,0
28,933.3333333333334,522.09753,102.30161,0.89988476,523.81604,97.58382,0.93348956,520.32996,100.479004,0.44349292,534.39795,91.17328,0.94352543,526.33234,96.80856,0.14211273,549.1442,100.60318,0.9974016,541.7551,105.393036,0.94129795,546.8712,131.88461,0.9953393,535.19507,132.61806,0.7176422,521.7731,149.95917,0.9854109,519.85114,148.31454,0.71809083,573.81146,141.95448,0.99716276,568.4498,143.29587,0.98694915,530.44403,162.35997,0.995401,530.9674,167.8037,0.9776373,555.9969,208.99873,0.98276675,553.552,211.15553,0.95472854,0.98103657,-0.64408234,0.58267098,0.45616358,129.91576686169236,149.19823231902066,86.48033370102911,95.66088312699596,32.94592813844485,142.625175,102.998108,102.30161,53.96032000000002,119.98225,0.4497358530137931,147.0473749810376,0.8595490400000001,-2.167670000000044,1.7789099999999962,2.804160126847284,1.2165299999999206,1.8637999999999977,2.225689933683441,-1.720829999999978,2.23715,2.8224273261502986,1.2939400000000203,2.4883999999999986,2.804713048352727,-2.3255399999999327,1.6537440000000032,2.85359519013046,1.1912000000000944,1.5884790000000066,1.9855032040873783,-2.1034499999999525,1.8301560000000023,2.788184514488919,-0.4228999999999132,1.1519919999999928,1.2271633868657874,-3.150359999999978,0.4066100000000006,3.1764917474628924,0.0851400000000239,-0.9393299999999982,0.943180612873272,-4.105200000000082,1.3639299999999963,4.325849290590307,-1.8570400000000973,-0.2263700000000028,1.870786181930036,-2.29950000000008,0.6452759999999955,2.3883218723983504,-0.0756000000001222,-1.932349000000002,1.933827297821868,-3.88029999999992,2.18562,4.453500070102097,0.3364600000001019,1.369659999999982,1.410380745472661,-1.5813000000000557,1.218430000000012,1.9962668546314657,1.082529999999906,-1.4528200000000029,1.8117828659361488,-5.060500000000047,1.2006900000000087,5.200991898292142,-2.139900000000125,2.343180000000018,3.1732734711021395,-3.4519000000000237,3.008170000000007,4.578722568457299,-1.3402399999999943,1.876450000000034,2.3059288497479957,-1.871279999999956,-0.9334200000000124,2.0911627709960454,-0.5106899999999541,-1.1708700000000078,1.2773961143670245,-0.8836999999999762,-0.410899999999998,0.974558618042012,0.8768600000000788,-1.2535200000000088,1.529769868313584,0.6107299999999896,1.7120199999999954,1.8176918367258987,0.4100300000000061,1.0380999999999858,1.116143454444802,1.631399999999985,3.9365099999999984,4.261170841458945,2.64670000000001,2.508560000000017,3.646627779689084,2.6937399999999343,-2.5737000000000023,3.725609598119435,0.6389299999998457,-1.687180000000012,1.8041086157157624,3.9284999999999854,1.2931199999999876,4.135851978057224,4.330199999999991,1.4193599999999833,4.556886530252852,-0.672159999999991,-1.2121950000000083,142.652628,0.4733383577939302,100.7250846,1.670037073362137,100.1716188,1.5244118596287806,0.0,0.310348448,0.138399417569851,0,0
29,966.6666666666666,516.4767,102.46138,0.8881177,518.5269,98.20436,0.92778385,515.29297,100.52861,0.40508533,530.00854,92.676956,0.9428244,521.6071,96.96774,0.123992994,544.80347,101.67398,0.99737954,536.78784,105.63999,0.93651056,541.91345,131.03152,0.9955317,530.3569,131.53947,0.7110248,518.2851,150.63391,0.9856754,517.2944,149.02539,0.7124724,572.7985,140.15207,0.9973677,566.7663,141.46204,0.98756903,532.28,163.76164,0.99558455,532.0471,169.05986,0.9781532,556.54236,207.5286,0.9829044,555.0999,210.29483,0.9547061,0.98442124,-0.6114115,0.58684696,0.50087105,135.30175325627903,157.18391977423025,91.22682348502308,99.27292521099426,37.96352328884686,140.807055,103.656985,102.46138,57.50553000000002,117.617874,0.4889182872926418,153.67450513288705,0.8542755090588235,-5.620829999999955,0.1597700000000088,5.6231002429086665,-3.453159999999912,-1.6191399999999874,3.8139124695251394,-5.2891400000000885,0.6205399999999912,5.325417526466908,-3.5683100000001104,-1.6166100000000083,3.917430809625208,-5.03699000000006,0.0496059999999971,5.037234262503245,-2.711450000000127,-1.604138000000006,3.150431688760241,-4.389409999999998,1.503675999999999,4.639823451498557,-2.285960000000045,-0.3264800000000036,2.309156190473093,-4.725240000000099,0.1591800000000063,4.727920402248851,-1.574880000000121,-0.2474299999999942,1.5941984253223869,-4.340730000000008,1.0708000000000055,4.470855575043784,-0.235529999999926,-0.2931299999999908,0.3760313521502691,-4.96726000000001,0.2469540000000023,4.973395036161525,-2.66775999999993,-0.3983219999999932,2.6973327257280704,-4.957750000000033,-0.8530900000000088,5.030611057376662,-1.0774500000001126,-3.038710000000009,3.2240745907314703,-4.838169999999991,-1.0785900000000197,4.956939109672415,-3.2568699999999358,-2.297020000000032,3.985411280821557,-3.4879999999999427,0.6747399999999857,3.552663517362653,1.5725000000001046,-0.525950000000023,1.6581253428195206,-2.5567399999999907,0.7108499999999935,2.6537194934845587,0.8951600000000326,-2.2973200000000134,2.465560911435797,-1.012960000000021,-1.8024099999999803,2.067551636525669,0.8583199999999351,-0.8689899999999682,1.2214159170814147,-1.683499999999981,-1.833830000000006,2.489398465272275,-0.7998000000000047,-1.422930000000008,1.6323020017447845,1.8359699999999748,1.4016699999999958,2.309862469888607,1.2252399999999852,-0.3103499999999997,1.2639344049830925,1.0797000000000023,1.2561599999999942,1.6564087767214923,-0.5516999999999825,-2.680350000000004,2.7365396055054645,0.5454600000000482,-1.4701299999999833,1.5680589365518134,-2.148279999999886,1.103570000000019,2.415155006060595,1.547900000000027,-0.8607000000000085,1.7711010417252029,-2.3805999999999585,-2.153819999999996,3.2103266114836018,-1.8181200000000215,-1.1459600000000307,142.291169,0.9549356331026504,101.5860076,1.8816115319346585,100.9830108,1.425092623050478,0.0447074699999999,0.37809746,0.1303810922038773,0,0
30,1000.0,513.8219,103.806595,0.89061564,515.6429,99.25555,0.9336477,512.2364,101.90553,0.41707867,526.6521,93.35316,0.9457057,518.1197,98.48741,0.124645054,541.493,101.92894,0.9973671,534.38745,107.02493,0.92820406,538.1184,131.3882,0.9953702,529.0317,134.07893,0.66849047,516.2152,150.41176,0.9844499,516.7548,150.35492,0.67087436,571.7854,139.72101,0.9973464,565.6752,141.60095,0.9866773,533.25085,163.36865,0.9959781,529.8927,168.52574,0.97876966,560.78235,207.889,0.98559177,552.59296,209.29865,0.9600907,0.94787153,-0.54950885,0.55368482,0.5384548,137.51008410939738,154.17071343507945,89.80359186176032,97.8530735864428,40.39544529220025,140.66098,104.476935,103.806595,59.54899999999998,115.94549,0.5135947891237959,144.352497332158,0.8506413402352941,-2.654800000000023,1.345214999999996,2.976166399283668,2.9660299999999324,1.1854449999999872,3.1941530659823694,-2.883999999999901,1.0511900000000054,3.0696019963668646,2.405140000000188,0.4306500000000142,2.44339064459634,-3.056569999999965,1.3769199999999984,3.352391512234181,1.9804200000000949,1.3273140000000012,2.38407756396397,-3.3564400000000205,0.6762039999999985,3.423878111617897,1.0329699999999775,-0.8274720000000002,1.3235319911826664,-3.48739999999998,1.5196699999999908,3.804123508628477,1.2378400000001193,1.3604899999999844,1.839342519951152,-3.310469999999896,0.2549599999999969,3.3202735162181,1.030260000000112,-0.8158400000000086,1.3141653523055024,-2.400390000000016,1.3849400000000005,2.7712688349743475,2.5668699999999944,1.137985999999998,2.807816541922917,-3.79505000000006,0.3566800000000114,3.8117745375219214,1.1626999999999723,1.2097700000000202,1.677919766526393,-1.3251999999999953,2.53946000000002,2.8644392351034584,3.512969999999996,3.6180500000000393,5.042940017826927,-2.069900000000075,-0.2221499999999991,2.081786884505787,1.4180999999998676,-0.8968899999999849,1.6779211191529826,-0.5395999999999503,1.3295300000000054,1.4348582441830136,2.0171400000000403,0.6186800000000119,2.109885949998288,-1.0131000000000083,-0.4310600000000022,1.1009924312183164,-0.0001399999999875,1.3713499999999783,1.371350007146221,-1.091099999999983,0.1389100000000098,1.0999069042877974,0.5923999999999978,1.972740000000016,2.0597671877180828,0.9708500000000412,-0.3929899999999975,1.0473733157762222,-0.8651199999999335,-1.7946599999999933,1.9922944385807688,-2.1544000000000096,-0.5341199999999731,2.2196223855421926,-3.234100000000012,-1.7902799999999672,3.696553163204874,4.239989999999921,0.3603999999999985,4.255279469094753,3.694529999999872,1.8305299999999816,4.123153162544291,-2.5069400000001,-0.9961799999999812,2.697614271166369,-4.054840000000127,-0.1354799999999727,4.057102692316405,-0.1460749999999961,1.6720450000000255,142.02956899999998,1.210283631786048,102.60701509999998,1.76101845179896,101.939975,1.384813298381656,0.03758375,0.444126954,0.1037825065631034,0,0
31,1033.3333333333337,511.45132,105.99043,0.8880978,512.6943,101.37714,0.9334136,509.79187,104.22087,0.39230707,522.3078,94.74898,0.9511022,515.5063,100.42429,0.124894395,537.09,101.70466,0.99807465,532.8154,108.95904,0.9347632,534.5905,131.04086,0.9967662,529.2554,138.34152,0.6812619,512.3473,153.66145,0.98789805,515.6648,155.10364,0.68167776,570.9911,137.81755,0.9982173,566.4907,140.83723,0.98999375,533.9495,164.30386,0.9972019,530.69324,170.92572,0.9834879,563.0805,207.2868,0.989205,553.1154,209.55664,0.96775514,0.94995833,-0.47483263,0.48588668,0.66397962,140.3519030928003,147.87344238938883,91.43954237914754,99.91599319470414,44.82474280191431,139.32739,105.33185,105.99043,61.19922999999994,114.80765999999998,0.5330587651289225,120.50846401318888,0.8527128126470588,-2.370580000000018,2.183835000000002,3.2231637941043414,0.2842200000000048,0.8386200000000059,0.8854741739881591,-2.948600000000056,2.1215899999999976,3.632545400693613,-0.0646000000001549,1.0703999999999922,1.0723475742500672,-2.444529999999986,2.315340000000006,3.366975829509318,0.612039999999979,0.9384200000000078,1.1203682689187466,-4.344299999999976,1.3958200000000005,4.563031444379908,-0.9878599999999552,0.719616000000002,1.2221761604023842,-2.613399999999956,1.9368800000000024,3.252900812259694,0.8740000000000236,0.4172100000000114,0.9684731199677412,-4.40300000000002,-0.2242799999999931,4.408708486439104,-1.0925300000001243,-0.4792399999999901,1.1930183479311047,-1.5720499999999902,1.934110000000004,2.4924130264865783,0.8283400000000256,0.5491700000000037,0.993848501784878,-3.5278999999999314,-0.3473400000000026,3.5449574730311677,0.2671500000001288,-0.7040200000000141,0.7530028438857909,0.223700000000008,4.262589999999989,4.268455832979874,1.5489000000000033,1.7231299999999692,2.316952353178612,-3.8678999999999633,3.2496900000000157,5.051844762668368,-1.797999999999888,3.4718400000000145,3.909792447892816,-1.0900000000000318,4.74872000000002,4.872211165210336,-0.5504000000000815,3.4191900000000146,3.463206666674715,-0.7943000000000211,-1.9034599999999957,2.062540293327628,0.2187999999999874,-1.4723999999999933,1.4885681710959613,0.8154999999999291,-0.7637200000000064,1.1172772656775465,1.906599999999912,-0.9026300000000164,2.1094701886729035,0.6986499999999296,0.9352099999999836,1.1673600843783682,-0.2722000000001117,1.3281999999999812,1.3558053252587596,0.8005399999999554,2.39998,2.5299739706170743,2.954939999999965,2.9340999999999724,4.16420619249331,2.298150000000078,-0.6022000000000105,2.3757395190761907,-1.9418399999998428,-0.962600000000009,2.1673350792158117,0.5224400000000742,0.2579899999999782,0.5826683393664583,3.029380000000174,1.2541699999999594,3.2787323119310843,-1.3335899999999867,-1.1875149999999906,141.343587,1.6030025183649523,103.69147660000002,1.291590785611083,103.016543,2.0314264760986767,0.1255248199999999,0.5231265260000001,0.0859330096051227,0,0
32,1066.6666666666667,507.8775,107.57864,0.86030114,508.5094,102.69467,0.91367286,506.48126,105.71229,0.34192827,517.7998,96.65295,0.94842803,514.25745,102.61982,0.14137772,532.21405,103.86791,0.99733824,532.9106,110.46698,0.94440836,528.587,134.00461,0.9951557,530.76013,138.55122,0.70592374,507.0878,160.48413,0.9820035,513.3476,158.77707,0.67767173,569.256,139.22806,0.99727744,568.995,141.94504,0.9876315,532.4456,165.23288,0.9953739,533.8118,169.7851,0.9777533,562.1078,206.40936,0.98235184,558.3299,204.51839,0.9551959,0.98265536,-0.39106754,0.52027704,0.73619938,147.7889568787517,143.6533988906334,89.47165789825829,93.1360365204583,47.57237921184062,140.58655,107.167445,107.57864,62.77473999999995,109.75641,0.5719459977604403,83.97458384616668,0.8472819511764706,-3.573820000000012,1.5882099999999897,3.910831164407389,-1.203239999999994,-0.5956250000000125,1.342592878807645,-4.1848999999999705,1.317530000000005,4.387399379005719,-1.2362999999999147,-0.8040599999999927,1.47477122754676,-3.310609999999997,1.4914199999999909,3.631042851372034,-0.8660800000000108,-0.8239200000000153,1.1953822538418597,-4.508000000000038,1.903970000000001,4.893584142619839,-0.1637000000000625,0.5081500000000005,0.5338671300052299,-1.2488500000000613,2.195530000000005,2.5258618931763026,1.364549999999895,0.2586500000000029,1.3888471928184591,-4.875949999999989,2.163249999999991,5.334279610687824,-0.4729499999999689,2.387529999999984,2.4339230068759146,0.0952000000000907,1.507940000000005,1.5109421178854048,1.667250000000081,-0.426169999999999,1.7208554359388442,-6.003500000000031,2.9637500000000045,6.695209206029368,-2.4756000000000995,3.311090000000007,4.1342366100769485,1.504729999999995,0.209699999999998,1.51927168830989,1.281029999999987,-4.052889999999991,4.2505241103892,-5.259500000000003,6.822679999999991,8.614598228147376,-1.3916000000000397,3.572989999999976,3.834424089755845,-2.317199999999957,3.673429999999996,4.343213534342949,-1.2271999999999252,-1.0752900000000238,1.6316459248562072,-1.7350999999999883,1.410509999999988,2.236092679228642,-0.9407999999999674,3.3139699999999834,3.444924063154343,2.504300000000057,1.1078100000000006,2.738386657523055,1.6888000000001284,1.871530000000007,2.5208470760640083,-1.5038999999999303,0.9290200000000084,1.7677085083236452,-2.20254999999986,-0.0061899999999752,2.202558698105316,3.118560000000002,-1.1406200000000126,3.3206069412081947,2.318020000000047,-3.540600000000012,4.231910334636156,-0.9727000000000317,-0.8774400000000071,1.309979482129424,-3.270850000000109,-0.2752399999999966,3.2824102089928853,5.21449999999993,-5.038249999999977,7.250860177420265,4.692059999999856,-5.296239999999955,7.075703864718913,1.25915999999998,2.592749999999967,140.80142999999998,1.179488342901069,104.7262646,1.621584469629474,104.427731,2.2990754871914625,0.0722197599999999,0.5791336859999999,0.117014874778332,0,0
33,1100.0,505.31885,111.63651,0.8316906,505.48358,106.951355,0.88994265,504.16544,109.43559,0.30689812,513.60266,100.180786,0.93957525,512.28796,104.850395,0.15019163,527.5653,106.893425,0.9967933,532.1656,110.39244,0.9442712,524.0808,139.33163,0.9941439,531.36066,138.35637,0.7211565,501.37625,166.57684,0.9782737,512.3106,161.43492,0.68577653,567.9759,138.09425,0.9968088,570.32214,139.72163,0.9870198,532.485,166.53781,0.99466443,536.25085,170.04465,0.97707444,562.59143,207.80786,0.9797615,560.47675,205.84451,0.95229644,1.03651041,-0.45591794,0.56965177,0.73619938,146.32535135610254,142.11102146961034,92.5991328163345,97.58232095991475,52.388479644553975,138.90794,108.6429325,111.63651,68.94588999999996,107.627074,0.6405998676448278,37.25683028972882,0.8427258111764706,-2.55865,4.057870000000008,4.797186546237291,1.015170000000012,2.469660000000019,2.67016678215053,-3.02582000000001,4.2566850000000045,5.222542853976892,1.1590799999999604,2.9391549999999995,3.159445926175174,-2.31582000000003,3.723300000000009,4.384744594888077,0.9947899999999664,2.231880000000018,2.443541585179187,-4.19713999999999,3.527835999999993,5.482846981495642,0.3108600000000479,1.6238659999999925,1.6533525714607895,-1.969489999999951,2.2305750000000018,2.9756269407848848,-0.7206399999998894,0.0350449999999966,0.7214916226990029,-4.648750000000064,3.025514999999998,5.546586119202115,0.2271999999999252,0.8622650000000078,0.8916954470137096,-0.7450000000000045,-0.0745400000000131,0.7487197149801845,-0.8402000000000953,-1.582480000000018,1.7916972373702589,-4.506200000000035,5.327019999999976,6.977319006638586,1.4972999999999956,2.363269999999972,2.797669098177955,0.6005300000000489,-0.1948500000000024,0.6313499848737304,-0.9041999999999462,-0.4045500000000004,0.9905747536152448,-5.711549999999988,6.092710000000011,8.351222577958271,-0.4520499999999856,-0.7299699999999802,0.858606663962002,-1.0370000000000346,2.6578499999999963,2.8529871402619484,1.2801999999999223,-1.01558,1.6341097810122187,-1.2800999999999476,-1.133810000000011,1.7100237209173128,0.4550000000000409,-2.544319999999999,2.584683590383943,1.3271399999999858,-2.223410000000001,2.5893730143994254,-1.1771600000000717,-3.331220000000002,3.533091048076766,0.0394000000000005,1.304930000000013,1.3055246703528949,1.543299999999931,0.3759100000000046,1.5884216121986603,2.4390500000000657,0.2595499999999902,2.452821050341895,-0.6795099999999366,1.4001700000000028,1.556345035331151,0.4836299999999482,1.3985000000000127,1.479763571284273,1.45632999999998,2.27594000000002,2.701999251017667,2.146850000000086,1.326120000000003,2.5234023018338507,-3.067649999999844,6.36436999999998,7.065103114562362,-1.678609999999992,-2.937769999999972,140.057983,0.874708858733678,105.8552295,2.030954101289653,106.294711,3.576346772385841,0.0,0.635140846,0.110265474065182,0,0
34,1133.3333333333333,500.00266,113.01149,0.81309235,500.25537,108.4325,0.8545727,498.98892,110.22069,0.269357,508.69086,102.07059,0.902606,507.48016,105.38793,0.12816101,522.4547,109.16237,0.9937494,527.18115,111.93445,0.9297017,519.95264,141.4647,0.98999316,524.9401,140.29326,0.7179504,499.50702,166.38815,0.97349584,508.32996,163.62384,0.7184092,565.76196,137.05647,0.99435556,567.56854,138.88808,0.98070854,537.3578,167.81787,0.99227285,535.94824,171.58716,0.97219366,565.22595,210.06433,0.974959,553.2197,208.73834,0.94902784,1.0497494,-0.49472992,0.62786974,0.68043787,145.06586316988748,149.06954206334285,103.87044073726256,111.02732858574406,56.76191774428469,137.972275,110.54841,113.01149,68.57961999999998,107.99374000000002,0.6350332840122648,30.391777017535933,0.8326238947058824,-5.316190000000006,1.3749799999999937,5.491124303501064,-2.757540000000006,-2.6828900000000147,3.8473270726180937,-5.22820999999999,1.481144999999998,5.433964511765318,-2.20238999999998,-2.7755400000000066,3.5431827505365776,-5.176519999999982,0.7850999999999999,5.235717841939137,-2.860699999999952,-2.938200000000009,4.10080769239424,-4.911800000000028,1.889803999999998,5.262807083526458,-0.7146600000000376,-1.6380319999999955,1.7871451392161857,-4.807799999999986,0.5375349999999912,4.837756165437119,-2.8383100000000354,-1.6930400000000103,3.3049036442383968,-5.110599999999977,2.268945000000002,5.59163158416439,-0.461849999999913,-0.7565699999999964,0.8863992257441984,-4.984450000000038,1.5420100000000048,5.217522078784181,-4.2394500000000335,1.616550000000018,4.537198497421106,-4.12815999999998,2.133070000000004,4.646686196688974,0.3780400000000554,-3.1939499999999725,3.216244835845037,-6.420560000000023,1.936890000000005,6.7063502432918245,-7.021090000000072,2.131740000000008,7.337575908684083,-1.869230000000016,-0.1886900000000082,1.878729546528734,3.842319999999973,-6.281400000000019,7.363382982189642,-3.980639999999994,2.188919999999996,4.542781700236094,-2.9436399999999594,-0.4689300000000003,2.9807569163720413,-2.21393999999998,-1.037779999999998,2.445100744754683,-0.933840000000032,0.0960300000000131,0.9387645639349956,-2.753600000000006,-0.8335500000000025,2.876998186043925,-4.080739999999992,1.3898599999999988,4.310933746556531,4.872799999999984,1.2800599999999918,5.038127970149212,4.833399999999983,-0.0248700000000212,4.833463983200852,-0.3026099999999587,1.5425100000000214,1.571912819529137,-2.7416600000000244,1.2829600000000312,3.026992883572773,2.634520000000066,2.2564700000000077,3.46876815185166,2.1508900000001177,0.8579699999999946,2.3156943479225616,-7.257050000000049,2.89382999999998,7.8127477094426,-9.403900000000135,1.5677099999999768,9.533679764608337,-0.9356650000000002,0.7429449999999918,139.491027,1.1448073877938296,107.2335145,2.459390923778497,108.404733,3.8509983875054528,-0.0557615099999999,0.67105421,0.080945186360385,0,0
35,1166.6666666666667,497.17627,114.6918,0.82240623,497.83313,110.54265,0.85502374,495.9209,111.7541,0.29584056,506.0556,104.71799,0.8955247,502.75885,106.6207,0.14059353,517.7765,112.19824,0.9936832,522.457,111.94875,0.93553245,513.88794,146.84224,0.98943245,519.8163,139.22585,0.7363982,494.16537,172.08893,0.9723422,505.57254,163.90222,0.7338981,564.1553,134.85406,0.9944349,566.2779,135.93533,0.9819989,534.46326,168.46016,0.9927684,537.8817,171.6597,0.9751854,561.5766,211.73737,0.97656745,558.135,210.62837,0.9537188,1.07035543,-0.48637797,0.72096937,0.62393942,148.40751716547229,155.53506450780012,106.4710935581686,114.05751013101452,62.65644812886009,135.394695,112.073495,114.6918,72.11253000000005,107.01938,0.6738268276846047,-3.05121426881558,0.8379617182352942,-2.8263900000000035,1.6803100000000055,3.288148738758641,2.4898000000000025,0.3053300000000121,2.50845180318459,-2.422240000000045,2.11014999999999,3.212472511960246,2.805969999999945,0.6290049999999923,2.8756068804557904,-3.06801999999999,1.5334099999999893,3.429882351991086,2.1084999999999923,0.7483099999999894,2.237351136075862,-2.63525999999996,2.6474000000000046,3.7354145723868206,2.276540000000068,0.7575960000000066,2.399288659335579,-4.721310000000017,1.232770000000002,4.879599367673555,0.0864899999999693,0.6952350000000109,0.7005941944699584,-4.678199999999947,3.0358700000000027,5.57692226025247,0.4324000000000296,0.7669250000000005,0.8804224642891766,-4.724150000000009,0.0143000000000057,4.724171642997329,0.2603000000000293,-1.527709999999999,1.5497270514835868,-6.064700000000016,5.37754000000001,8.105462512503546,-1.9365400000000363,3.244470000000007,3.7784616912839257,-5.123800000000074,-1.0674099999999953,5.233802685247195,1.2967599999999493,-3.0043000000000006,3.272217136377088,-5.341650000000016,5.700780000000009,7.812305506756649,-3.47242,5.889470000000017,6.836926029825115,-2.7574200000000246,0.2783799999999985,2.7714365373935834,1.223219999999969,-1.9105399999999972,2.2685744995481008,-1.6066600000000335,-2.202409999999986,2.7261632679830545,0.6072799999999461,-1.1646299999999885,1.313450431230622,-1.2906399999999394,-2.952750000000009,3.2224965744124376,1.4629600000000664,-2.1192000000000064,2.575123414828932,-2.8945400000000063,0.6422900000000027,2.964944899268794,-7.76733999999999,-0.6377699999999891,7.793479405791731,1.933459999999968,0.0725399999999751,1.9348203077288275,2.236069999999927,-1.4699700000000462,2.675971009895251,-3.6493500000000263,1.673039999999986,4.014575726537008,-6.283870000000093,-0.5834300000000212,6.310896350107581,4.915300000000002,1.890029999999996,5.26615490570682,12.172350000000051,-1.003799999999984,12.213669348828027,-2.5775799999999838,-1.6419149999999831,138.43777,1.943368860533205,108.7528265,2.6683117695322114,110.581774,3.674491636244334,-0.0564984499999999,0.6881511339999999,0.048435959350355,0,0
36,1200.0,494.66003,117.48988,0.8464867,495.5516,113.66432,0.8792084,493.5934,114.51039,0.31493244,503.96503,108.00336,0.9143196,500.43973,109.01834,0.143972,514.8603,114.77453,0.9952821,520.92456,113.84172,0.9433027,510.1172,148.67052,0.9918982,518.8918,139.9532,0.7462814,489.9337,174.00626,0.97744924,505.02527,163.25824,0.7438212,564.1641,134.91252,0.9952893,567.4436,135.8484,0.98353577,532.95166,169.42374,0.99355596,539.8619,172.1188,0.9759713,560.4977,213.01591,0.9774138,563.19556,211.08865,0.95317143,0.98607905,-0.4470747,0.68535078,0.55024578,149.42345407570585,153.69875478420033,105.58442850937163,111.8373858285445,66.25921288936227,135.38046,114.308125,117.48988,77.50989999999996,105.01255,0.7381012961012628,-8.744749410159276,0.8456406788235293,-2.516239999999982,2.798079999999999,3.7630726041361338,0.3101500000000214,1.117769999999993,1.1600012049131665,-2.281529999999975,3.121670000000009,3.86654920178186,0.1407100000000696,1.0115200000000186,1.0212600131700336,-2.327500000000043,2.756290000000007,3.6075463703326447,0.7405199999999468,1.2228800000000175,1.429617209185719,-2.090570000000014,3.2853700000000003,3.8941159409807073,0.5446899999999459,0.6379699999999957,0.8388640634810479,-2.319119999999998,2.397639999999996,3.33571508735383,2.4021900000000187,1.1648699999999934,2.669726374181458,-2.9162000000000035,2.57629,3.8912070883082057,1.7619999999999436,-0.4595800000000025,1.820949690793187,-1.5324399999999514,1.8929699999999912,2.4355097566012374,3.1917100000000573,1.8786699999999852,3.703567697909721,-3.770739999999933,1.8282800000000063,4.190595173242044,2.293960000000084,-3.549260000000004,4.226050050484544,-0.9244999999999663,0.7273500000000013,1.1763240508040034,4.199300000000108,1.7947599999999966,4.566758582145644,-4.231670000000008,1.9173299999999929,4.645770691478438,1.1099800000000073,-3.783450000000016,3.942911297873709,-0.5472700000000259,-0.6439799999999991,0.8451122371022841,2.2101499999999987,-0.9223599999999976,2.394892689057276,0.008799999999951,0.0584599999999966,0.0591186231233335,1.6154599999999846,2.260869999999983,2.77871268189064,1.1656999999999016,-0.0869299999999952,1.1689368310134511,2.456339999999841,2.8658200000000136,3.7744576389197024,-1.511600000000044,0.9635800000000074,1.792601733905261,1.3829399999999623,0.3212900000000047,1.4197712166753835,1.980199999999968,0.4591000000000065,2.0327235055461625,0.0467399999999997,0.3865600000000313,0.3893754758584883,-1.078899999999976,1.2785399999999925,1.6729284926738288,2.5704500000000507,-0.3944999999999936,2.600546760298737,5.0605600000000095,0.4602800000000115,5.081449123232477,0.1452600000000075,-1.4297499999999843,1.4371101315139203,-0.0142350000000135,2.56334499999997,137.64838400000002,2.2664288825750383,110.5480815,2.807272227319685,112.881664,3.681085908387569,-0.07369364,0.665404366,0.0794208976487627,0,0
37,1233.3333333333337,489.8154,120.51433,0.8567487,490.41208,116.700195,0.88082415,488.53705,117.812614,0.34469727,498.33173,110.97365,0.91096556,494.75247,112.78995,0.15819299,509.7999,117.37088,0.99543756,515.30505,117.313255,0.9506525,505.18127,151.1766,0.9917698,511.03143,143.83852,0.77178234,486.3652,175.55435,0.9769645,497.8326,165.78922,0.7620123,562.33606,133.82472,0.995199,565.8373,135.34026,0.98421913,530.8298,169.06798,0.993287,541.89545,171.59058,0.97624695,559.41504,213.14119,0.9760273,568.0969,209.98222,0.95201135,0.95741204,-0.4308621,0.66152317,0.54164819,150.11683191730995,158.13430831527185,105.2375305904092,112.244196893385,71.50268131290795,134.58249,117.3420675,120.51433,81.73169999999999,102.16754,0.7999771669164476,-0.5997200288182188,0.8515904941176471,-4.844629999999995,3.0244500000000016,5.711194064239103,-2.328390000000013,0.2263700000000028,2.3393681559344315,-5.1395200000000045,3.03587499999999,5.9691877878003625,-2.8579900000000293,-0.0857950000000187,2.859277465046925,-5.056349999999952,3.3022239999999954,6.039152148164135,-2.728849999999909,0.5459339999999884,2.7829240476260737,-5.63330000000002,2.9702900000000056,6.368413583782091,-3.542730000000006,-0.3150799999999947,3.556713547546392,-5.687259999999981,3.7716100000000097,6.82421924469751,-3.3681399999999826,1.373970000000014,3.637603692061564,-5.060400000000072,2.596350000000001,5.687590129615595,-2.144200000000069,0.0200600000000008,2.1442938333167625,-5.619509999999991,3.471535000000003,6.60533480577063,-4.08707000000004,1.5785650000000118,4.381324987275581,-4.935930000000042,2.506079999999997,5.535688026912318,-1.1651900000001092,0.6777999999999906,1.3479913115818818,-7.860369999999989,3.885319999999979,8.768188412625475,-6.935870000000023,3.157969999999977,7.6209623524723025,-3.568499999999972,1.548090000000002,3.889829674690115,0.6631700000000365,-0.3692399999999907,0.7590340087901474,-7.192669999999964,2.53098,7.624982720590223,-6.645399999999938,3.1749599999999987,7.364897294708133,-1.8280399999999872,-1.0877999999999872,2.12721392473816,-1.8368399999999383,-1.1462599999999838,2.1651543070182635,-1.6062999999999192,-0.5081399999999974,1.6847569408077052,-2.771999999999821,-0.4212100000000021,2.803819156810761,-2.1218599999999697,-0.3557600000000036,2.1514774080152166,-0.6102599999999256,-1.319340000000011,1.45364208221967,2.033549999999991,-0.5282200000000046,2.1010335482566598,0.0533500000000231,-0.9873200000000112,0.9887603374428124,-1.0826600000000326,0.1252800000000036,1.0898842846835033,-0.0037600000000566,-1.1532599999999888,1.1532661293907729,4.901340000000005,-1.106429999999989,5.024671247007113,-0.1592200000000048,-1.5667100000000005,1.5747797409479216,-0.7979699999999923,-0.7837349999999788,136.447572,1.8777605543600744,112.583006,3.374465270701588,115.468802,3.5661844255267456,-0.00859759,0.626494128,0.0836127082418404,0,0
38,1266.6666666666663,484.87308,125.0807,0.7065402,485.10812,121.32236,0.7587991,484.75986,122.23009,0.1843842,493.17938,115.96617,0.8582938,493.0251,117.112595,0.09866972,505.13568,121.129395,0.98957705,513.10815,120.68094,0.9022889,499.47552,154.75723,0.9862368,510.2846,148.86363,0.69727236,482.91498,175.8124,0.96534806,496.62497,170.88766,0.6985834,559.75366,134.80005,0.9921686,562.79834,136.21976,0.975874,535.3943,169.69745,0.9901468,532.9371,171.72572,0.9673246,570.26587,214.2826,0.9690498,555.6126,211.38184,0.9406145,0.81549573,-0.20388571,0.60797246,0.5038188,151.36819692791732,153.91341978619403,107.05370502828626,110.17441303949064,74.35613031938252,135.509905,120.9051675,125.0807,87.35088999999994,98.31643,0.888466852504033,-3.219520418731192,0.8047748170588235,-4.942319999999995,4.566369999999992,6.728912390520469,-0.09769,1.5419199999999904,1.5450115282741326,-5.303960000000018,4.62216500000001,7.035367863077615,-0.1644400000000132,1.5862900000000195,1.5947904181114414,-3.7771900000000183,4.417476000000008,5.812164700580689,1.2791599999999337,1.1152520000000123,1.6970672730047731,-5.152350000000013,4.992519999999999,7.174396592947739,0.4809500000000071,2.0222299999999933,2.078635868881315,-1.7273700000000076,4.322644999999994,4.65500450192317,3.959889999999973,0.5510349999999846,3.9980455704412337,-4.66422,3.7585150000000023,5.990107112032724,0.3961800000000721,1.1621650000000017,1.227837969613687,-2.196900000000028,3.3676850000000087,4.020904359621748,3.4226099999999637,-0.1038499999999942,3.4241851635972824,-5.705749999999966,3.580629999999985,6.736207706076136,-0.7698199999999247,1.074549999999988,1.3218473947093357,-0.7468299999999886,5.025110000000012,5.080303687871435,7.11354,1.1397900000000334,7.204274604406754,-3.4502200000000016,0.2580499999999972,3.4598566228819383,0.1182799999999701,-1.2900400000000047,1.2954510257049492,-1.2076299999999949,5.098440000000011,5.239509581105859,5.9850399999999695,2.567460000000011,6.5124921998571095,-2.582400000000007,0.9753299999999854,2.7604453207589543,-0.7543600000000197,2.0631299999999726,2.196716733331796,-3.0389599999999746,0.8795000000000073,3.1636684610748738,-1.4326600000000551,1.3876400000000046,1.994507318913664,4.564500000000066,0.6294699999999978,4.607699288245773,6.686360000000036,0.9852300000000014,6.75855666562769,-8.958349999999996,0.1351400000000069,8.959369260282775,-10.991899999999989,0.6633600000000115,11.01189866006765,10.850829999999974,1.1414100000000076,10.910697891381623,11.933490000000006,1.016130000000004,11.976673317620389,-12.484299999999962,1.3996199999999988,12.562511000369277,-17.385639999999967,2.506049999999988,17.56532848574426,0.9274149999999964,1.7253849999999886,135.767965,1.2865087575744747,115.035453,4.15962062153269,118.15764,4.8068585808560576,-0.0378293899999999,0.5800180119999999,0.0710249725614825,0,0
39,1300.0,482.09583,129.81448,0.69072264,482.1445,126.00641,0.75571907,481.64334,126.87041,0.18313023,489.04865,121.00049,0.86607677,488.24146,122.25061,0.10339764,500.71185,125.03618,0.99102575,507.4257,124.86279,0.90303946,496.00415,158.83311,0.988489,505.3373,153.91168,0.69721794,480.15918,181.59607,0.9658888,489.78244,175.90662,0.6772702,556.38293,134.79282,0.99343395,557.7008,136.20322,0.97825897,537.2778,171.06206,0.99121726,527.8581,171.3289,0.96860963,575.8712,216.86862,0.9694547,551.6714,210.62354,0.9382791,0.81549573,-0.20388571,0.60797246,0.5038188,153.0886943640224,148.8440502960861,112.10645805226956,108.43218400483484,78.73800213660864,135.49802,124.949485,129.81448,95.71202000000004,95.86813,0.9983716069316096,-1.479375831480097,0.8036018300000001,-2.7772500000000377,4.73378000000001,5.488332228546328,2.1650699999999574,0.167410000000018,2.1715326875273653,-2.963619999999992,4.684049999999999,5.54286639807419,2.340340000000026,0.0618849999999895,2.3411580614783616,-3.11651999999998,4.640320000000003,5.5897465606948495,0.6606700000000387,0.2228439999999949,0.6972404873758041,-4.130729999999971,5.034319999999994,6.512089387846247,1.0216200000000413,0.0417999999999949,1.0224747744566045,-4.783639999999991,5.138014999999996,7.020143145963967,-3.056269999999984,0.8153700000000015,3.163165273867286,-4.423829999999953,3.9067849999999993,5.901969239594915,0.2403900000000476,0.1482699999999965,0.2824382144824278,-5.682450000000017,4.181849999999997,7.055360191017902,-3.4855499999999893,0.8141649999999885,3.579374728877225,-3.471370000000036,4.075880000000012,5.35380308297759,2.2343799999999305,0.495250000000027,2.2886079932788217,-4.947299999999984,5.048049999999989,7.0681387997477625,-4.200469999999996,0.022939999999977,4.200532640570713,-2.755800000000022,5.783670000000001,6.406658435479461,0.6944199999999796,5.525620000000004,5.5690839031926975,-6.842530000000011,5.018959999999993,8.48588099624901,-5.634900000000016,-0.0794800000000179,5.635460502958049,-3.3707299999999805,-0.0072299999999927,3.37073775393457,-0.7883299999999736,-0.982559999999978,1.2597175645754548,-5.097540000000095,-0.0165400000000204,5.097566833617875,-2.05858000000012,-0.8960400000000277,2.2451368105308287,1.883499999999913,1.364609999999999,2.325883209041174,-2.6810000000001537,0.7351400000000012,2.779962557230012,-5.078999999999951,-0.396819999999991,5.094478100100097,3.879350000000045,-0.531959999999998,3.915652929474259,5.605330000000095,2.5860199999999907,6.173104879175552,-5.245499999999879,1.444609999999983,5.4407874707709984,-3.9412000000000944,-0.7583000000000197,4.0134868045131,8.543099999999868,-2.1579200000000185,8.811423059665097,-0.0118850000000065,-0.9393000000000028,135.27311400000002,0.3904866512391007,117.915668,5.14504757612528,121.51823800000004,6.028153159145804,0.0,0.544694198,0.0491464641672856,0,0
40,1333.3333333333333,479.43124,134.74603,0.68244207,478.9451,131.13965,0.7238238,479.68097,131.5543,0.18706664,484.68707,124.28589,0.83124304,487.90866,124.79147,0.106726475,495.28937,127.70943,0.9857113,508.327,125.563385,0.8771298,487.97226,166.05878,0.9810852,509.38956,155.91785,0.6609463,473.56592,188.0267,0.9561573,503.56317,177.38681,0.6700645,551.51044,135.68336,0.98585135,557.35254,136.75955,0.95877475,536.9997,171.75314,0.9812019,534.19385,172.07184,0.9416431,571.4984,216.32681,0.9472948,551.3639,211.06985,0.90311664,0.69140717,-0.11766417,0.47434134,0.48908007,157.5458201774802,162.8115735970987,120.34644859251677,122.97918608506328,79.67705437875009,136.221455,126.6364075,134.74603,97.93247999999994,92.04092,1.0640102134571203,-9.347291417564534,0.787075233235294,-2.664589999999976,4.931549999999987,5.605374677093383,0.1126600000000621,0.1977699999999771,0.2276076635353145,-3.1993999999999687,5.1332399999999865,6.048662104763306,-0.235779999999977,0.4491899999999873,0.5073104222268431,-1.9623700000000213,4.683890000000005,5.078358154856757,1.1541499999999587,0.0435700000000025,1.1549721067627152,-4.361580000000004,3.285399999999996,5.460515841603246,-0.2308500000000322,-1.7489199999999985,1.7640898188300982,-0.3328000000000202,2.540860000000009,2.562562268433698,4.450839999999971,-2.5971549999999866,5.153172886642236,-5.422480000000007,2.673249999999996,6.045622789498205,-0.9986500000000548,-1.2335350000000034,1.58710756369098,0.901299999999992,0.7005949999999928,1.141566924899708,6.583750000000009,-3.4812550000000044,7.447476111913697,-8.031889999999976,7.225670000000008,10.80377544754609,-4.56051999999994,3.149789999999996,5.542519257025584,4.05225999999999,2.0061699999999973,4.521673271754596,8.999559999999974,-3.041879999999992,9.49974284536163,-6.593259999999987,6.430630000000008,9.209998893838147,-3.837459999999965,0.6469600000000071,3.891613610470564,13.780730000000004,1.4801899999999932,13.859995734811758,20.623260000000016,-3.5387699999999995,20.92466836393114,-4.872489999999971,0.8905399999999872,4.9532030335632005,-1.5017599999999902,0.89776999999998,1.7496496993684008,-0.348259999999982,0.5563300000000027,0.6563444952919087,4.7492800000001125,0.5728700000000231,4.783705734605871,-0.2780999999999949,0.6910799999999995,0.7449370284795866,-2.161599999999908,-0.6735299999999995,2.2641018574480256,6.335749999999962,0.7429400000000044,6.379160438968401,11.414749999999913,1.1397599999999954,11.471511252668412,-4.3728000000000975,-0.5418099999999981,4.406238522379474,-9.978130000000192,-3.127829999999989,10.456882843649142,-0.3075000000000045,0.4463100000000111,0.5419860386578355,3.63370000000009,1.2046100000000308,3.828166786087138,0.7234349999999949,0.7353200000000015,135.438466,0.5826194281826563,120.8282505,5.132998300476315,125.52908399999998,6.95151636855798,-0.01473873,0.517722328,0.0266327661324908,0,0
