frame_id,timestamp_ms,nose_x,nose_y,nose_conf,left_eye_x,left_eye_y,left_eye_conf,right_eye_x,right_eye_y,right_eye_conf,left_ear_x,left_ear_y,left_ear_conf,right_ear_x,right_ear_y,right_ear_conf,left_shoulder_x,left_shoulder_y,left_shoulder_conf,right_shoulder_x,right_shoulder_y,right_shoulder_conf,left_elbow_x,left_elbow_y,left_elbow_conf,right_elbow_x,right_elbow_y,right_elbow_conf,left_wrist_x,left_wrist_y,left_wrist_conf,right_wrist_x,right_wrist_y,right_wrist_conf,left_hip_x,left_hip_y,left_hip_conf,right_hip_x,right_hip_y,right_hip_conf,left_knee_x,left_knee_y,left_knee_conf,right_knee_x,right_knee_y,right_knee_conf,left_ankle_x,left_ankle_y,left_ankle_conf,right_ankle_x,right_ankle_y,right_ankle_conf,acc_x,acc_y,acc_z,acc_mag,left_elbow_angle,right_elbow_angle,left_knee_angle,right_knee_angle,spine_angle,hip_height,shoulder_height,head_height,bbox_width,bbox_height,bbox_aspect_ratio,shoulder_tilt,avg_confidence,nose_vx,nose_vy,nose_speed,nose_ax,nose_ay,nose_accel,left_eye_vx,left_eye_vy,left_eye_speed,left_eye_ax,left_eye_ay,left_eye_accel,right_eye_vx,right_eye_vy,right_eye_speed,right_eye_ax,right_eye_ay,right_eye_accel,left_ear_vx,left_ear_vy,left_ear_speed,left_ear_ax,left_ear_ay,left_ear_accel,right_ear_vx,right_ear_vy,right_ear_speed,right_ear_ax,right_ear_ay,right_ear_accel,left_shoulder_vx,left_shoulder_vy,left_shoulder_speed,left_shoulder_ax,left_shoulder_ay,left_shoulder_accel,right_shoulder_vx,right_shoulder_vy,right_shoulder_speed,right_shoulder_ax,right_shoulder_ay,right_shoulder_accel,left_elbow_vx,left_elbow_vy,left_elbow_speed,left_elbow_ax,left_elbow_ay,left_elbow_accel,right_elbow_vx,right_elbow_vy,right_elbow_speed,right_elbow_ax,right_elbow_ay,right_elbow_accel,left_wrist_vx,left_wrist_vy,left_wrist_speed,left_wrist_ax,left_wrist_ay,left_wrist_accel,right_wrist_vx,right_wrist_vy,right_wrist_speed,right_wrist_ax,right_wrist_ay,right_wrist_accel,left_hip_vx,left_hip_vy,left_hip_speed,left_hip_ax,left_hip_ay,left_hip_accel,right_hip_vx,right_hip_vy,right_hip_speed,right_hip_ax,right_hip_ay,right_hip_accel,left_knee_vx,left_knee_vy,left_knee_speed,left_knee_ax,left_knee_ay,left_knee_accel,right_knee_vx,right_knee_vy,right_knee_speed,right_knee_ax,right_knee_ay,right_knee_accel,left_ankle_vx,left_ankle_vy,left_ankle_speed,left_ankle_ax,left_ankle_ay,left_ankle_accel,right_ankle_vx,right_ankle_vy,right_ankle_speed,right_ankle_ax,right_ankle_ay,right_ankle_accel,hip_velocity,hip_acceleration,hip_height_mean_5,hip_height_std_5,shoulder_height_mean_5,shoulder_height_std_5,head_height_mean_5,head_height_std_5,acc_mag_diff,acc_mag_mean_5,acc_mag_std_5,label_binary,label_3class
0,0.0,498.6641,25.810791,0.7829275,499.77695,22.113083,0.2611583,497.21582,20.47084,0.8365177,488.94208,20.358627,0.11281793,483.2041,17.253426,0.88411826,481.5308,42.694847,0.87730473,465.93372,41.346405,0.986427,478.30435,84.65032,0.5729693,457.38467,81.56303,0.96999234,488.4595,115.52605,0.5517531,473.6534,116.047485,0.93159205,482.8313,116.49902,0.9690193,472.55148,117.33843,0.989806,488.65985,171.46837,0.9542339,477.9185,173.83023,0.98462385,482.27838,221.39706,0.89319295,474.32446,228.03253,0.9437488,1.0576401,-0.34414926,0.9265746,-0.37632881,157.3962679517032,142.7424572436723,166.66380736041208,170.77927808148544,3.0258657848936314,116.918725,42.020626,25.810791,42.39227999999997,210.779104,0.201121833210175,-175.0587928843745,0.794247235882353,0.0,0.0,0.0,0.0,0.0,0.0,0.0,0.0,0.0,0.0,0.0,0.0,0.0,0.0,0.0,0.0,0.0,0.0,0.0,0.0,0.0,0.0,0.0,0.0,0.0,0.0,0.0,0.0,0.0,0.0,0.0,0.0,0.0,0.0,0.0,0.0,0.0,0.0,0.0,0.0,0.0,0.0,0.0,0.0,0.0,0.0,0.0,0.0,0.0,0.0,0.0,0.0,0.0,0.0,0.0,0.0,0.0,0.0,0.0,0.0,0.0,0.0,0.0,0.0,0.0,0.0,0.0,0.0,0.0,0.0,0.0,0.0,0.0,0.0,0.0,0.0,0.0,0.0,0.0,0.0,0.0,0.0,0.0,0.0,0.0,0.0,0.0,0.0,0.0,0.0,0.0,0.0,0.0,0.0,0.0,0.0,0.0,0.0,0.0,0.0,0.0,0.0,0.0,0.0,116.918725,0.0,42.020626,0.0,25.810791,0.0,0.0,-0.37632881,0.0,0,0
1,33.333333333333336,498.35538,25.506088,0.7558813,499.20978,21.780334,0.22868663,497.15707,20.161583,0.8191725,487.42963,20.171326,0.10501165,483.40158,17.203903,0.8822724,479.9707,42.727173,0.8667583,466.3976,41.714645,0.9851756,478.2171,85.169464,0.549374,459.92123,82.57005,0.9679852,489.01886,115.69853,0.5285762,476.09265,116.22589,0.9263417,480.7521,116.61257,0.96574056,471.77844,117.42369,0.9887687,487.5842,171.7338,0.9501048,478.02777,173.69223,0.9833239,482.1118,221.7312,0.88595676,474.56174,227.74948,0.9399447,1.04251117,-0.30877632,0.95850851,-0.26971869,158.14929899984807,145.3284698980228,166.68803715893307,169.99389871845335,2.3588685406909726,117.01813,42.220909,25.506088,39.28855000000004,210.545577,0.186603539115887,-175.73374350655374,0.7840632294117648,-0.3087199999999939,-0.3047029999999999,0.4337648632715612,-0.3087199999999939,-0.3047029999999999,0.4337648632715612,-0.567169999999976,-0.3327489999999997,0.6575741067750255,-0.567169999999976,-0.3327489999999997,0.6575741067750255,-0.0587500000000318,-0.3092569999999988,0.3147879517214771,-0.0587500000000318,-0.3092569999999988,0.3147879517214771,-1.5124500000000012,-0.1873009999999979,1.524003499701035,-1.5124500000000012,-0.1873009999999979,1.524003499701035,0.1974800000000414,-0.0495230000000006,0.2035948867948712,0.1974800000000414,-0.0495230000000006,0.2035948867948712,-1.5600999999999772,0.0323259999999976,1.5604348689631131,-1.5600999999999772,0.0323259999999976,1.5604348689631131,0.4638800000000174,0.3682400000000001,0.5922713499739931,0.4638800000000174,0.3682400000000001,0.5922713499739931,-0.0872499999999831,0.5191440000000114,0.5264247859248355,-0.0872499999999831,0.5191440000000114,0.5264247859248355,2.536559999999952,1.0070199999999971,2.7291438060314355,2.536559999999952,1.0070199999999971,2.7291438060314355,0.5593600000000265,0.1724800000000073,0.5853485799077608,0.5593600000000265,0.1724800000000073,0.5853485799077608,2.4392500000000155,0.1784050000000121,2.445765505220212,2.4392500000000155,0.1784050000000121,2.445765505220212,-2.0792000000000144,0.1135500000000035,2.0822983077599764,-2.0792000000000144,0.1135500000000035,2.0822983077599764,-0.7730400000000373,0.085259999999991,0.7777275288943141,-0.7730400000000373,0.085259999999991,0.7777275288943141,-1.075649999999996,0.2654300000000091,1.1079151625463008,-1.075649999999996,0.2654300000000091,1.1079151625463008,0.1092699999999808,-0.1380000000000052,0.1760225352050051,0.1092699999999808,-0.1380000000000052,0.1760225352050051,-0.1665800000000104,0.3341399999999908,0.3733609995701175,-0.1665800000000104,0.3341399999999908,0.3733609995701175,0.2372799999999983,-0.2830500000000029,0.3693495646403294,0.2372799999999983,-0.2830500000000029,0.3693495646403294,0.0994050000000044,0.0994050000000044,116.9684275,0.0702899495838569,42.1207675,0.1416214674563845,25.6584395,0.2154575575478858,0.10661012,-0.32302375,0.0753847387951116,0,0
2,66.66666666666667,498.0789,24.172165,0.74694973,499.0489,20.326813,0.22741283,496.6389,19.017593,0.81492555,487.60422,19.2471,0.10830245,482.99844,17.032692,0.8793029,479.52744,42.190834,0.85565937,467.0872,41.706482,0.9834172,476.5016,83.22389,0.5253032,461.88654,80.90008,0.9640705,487.1368,114.74982,0.5055686,478.366,115.14282,0.9182736,479.3307,115.995224,0.9611628,470.74335,116.964294,0.9871228,487.35065,171.43645,0.9437701,477.7734,173.56236,0.9810277,482.6512,221.3856,0.8747338,473.97476,227.41673,0.93334967,0.97603023,-0.22083525,0.93811993,-0.15426534,157.1408508142849,146.74210974564494,166.39403959337767,168.8848520962528,1.329505080627971,116.479759,41.948658,24.172165,37.16235999999998,210.384038,0.1766405863136793,-177.77035526775734,0.7770795764705882,-0.2764800000000491,-1.3339229999999986,1.3622744805394482,0.0322399999999447,-1.0292199999999987,1.0297248302337831,-0.1608800000000201,-1.4535209999999985,1.4623972346257368,0.4062899999999558,-1.1207719999999988,1.1921415352565992,-0.5181699999999978,-1.1439899999999987,1.2558715177119013,-0.4594199999999659,-0.834733,0.9528094865653725,0.1745900000000233,-0.9242260000000008,0.9405718298864844,1.6870400000000243,-0.7369250000000029,1.840967793641455,-0.4031400000000076,-0.1712109999999995,0.4379898013892629,-0.600620000000049,-0.1216879999999989,0.6128232646889792,-0.4432600000000093,-0.5363389999999981,0.6958009417362169,1.116839999999968,-0.5686649999999958,1.2532802830272738,0.6895999999999844,-0.0081629999999961,0.689648312235286,0.225719999999967,-0.3764029999999962,0.4388949040590267,-1.71550000000002,-1.945574000000008,2.593877105700287,-1.6282500000000368,-2.464718000000019,2.953985931250217,1.965310000000045,-1.6699699999999922,2.579000425940281,-0.5712499999999068,-2.6769899999999893,2.7372617745841987,-1.882060000000024,-0.9487100000000056,2.1076528432595585,-2.4414200000000505,-1.1211900000000128,2.686558883125452,2.273349999999993,-1.0830700000000064,2.5181661675512963,-0.1659000000000219,-1.2614750000000186,1.2723372138018498,-1.4214000000000055,-0.6173460000000119,1.5496754639975527,0.6578000000000088,-0.7308960000000155,0.9833157187882406,-1.0350899999999683,-0.4593959999999981,1.132455735521673,-0.262049999999931,-0.5446559999999891,0.6044173730427941,-0.2335500000000365,-0.2973499999999944,0.3781039870194624,0.8420999999999594,-0.5627800000000036,1.0128443801492586,-0.2543699999999944,-0.1298699999999826,0.285605171171659,-0.3636399999999753,0.0081300000000226,0.3637308709746568,0.5394000000000005,-0.3455999999999903,0.640618232647178,0.7059800000000109,-0.6797399999999811,0.9800276669563924,-0.5869799999999827,-0.3327500000000043,0.6747355651660749,-0.8242599999999811,-0.0497000000000014,0.8257570088106845,-0.5383709999999979,-0.6377760000000023,116.805538,0.2864774094706213,42.06339766666667,0.1410752045978773,25.163014666666665,0.8715206687178068,0.1154533499999999,-0.2667709466666667,0.1110610781065069,0,0
3,100.0,497.79034,24.506699,0.7191239,498.67767,20.609299,0.20039962,496.63742,19.338943,0.79545593,486.39948,18.922012,0.109033585,483.70047,17.002548,0.8786894,477.42358,41.06581,0.8525023,468.5834,41.10211,0.9833717,474.1743,81.86647,0.51997674,464.44458,80.149124,0.9651311,486.14655,113.393715,0.49889916,479.45847,114.429344,0.9182055,476.63348,115.33822,0.96265906,470.18918,116.41489,0.9878293,487.3586,170.74033,0.9467768,478.32224,173.00487,0.9824753,483.31342,220.51245,0.8822303,473.52084,227.28174,0.93839896,0.94090403,-0.21125508,0.90790554,-0.12798127,154.65277060312278,150.29724728294997,164.39736774347435,166.7662082657243,0.3125681613522111,115.876555,41.083960000000005,24.506699,34.233090000000004,210.279192,0.1627982755288584,179.76473045720113,0.773009332647059,-0.2885599999999613,0.3345340000000014,0.4417916598986208,-0.0120799999999121,1.668457,1.6685007303711312,-0.3712300000000255,0.2824859999999987,0.4664869270365657,-0.2103500000000053,1.7360069999999972,1.7487044994935514,-0.0014799999999581,0.3213499999999989,0.3213534081039116,0.5166900000000396,1.4653399999999976,1.55376635042082,-1.2047400000000152,-0.3250880000000009,1.2478303872498206,-1.3793300000000386,0.599138,1.5038342967042966,0.7020299999999793,-0.0301439999999999,0.7026768685789869,1.1051699999999869,0.1410669999999996,1.114136718445708,-2.1038599999999974,-1.1250240000000034,2.3857715523863545,-1.660599999999988,-0.5886850000000052,1.7618576529404884,1.4961999999999875,-0.6043719999999979,1.6136542239228209,0.8066000000000031,-0.5962090000000018,1.0030297760689897,-2.32729999999998,-1.3574199999999903,2.6942372476082874,-0.6117999999999597,0.5881540000000172,0.8486603370701207,2.558039999999949,-0.7509560000000022,2.665990164185858,0.5927299999999036,0.91901399999999,1.0935792541447864,-0.9902500000000032,-1.3561049999999994,1.6791711745754228,0.8918100000000209,-0.4073949999999939,0.9804569149763964,1.0924699999999916,-0.713476,1.3048136661899208,-1.180880000000002,0.3695940000000064,1.2373670834623045,-2.697219999999959,-0.6570039999999864,2.776085370520107,-1.275819999999953,-0.0396579999999744,1.2764362222077057,-0.5541699999999992,-0.5494039999999956,0.780351936062181,0.4809199999999691,-0.0900079999999974,0.4892703613177175,0.0079500000000507,-0.6961200000000076,0.6961653947877698,0.2415000000000873,-0.3987700000000131,0.4661971287985938,0.5488400000000411,-0.5574900000000014,0.7823173561286025,0.8032100000000355,-0.4276200000000187,0.9099478932884416,0.6622199999999907,-0.8731500000000096,1.0958678072194676,0.1228199999999901,-0.5275500000000193,0.5416583377923928,-0.4539199999999823,-0.1349899999999877,0.4735669609463699,0.1330600000000004,0.1977600000000166,0.2383568358575156,-0.6032040000000052,-0.0648330000000072,116.57329225,0.5200627119206381,41.81853825,0.5030831720066257,24.99893575,0.7836153909367248,0.0262840699999999,-0.2320735275,0.1141870642152424,0,0
4,133.33333333333334,497.81445,24.393463,0.6724496,498.59097,20.37532,0.1635622,496.97495,19.204117,0.76325893,484.8897,18.21991,0.10991994,484.69415,16.81897,0.8787947,474.29785,39.7846,0.8452349,470.53363,40.492523,0.9828164,470.4901,80.05788,0.5068383,466.79745,78.97014,0.9652833,485.02905,111.481415,0.48815832,481.9877,114.12639,0.9165153,473.31152,114.162895,0.9617653,470.07654,115.51782,0.98772556,486.64047,170.04172,0.94569075,479.65317,172.9278,0.9824378,483.22458,220.12863,0.8789381,473.74384,228.23953,0.93711895,0.93465317,-0.29502017,0.87498906,-0.14468516,149.76996623158038,151.0858399195618,162.68227392673646,164.43145025785898,0.5536089165139285,114.8403575,40.1385615,24.393463,31.79352,211.42056,0.1503804542454127,169.3490022402483,0.763912255882353,0.0241100000000074,-0.1132360000000005,0.1157742795097446,0.3126699999999687,-0.447770000000002,0.5461323116241907,-0.0866999999999507,-0.2339790000000015,0.2495256749134087,0.2845300000000748,-0.5164650000000002,0.5896553375702137,0.3375299999999583,-0.1348260000000003,0.3634618978324577,0.3390099999999165,-0.4561759999999992,0.5683522878250273,-1.509779999999978,-0.702102,1.6650474067737329,-0.3050399999999627,-0.377013999999999,0.4849628416651904,0.9936799999999836,-0.1835780000000006,1.0104953362009976,0.2916500000000042,-0.1534340000000007,0.3295477429083723,-3.1257300000000328,-1.2812100000000015,3.378118869578187,-1.0218700000000354,-0.1561859999999981,1.0337370862535946,1.9502300000000328,-0.6095870000000048,2.043280050181359,0.4540300000000457,-0.0052150000000068,0.4540599488228856,-3.684200000000033,-1.8085900000000092,4.104184136719535,-1.3569000000000528,-0.4511700000000189,1.429941250156859,2.3528700000000526,-1.1789839999999998,2.6317295661135565,-0.2051699999998959,-0.4280279999999976,0.4746606131584495,-1.1175000000000068,-1.9123000000000017,2.214880931336947,-0.1272500000000036,-0.5561950000000024,0.570565894989355,2.529230000000041,-0.3029539999999997,2.547309466675812,1.436760000000049,0.4105220000000003,1.494258213992529,-3.321960000000047,-1.1753250000000008,3.523749011667164,-0.624740000000088,-0.5183210000000145,0.8117614961558136,-0.1126399999999989,-0.8970699999999994,0.9041141269220376,0.4415300000000002,-0.3476660000000038,0.5619789928956445,-0.7181300000000306,-0.6986100000000022,1.0018815443953677,-0.7260800000000813,-0.0024899999999945,0.7260842695583744,1.3309299999999666,-0.0770700000000204,1.3331595740195223,0.7820899999999256,0.480419999999981,0.9178606345736074,-0.0888400000000046,-0.3838200000000142,0.3939674326641883,-0.7510599999999954,0.4893299999999954,0.8964011225450292,0.2229999999999563,0.9577899999999886,0.983407689668918,0.6769199999999387,1.0927799999999763,1.285452766460077,-1.036197499999986,-0.4329934999999807,116.2267053,0.8963601328702574,41.4825429,0.8684951839678233,24.8778412,0.7306567325928092,-0.01670389,-0.214595854,0.1063313668699642,0,0
5,166.66666666666666,497.90253,24.365318,0.64004374,498.65042,20.143875,0.1390445,497.4612,19.0224,0.7462842,482.8743,17.230347,0.11979947,485.72592,16.280014,0.89168036,469.21857,38.262085,0.84818095,472.8749,39.27736,0.98364246,464.06976,78.64543,0.49788368,469.68005,76.590355,0.96640825,482.1006,110.0208,0.47830606,483.88736,111.72505,0.9154736,467.89996,112.53438,0.961029,469.21033,114.034775,0.9877229,485.34595,168.29272,0.9454909,480.2472,171.50125,0.9827375,484.32578,219.08444,0.8781864,474.03433,228.31598,0.93736994,0.96603882,-0.40433239,0.85214403,-0.20879862,142.84890520530783,153.08931921694193,161.4751903921208,162.8876173408574,1.915136724826804,113.2845775,38.7697225,24.365318,34.58066000000002,212.035966,0.1630886518417888,15.518695846298243,0.7599578770588236,0.0880799999999908,-0.028145000000002,0.0924674398099055,0.0639699999999834,0.0850909999999984,0.1064548692216453,0.0594499999999698,-0.2314449999999972,0.2389583447486091,0.1461499999999205,0.0025340000000042,0.1461719660399243,0.4862500000000409,-0.181716999999999,0.5190954927458333,0.1487200000000825,-0.0468909999999986,0.1559371805600718,-2.0154,-0.9895630000000004,2.24523319300446,-0.5056200000000217,-0.2874610000000004,0.5816230832085519,1.0317699999999943,-0.5389559999999989,1.1640545102511255,0.038090000000011,-0.3553779999999982,0.3574134454437879,-5.079279999999983,-1.5225149999999985,5.302559499300769,-1.9535499999999504,-0.241304999999997,1.968396734788189,2.3412700000000086,-1.2151629999999969,2.637833643251415,0.3910399999999754,-0.6055759999999921,0.7208568327871848,-6.42034000000001,-1.4124499999999929,6.573871060349458,-2.7361399999999776,0.3961400000000168,2.764667972686755,2.882599999999968,-2.3797849999999983,3.738015436862829,0.5297299999999154,-1.2008009999999985,1.312454538070141,-2.928449999999998,-1.4606150000000042,3.272493786201129,-1.8109499999999912,0.4516849999999976,1.8664295437344975,1.899659999999983,-2.4013400000000047,3.061885352393188,-0.6295700000000579,-2.098386000000005,2.190794876271189,-5.411559999999952,-1.6285150000000073,5.651286821496897,-2.089599999999905,-0.4531900000000064,2.1381789766293204,-0.8662100000000237,-1.4830450000000042,1.7174813641274405,-0.7535700000000247,-0.5859750000000048,0.9545860074006128,-1.2945199999999772,-1.7489999999999952,2.175955659107033,-0.5763899999999467,-1.050389999999993,1.198142138562835,0.594030000000032,-1.4265499999999918,1.5452884984364617,-0.7368999999999346,-1.3494799999999714,1.5375688213539669,1.1012000000000055,-1.0441899999999862,1.5175553354326108,1.1900400000000104,-0.6603699999999719,1.3609863109157223,0.2904900000000339,0.0764499999999941,0.3003814951025093,0.0674900000000775,-0.8813399999999945,0.8839202994048732,-1.5557800000000128,-0.5195825000000269,115.4998758,1.478991638515092,40.8323622,1.4118535622710051,24.5887466,0.526745504490833,-0.0641134599999999,-0.181089816,0.0580694073394186,0,0
6,200.0,498.028,24.755325,0.6562602,498.7691,20.289024,0.14799415,497.48053,19.438393,0.76912206,482.28314,16.766724,0.12840141,485.35687,16.46669,0.90529114,466.95148,37.496414,0.8491515,474.1003,39.57831,0.98357314,461.47205,78.96722,0.47457036,474.2175,78.03078,0.9632536,479.8891,112.33015,0.44974577,487.9938,114.39169,0.905553,465.95245,112.02534,0.95888436,469.02295,114.06316,0.9869931,484.65778,167.77977,0.9455426,478.8176,172.47826,0.98271734,486.58768,217.99802,0.8842517,473.43292,229.39192,0.9403081,0.97276521,-0.46304165,0.83347498,-0.19283167,143.5736193395944,159.42410375837625,163.6544650780459,165.07682768963932,2.3350925737403374,113.04425,38.537362,24.755325,37.29704999999996,212.92523,0.1751650089791376,16.236739120038898,0.7606831488235294,0.125470000000007,0.3900070000000006,0.4096927885001178,0.0373900000000162,0.4181520000000027,0.4198203272877618,0.1186799999999834,0.1451489999999999,0.1874917987566284,0.0592300000000136,0.3765939999999972,0.3812233383936502,0.019329999999968,0.4159930000000003,0.4164418626279051,-0.4669200000000728,0.5977099999999993,0.758466565182716,-0.5911600000000021,-0.4636229999999983,0.7512765347919507,1.4242399999999975,0.5259400000000021,1.5182465087066708,-0.3690499999999588,0.1866759999999985,0.413576874928917,-1.400819999999953,0.7256319999999974,1.5776052965884293,-2.267089999999996,-0.7656709999999975,2.392895557340725,2.812189999999987,0.756844000000001,2.9122543564111854,1.2253999999999792,0.3009500000000003,1.2618145911741347,-1.1158700000000294,1.5161129999999972,1.8824889071835345,-2.5977099999999496,0.3217899999999929,2.617564908115887,3.8226300000000606,1.7342399999999856,4.197628913386748,4.537449999999978,1.4404249999999903,4.760596252899922,1.6548500000000104,3.820209999999989,4.163235876887105,-2.211500000000001,2.309350000000009,3.197472388074688,0.7169499999999971,3.769965000000013,3.83753220230464,4.1064400000000205,2.666640000000001,4.896306604288601,2.206780000000037,5.067980000000006,5.527594345535879,-1.9475100000000225,-0.5090399999999988,2.012937386433092,3.464049999999929,1.1194750000000084,3.6404486918681513,-0.1873800000000187,0.0283850000000001,0.1895177369667732,0.6788300000000049,1.5114300000000045,1.6568738074458234,-0.6881700000000137,-0.5129499999999894,0.8583097642459906,0.6063499999999635,1.236050000000006,1.3767642953679364,-1.4295999999999935,0.977010000000007,1.7315613474838236,-2.0236300000000256,2.403559999999999,3.1420023950500258,2.2618999999999687,-1.086420000000004,2.5092827713113297,1.160699999999963,-0.0422300000000177,1.1614679775611187,-0.6014099999999871,1.0759400000000028,1.2326154597845955,-0.891900000000021,0.9994900000000086,1.3395767503581326,-0.2403274999999922,1.3154525000000206,114.7050998,1.5261326015551693,40.0956528,1.4661669351712043,24.438594,0.2140954277676264,0.0159669499999999,-0.165712412,0.0338699547348335,0,0
7,233.3333333333333,498.26056,25.315231,0.64624506,499.02527,20.639862,0.14108184,498.00903,19.860474,0.7667719,481.2462,16.49601,0.14491689,486.58304,16.525772,0.9150722,464.42737,37.235207,0.8577558,476.09387,39.698944,0.98477536,458.24847,80.75021,0.47300306,477.5838,80.17188,0.9641832,479.61646,114.10187,0.4408912,493.44516,117.38934,0.902379,463.39395,112.0479,0.95906675,469.14404,114.22565,0.9871329,483.5758,168.35754,0.9447442,477.88373,173.1572,0.98253053,488.2194,218.22829,0.8818934,472.87152,229.97588,0.9390394,0.97075118,-0.46230472,0.83396627,-0.18202327,139.27115221130194,159.02551417928854,165.60151831932578,166.52313582061214,3.0599675419039896,113.136775,38.4670755,25.315231,40.77679999999998,213.47987,0.191010046094697,11.924543123094002,0.7606754523529411,0.2325599999999781,0.5599060000000016,0.6062828402948508,0.107089999999971,0.1698990000000009,0.200833110569433,0.2561699999999973,0.3508379999999995,0.4344080698421684,0.1374900000000138,0.2056889999999995,0.2474095083480092,0.5285000000000082,0.4220809999999986,0.6763613091839357,0.5091700000000401,0.0060879999999983,0.5092063949363174,-1.0369400000000155,-0.2707140000000017,1.071695214786384,-0.4457800000000134,0.1929089999999966,0.4857300594785242,1.2261699999999678,0.059082,1.2275925837279733,1.5952199999999266,-0.1275939999999984,1.6003146806911963,-2.5241100000000074,-0.2612069999999988,2.537589483929392,-0.2570200000000113,0.5044639999999987,0.5661653536697601,1.993569999999977,0.1206339999999954,1.9972165398013075,0.7681699999999978,-0.1803160000000048,0.7890494336579923,-3.2235800000000268,1.782989999999998,3.683818855006333,-0.6258700000000772,1.4612000000000052,1.5895970234308163,3.366300000000024,2.1411000000000087,3.989521888647836,-1.1711499999999546,0.7006750000000181,1.364748247159497,-0.2726399999999671,1.771720000000002,1.7925747761251103,1.9388600000000336,-0.5376300000000072,2.012019909568526,5.451359999999966,2.9976500000000077,6.221192118243871,1.344919999999945,0.3310100000000062,1.3850550265241652,-2.558499999999981,0.0225599999999985,2.558599461345973,-0.6109899999999584,0.5315999999999974,0.8098810654040175,0.1210900000000378,0.1624900000000053,0.2026469545786733,0.3084700000000566,0.1341050000000052,0.3363597656156817,-1.0819799999999873,0.5777699999999868,1.226580161791294,-0.3938099999999735,1.0907199999999762,1.159636337176413,-0.9338700000000132,0.678939999999983,1.1545876755361637,0.4957299999999804,-0.298070000000024,0.5784409717507871,1.6317200000000298,0.2302699999999902,1.6478878697593755,-0.6301799999999389,1.316689999999994,1.4597257922294542,-0.5614000000000487,0.5839599999999905,0.8100489130910822,0.0400099999999383,-0.4919800000000123,0.4936042144269102,0.0925249999999948,0.3328524999999871,114.036503,1.264065056416937,39.3993363,1.1611346107519414,24.6672072,0.3935528714228899,0.0108084,-0.171263998,0.0337994209665812,0,0
8,266.6666666666667,498.47394,25.40892,0.6535737,499.37122,20.527863,0.14510477,498.2804,19.857315,0.78110844,480.57648,15.964905,0.16018212,486.70886,16.353394,0.9248818,461.8163,36.750137,0.85887396,477.39645,39.96209,0.98485976,454.77005,80.91775,0.45164448,480.39227,81.38631,0.9614542,478.35962,113.120605,0.41625062,497.1909,118.22233,0.89219165,461.68704,112.14485,0.95499986,469.6903,114.71941,0.9858133,482.06223,168.57745,0.94059414,476.65015,174.4088,0.98105365,489.08148,218.22491,0.8759311,472.55588,231.65187,0.93520224,1.03129913,-0.53648964,0.86516324,-0.16507374,134.7118309307188,159.62166256055647,168.19495175428202,169.25820651695352,2.987180896073208,113.43213,38.356113500000006,25.40892,44.60116999999997,215.686965,0.2067865797694978,11.648715352929743,0.7590423405882354,0.2133800000000292,0.0936889999999976,0.2330421702632638,-0.0191799999999489,-0.4662170000000039,0.4666113623659433,0.3459500000000162,-0.1119990000000008,0.3636278021562864,0.0897800000000188,-0.4628370000000004,0.4714642478163151,0.2713699999999903,-0.0031590000000001,0.271388386230868,-0.2571300000000178,-0.4252399999999987,0.4969355033603537,-0.6697199999999839,-0.5311049999999984,0.8547499046065912,0.3672200000000316,-0.2603909999999967,0.4501710800140558,0.1258200000000329,-0.1723779999999983,0.2134123878410241,-1.1003499999999349,-0.2314599999999984,1.124430457653943,-2.611069999999984,-0.4850700000000003,2.65574461306051,-0.0869599999999763,-0.2238630000000014,0.2401597059645863,1.3025800000000345,0.2631460000000061,1.3288944554463658,-0.6909899999999425,0.1425120000000106,0.705533025622418,-3.4784199999999714,0.1675400000000024,3.482452490415311,-0.2548399999999446,-1.6154499999999956,1.6354272004892048,2.80847,1.214429999999993,3.059794758770592,-0.557830000000024,-0.9266700000000156,1.0816152725438264,-1.256840000000011,-0.9812650000000076,1.5945305847882136,-0.984200000000044,-2.7529850000000096,2.923623787395557,3.745740000000012,0.8329899999999952,3.837243866071074,-1.7056199999999535,-2.164660000000012,2.755883252244168,-1.7069099999999937,0.0969500000000067,1.709661092322095,0.8515899999999874,0.0743900000000081,0.8548329662571394,0.5462599999999611,0.4937599999999946,0.7363415818762051,0.4251699999999232,0.3312699999999893,0.5389891852346647,-1.5135700000000156,0.2199099999999987,1.5294621776951682,-0.4315900000000283,-0.3578599999999881,0.5606547134377948,-1.2335800000000177,1.2516000000000247,1.757333826112758,-0.2997100000000046,0.5726600000000417,0.6463478627643559,0.8620799999999917,-0.0033799999999928,0.8620866260417138,-0.7696400000000381,-0.233649999999983,0.8043245937431298,-0.3156399999999735,1.675990000000013,1.7054533384704569,0.2457600000000752,1.0920300000000225,1.1193424402300156,0.2953550000000007,0.2028300000000058,113.547618,0.7375422889091631,38.853767,0.7340064426607401,24.8476514,0.4952549594070721,0.0169495299999999,-0.178682492,0.0247959569060617,0,0
9,300.0,498.1594,25.363342,0.6183223,498.93945,20.435654,0.12563077,498.2518,19.721504,0.7456411,479.7041,15.727936,0.16276392,487.8115,15.925552,0.92255974,460.5714,36.651726,0.86333585,479.25424,39.36032,0.9856397,453.58328,82.55672,0.47697976,483.9065,81.948166,0.9656352,476.39014,116.007286,0.4402475,499.818,120.11406,0.9020927,460.07962,112.076126,0.95674664,469.93878,114.43478,0.98652494,481.273,168.56332,0.93752897,476.40753,174.51299,0.98032606,489.04675,218.39102,0.8607737,471.70932,232.4887,0.92736334,1.03894995,-0.56179112,0.85410919,-0.18521666,137.0578393801256,163.60278951695037,168.30183786907554,169.22152994962252,3.728412657458279,113.255453,38.006023,25.363342,46.23471999999998,216.760764,0.2132983798982255,8.249132317181513,0.7563595405882353,-0.3145400000000222,-0.045577999999999,0.3178250551545832,-0.5279200000000515,-0.1392669999999967,0.5459806074294704,-0.4317699999999718,-0.0922090000000004,0.4415063222434937,-0.777719999999988,0.0197900000000004,0.7779717491657273,-0.028599999999983,-0.1358110000000003,0.1387897248394099,-0.2999699999999734,-0.1326520000000002,0.327991698071741,-0.872380000000021,-0.2369690000000002,0.9039917982819516,-0.2026600000000371,0.2941359999999982,0.3571933119418867,1.102640000000008,-0.4278420000000018,1.18273570444289,0.9768199999999752,-0.2554640000000034,1.0096728022958492,-1.2449000000000296,-0.0984110000000058,1.2487837022163106,1.366169999999954,0.3866589999999945,1.419832965943836,1.8577899999999656,-0.6017700000000019,1.9528212455316727,0.5552099999999314,-0.864916000000008,1.0277829688975868,-1.186770000000024,1.6389700000000005,2.0235230895149328,2.291649999999948,1.471429999999998,2.723374004318862,3.5142299999999977,0.5618560000000059,3.55886142714717,0.705759999999998,-0.6525739999999871,0.96122318067969,-1.9694800000000328,2.886680999999996,3.4945355436969163,-0.7126400000000217,3.867946000000003,3.933047422612148,2.6270999999999844,1.8917299999999957,3.237328652284148,-1.1186400000000276,1.0587400000000002,1.5402226583192646,-1.6074200000000474,-0.0687240000000031,1.608888450010178,0.0994899999999461,-0.1656740000000098,0.1932514796217419,0.2484800000000291,-0.2846299999999928,0.3778313741604982,-0.297779999999932,-0.7783899999999875,0.8334050158835979,-0.789229999999975,-0.0141299999999944,0.7893564782783253,0.7243400000000406,-0.2340399999999931,0.7612116375884276,-0.242619999999988,0.1041899999999884,0.2640454894520863,0.9909600000000296,-1.1474100000000362,1.5160974341051243,-0.0347300000000245,0.1661100000000033,0.1697018120115481,-0.8968100000000163,0.1694899999999961,0.912685617395184,-0.8465600000000109,0.836829999999992,1.190356367857964,-0.5309200000000374,-0.839160000000021,0.9930083343054452,-0.1766769999999979,-0.4720319999999987,113.2306371,0.1480498473978674,38.4272593,0.2799512113651246,25.0416272,0.4616888932427336,-0.02014292,-0.1867887919999999,0.0159505030127037,0,0
10,333.3333333333333,497.7992,25.765015,0.60963786,498.45013,20.790451,0.11675536,498.04004,20.015045,0.73310345,478.20047,15.806259,0.17624657,487.8952,15.945709,0.93062186,457.51392,36.473083,0.8860428,480.50146,39.20616,0.9883497,447.11035,81.982315,0.5249948,486.1147,82.031425,0.97154474,467.4176,114.265335,0.47812733,501.0896,121.032394,0.91523194,458.18408,111.76338,0.96528286,470.51672,113.99447,0.98932797,479.72006,168.67853,0.9470125,476.3962,174.27649,0.9835736,487.62537,218.15952,0.87343603,471.20715,232.05096,0.9349028,1.07392239,-0.63204572,0.84575725,-0.19627071,134.9517942535536,166.46246096616338,168.3511100532723,169.2971105501092,3.5515007606025764,112.878925,37.8396215,25.765015,53.97925000000004,216.244701,0.2496211444754842,6.780286892191151,0.7661289511764705,-0.3602000000000203,0.4016729999999988,0.5395231588440051,-0.045659999999998,0.4472509999999978,0.4495756806156199,-0.4893200000000206,0.3547970000000013,0.604412916480961,-0.0575500000000488,0.4470060000000018,0.4506954254660316,-0.2117600000000266,0.2935410000000011,0.3619511241604479,-0.1831600000000435,0.4293520000000015,0.4667876664009207,-1.503629999999987,0.078323000000001,1.5056685123987157,-0.6312499999999659,0.3152920000000012,0.7056100961323879,0.0836999999999648,0.020157000000001,0.0860929419232154,-1.0189400000000433,0.4479990000000029,1.1130776377239329,-3.057479999999998,-0.1786429999999939,3.0626944463738117,-1.8125799999999683,-0.080231999999988,1.8143548247859027,1.247220000000027,-0.1541600000000045,1.256711197531107,-0.6105699999999388,0.4476099999999974,0.7570669963747746,-6.472930000000019,-0.5744049999999987,6.498366247675277,-5.286159999999995,-2.213374999999999,5.730839069126348,2.208200000000033,0.0832589999999982,2.2097690605765004,-1.3060299999999645,-0.4785970000000077,1.3909599021211625,-8.97253999999998,-1.7419510000000002,9.140069328949352,-7.003059999999948,-4.628631999999996,8.394467437248371,1.271600000000035,0.9183340000000016,1.5685355895089188,-1.3554999999999495,-0.973395999999994,1.6687959799855256,-1.895539999999983,-0.3127460000000042,1.921166820480704,-0.2881199999999353,-0.244022000000001,0.3775710143588399,0.5779400000000123,-0.4403099999999966,0.726558696665322,0.3294599999999832,-0.1556800000000038,0.3643901123795624,-1.552940000000035,0.1152099999999904,1.5572077535448203,-0.7637100000000601,0.1293399999999849,0.7745849209093137,-0.0113299999999867,-0.2365000000000066,0.2367712374846295,0.2312900000000013,-0.340689999999995,0.4117823942326787,-1.4213799999999992,-0.2315000000000111,1.4401087995009276,-1.3866499999999746,-0.3976100000000144,1.4425296997288968,-0.5021699999999782,-0.4377399999999909,0.6661764154486184,0.3443900000000326,-1.2745699999999829,1.3202776817775792,-0.3765279999999933,-0.1998509999999953,113.14950660000002,0.2094970606244389,38.2412391,0.303525241773067,25.3215666,0.3628677353379581,-0.0110540499999999,-0.18428321,0.0121630456713009,0,0
11,366.6666666666666,497.84952,25.283333,0.63294685,497.62708,20.17228,0.13617249,497.97504,19.679852,0.7210701,477.1855,16.051723,0.220777,488.64932,16.527134,0.93530506,456.6482,37.004856,0.9377943,483.2565,39.65419,0.9916351,442.1925,79.69803,0.65638614,491.32394,81.24567,0.9745112,457.03088,113.04607,0.51859206,501.7612,123.15518,0.90670764,458.65146,111.90518,0.9805742,473.3222,113.97731,0.9931143,476.27472,170.93631,0.94785994,477.96536,174.67224,0.98140347,484.51028,219.37646,0.85247976,474.10886,228.66516,0.9163649,1.08803764,-0.71384565,0.77427443,-0.27340337,137.30723494172366,176.99265355710858,173.02632604639646,171.5399232637083,3.042351174643897,112.941245,38.329523,25.283333,59.56869999999998,212.613437,0.2801737301289488,5.68608279178504,0.7825702652941177,0.0503199999999992,-0.4816819999999993,0.484303264003041,0.4105200000000195,-0.8833549999999981,0.9740855847537282,-0.8230500000000234,-0.6181710000000002,1.0293428426627538,-0.3337300000000027,-0.9729680000000016,1.0286119005358654,-0.0649999999999977,-0.3351930000000003,0.3414371790666621,0.1467600000000288,-0.6287340000000015,0.6456352998063305,-1.0149700000000053,0.2454639999999983,1.0442301835304368,0.4886599999999816,0.1671409999999973,0.5164539761498417,0.7541200000000003,0.5814249999999994,0.9522352676859852,0.6704200000000355,0.5612679999999983,0.8743481824902741,-0.8657200000000103,0.5317729999999941,1.015998839531331,2.191759999999988,0.710415999999988,2.304018834700778,2.755040000000008,0.4480300000000028,2.791232036664105,1.507819999999981,0.6021900000000073,1.6236237090224914,-4.917849999999987,-2.284284999999997,5.422472368184541,1.5550800000000322,-1.7098799999999983,2.3112687902535467,5.209239999999966,-0.7857549999999947,5.268167831193748,3.001039999999932,-0.8690139999999928,3.1243281539869625,-10.386719999999968,-1.219264999999993,10.45803803294979,-1.4141799999999876,0.5226860000000073,1.507682236744856,0.6715999999999553,2.122786000000005,2.2264920753948263,-0.6000000000000796,1.2044520000000034,1.3456242492999684,0.4673799999999914,0.1418000000000034,0.4884171417958147,2.362919999999974,0.4545460000000076,2.4062425049266927,2.8054799999999886,-0.017160000000004,2.805532479940294,2.2275399999999763,0.4231499999999926,2.267375216875206,-3.4453399999999874,2.257779999999997,4.119215731665422,-1.8923999999999523,2.1425700000000063,2.8586332337149947,1.569159999999954,0.3957499999999925,1.6182957603911128,1.5804899999999409,0.6322499999999991,1.7022598810404397,-3.1150899999999524,1.2169400000000223,3.344357736800858,-1.6937099999999532,1.4484400000000337,2.228594175192051,2.90170999999998,-3.385800000000017,4.459098851124518,3.4038799999999583,-2.9480600000000265,4.503049724131399,0.0623199999999997,0.438847999999993,113.1289056,0.22678624838552,38.1996713,0.2645638650138142,25.4271682,0.1947856144475206,-0.0771326599999999,-0.20039755,0.0423164439133435,0,0
12,400.0,496.7917,26.515915,0.6051831,496.47095,21.383476,0.13292003,497.19202,20.874474,0.6538601,476.21475,16.732273,0.26064125,489.40564,17.159538,0.9198363,456.08807,37.040985,0.95392644,484.82632,39.69992,0.9917075,440.8941,78.80572,0.75529563,493.16852,80.73417,0.9756074,453.9218,112.07507,0.62236154,502.76907,122.3015,0.9148903,458.14047,111.9328,0.98568916,474.25763,113.89984,0.9941048,474.90054,171.298,0.9557645,478.13483,174.96333,0.98178035,483.34033,218.91187,0.85558337,473.7961,227.89522,0.9107556,0.98212491,-0.66447091,0.68436819,-0.23385446,138.6242135567671,178.48633211001106,174.2860402374414,171.68095201258402,3.269261155114056,112.91632,38.3704525,26.515915,61.87497000000002,211.162947,0.2930200140983067,5.286099830768627,0.7923474923529411,-1.0578199999999924,1.2325820000000007,1.624266461860241,-1.1081399999999917,1.714264,2.041243572260788,-1.156129999999962,1.211196000000001,1.6744050666776884,-0.3330799999999385,1.8293670000000013,1.8594423645515243,-0.783019999999965,1.194621999999999,1.428370415292876,-0.7180199999999672,1.5298149999999993,1.689936878887774,-0.9707500000000095,0.6805500000000002,1.1855394826828918,0.0442199999999957,0.4350860000000018,0.4373273782831361,0.7563200000000165,0.6324040000000011,0.9858776605725612,0.0022000000000161,0.0509790000000016,0.0510264484458818,-0.5601299999999583,0.0361290000000025,0.5612939706971325,0.305590000000052,-0.4956439999999915,0.5822784753329143,1.5698199999999929,0.0457299999999989,1.5704859328564449,-1.1852200000000153,-0.4023000000000039,1.2516356252520298,-1.298400000000015,-0.892310000000009,1.5754553932435076,3.619449999999972,1.391974999999988,3.877887659941268,1.844580000000008,-0.5114999999999981,1.9141858912864305,-3.364659999999958,0.2742549999999966,3.3758188222451624,-3.109080000000006,-0.9710000000000036,3.257179676714204,7.277639999999963,0.2482649999999893,7.281873349614401,1.0078700000000254,-0.8536799999999971,1.3208222739263773,0.33627000000007,-2.976466000000002,2.9954010352632348,-0.5109899999999925,0.0276199999999988,0.5117359128495793,-0.978369999999984,-0.1141800000000046,0.9850101163439744,0.9354299999999968,-0.0774700000000052,0.9386324551175472,-1.870049999999992,-0.0603100000000011,1.871022260316528,-1.374180000000024,0.36169000000001,1.4209821703667056,2.0711599999999635,-1.8960899999999867,2.8079994718125927,0.1694700000000466,0.2910900000000254,0.3368285454055677,-1.3996899999999073,-0.1046599999999671,1.4035974535812372,-1.1699500000000285,-0.4645900000000154,1.2588196338634383,1.945139999999924,-1.6815300000000375,2.571208424165538,-0.3127599999999688,-0.7699399999999912,0.8310393620039708,-3.214469999999949,2.6158600000000263,4.144338417709129,-0.0249250000000103,-0.08724500000001,113.0848146,0.2455293456458489,38.1803467,0.2427808507451677,25.667305,0.5089884543331982,0.0395489099999999,-0.210763788,0.0430324932805173,0,0
13,433.33333333333337,496.4789,26.655853,0.6144132,495.85443,21.474052,0.14627871,496.80334,20.955475,0.61304224,475.46274,16.684418,0.31065992,489.2739,17.16394,0.9078039,455.3806,37.03197,0.9707949,486.06613,39.74047,0.99226564,439.1151,78.37626,0.84784424,495.0297,80.79961,0.9762923,449.76935,111.90008,0.7318602,503.51782,122.59906,0.9220089,458.79227,111.58008,0.9904633,476.22064,113.36982,0.9951984,473.3488,172.25433,0.96616244,478.69302,175.31656,0.9830011,481.26675,220.5624,0.86836606,473.33185,227.7302,0.9086927,0.9306729,-0.55368482,0.73619938,-0.13264854,140.8936896172288,179.16388012986613,175.81730645831684,171.87422680130695,2.4862214156453755,112.47495,38.38622,26.655853,64.40271999999999,211.045782,0.305159947213918,5.044217187692071,0.8085381264705882,-0.3127999999999815,0.1399380000000007,0.3426754789067766,0.7450200000000109,-1.092644,1.3224695501734685,-0.6165200000000368,0.0905759999999986,0.6231379639983791,0.5396099999999251,-1.1206200000000024,1.243771738101459,-0.3886800000000221,0.0810010000000005,0.3970306088968674,0.3943399999999428,-1.1136209999999984,1.181378756894228,-0.7520099999999843,-0.0478549999999984,0.7535311149016849,0.2187400000000252,-0.7284049999999986,0.7605399605707835,-0.1317399999999793,0.0044019999999989,0.1318135243592043,-0.8880599999999959,-0.6280020000000022,1.0876750781386857,-0.7074700000000007,-0.0090149999999979,0.7075274348921043,-0.1473400000000424,-0.0451440000000005,0.1541007992711671,1.2398099999999772,0.0405500000000031,1.2404729495639732,-0.3300100000000157,-0.0051799999999957,0.3300506514158248,-1.7789999999999964,-0.4294599999999917,1.8301029729498772,-0.4805999999999812,0.4628500000000173,0.6672379504344743,1.8611799999999905,0.0654399999999952,1.8623300958745104,0.0165999999999826,0.5769399999999933,0.5771787622565402,-4.152450000000044,-0.1749899999999939,4.156135525052132,-1.0433700000000383,0.7960100000000097,1.3123463250987126,0.7487499999999727,0.29755999999999,0.8057099453897495,-0.2591200000000526,1.1512399999999872,1.180040978949459,0.6517999999999802,-0.352720000000005,0.7411171556508307,1.162789999999973,-0.3803400000000039,1.2234128901151644,1.963009999999997,-0.5300199999999933,2.0333050583963,1.0275800000000004,-0.452549999999988,1.1228188450947865,-1.5517399999999952,0.9563300000000085,1.8227627647337985,-0.1775599999999713,0.5946399999999983,0.620583824474976,0.5581899999999678,0.3532299999999964,0.6605660519584408,0.3887199999999211,0.0621399999999709,0.3936554559509306,-2.0735799999999927,1.6505300000000034,2.650279852638204,-0.9036299999999642,2.1151200000000188,2.30006082339142,-0.4642500000000495,-0.1650199999999984,0.4927064672805153,-0.1514900000000807,0.6049199999999928,0.6236003740377453,-0.441369999999992,-0.4164449999999817,112.8933786,0.2780318197028489,38.186368,0.2485350746657242,25.9166916,0.6394866975471798,0.1012059199999999,-0.2042787479999999,0.052941747885299,0,0
14,466.6666666666667,495.76517,27.237167,0.5742544,494.8657,21.93628,0.14247756,496.26123,21.49768,0.5174661,474.55304,17.216713,0.36703113,490.3885,17.904465,0.8804562,455.19418,37.819958,0.9789876,488.29388,40.545097,0.9915485,438.02286,79.147934,0.9013109,497.2262,81.656494,0.97389495,446.02347,114.23596,0.80198663,504.67987,122.85341,0.9195371,458.38184,111.84279,0.99261993,477.48898,113.3895,0.9954064,472.08398,172.45471,0.9702526,479.47125,174.83295,0.9816553,479.60202,220.94412,0.86762893,472.6576,226.2351,0.8964006,0.94564223,-0.56301935,0.7514294,-0.11225997,144.59293096066378,177.99725948373538,176.07488416756547,170.60131740202803,2.968989027386177,112.616145,39.1825275,27.237167,66.65701000000001,209.018387,0.3189050046639916,4.706616639667428,0.80899499,-0.7137299999999982,0.581313999999999,0.920508815544966,-0.4009300000000166,0.4413759999999982,0.5962865404115808,-0.9887299999999756,0.4622279999999996,1.0914402122351692,-0.3722099999999386,0.371652000000001,0.5259900124564677,-0.5421099999999797,0.5422049999999992,0.7667264923849815,-0.1534299999999575,0.4612039999999986,0.4860554438703322,-0.9096999999999866,0.5322949999999977,1.0539886417912545,-0.1576900000000023,0.5801499999999962,0.6011989342971229,1.1145999999999958,0.7405249999999981,1.3381742919459287,1.2463399999999751,0.7361229999999992,1.4474945480826298,-0.1864199999999982,0.7879879999999986,0.8097391583368049,0.5210500000000025,0.7970029999999966,0.952211575496222,2.2277500000000146,0.8046269999999964,2.3686060608782245,0.9879400000000372,0.7640769999999932,1.2489351886823683,-1.092240000000004,0.7716740000000044,1.3373365245427251,0.6867599999999925,1.201133999999996,1.383604778669104,2.1965000000000146,0.8568839999999938,2.357723995605943,0.3353200000000242,0.7914439999999985,0.85954819965841,-3.74588,2.335880000000003,4.414516094522707,0.4065700000000447,2.510869999999997,2.54357373036443,1.162050000000022,0.2543500000000023,1.1895604755539133,0.4133000000000493,-0.0432099999999877,0.4155526369788064,-0.4104299999999625,0.2627099999999984,0.4873082484423678,-1.0622299999999427,0.6154300000000035,1.227634578284549,1.2683400000000231,0.0196799999999939,1.268492671638295,-0.6946699999999737,0.5496999999999872,0.8858535425791045,-1.264819999999986,0.2003799999999955,1.2805943060938398,0.2869200000000091,-0.7559500000000128,0.8085687904563374,0.7782300000000077,-0.4836099999999987,0.91625354842424,0.2200400000000399,-0.8368399999999951,0.8652853790513333,-1.66473000000002,0.3817200000000014,1.7079332924034438,0.4088499999999726,-1.268810000000002,1.3330555647083815,-0.6742499999999723,-1.495100000000008,1.640102762786523,-0.2099999999999227,-1.3300800000000097,1.3465559054120229,0.1411949999999819,0.582564999999974,112.765517,0.2081011924100383,38.4216689,0.4821969504433891,26.2914566,0.7699007113614048,0.02038857,-0.1896874099999999,0.0675478927486724,0,0
15,500.0,495.30762,27.206524,0.5537006,494.27762,21.874039,0.14287232,495.86655,21.449856,0.46914703,474.03262,17.467,0.40109614,490.8153,18.104137,0.8648967,455.1057,38.42631,0.98207444,489.95935,40.74054,0.9910557,437.7376,80.18299,0.91923577,499.01324,81.55887,0.9716817,444.41095,116.6947,0.825656,505.07254,122.46832,0.9153778,459.55423,112.18251,0.99364215,479.742,113.456856,0.9956001,471.9805,172.72368,0.97360885,479.6736,174.78487,0.9819449,479.9811,222.02687,0.8763182,472.35236,226.4896,0.89739424,0.99307649,-0.63351959,0.76150086,-0.07050024,147.05803626175128,175.91883891652338,177.61819159544197,172.0045637751544,2.2554483993758803,112.819683,39.583425000000005,27.206524,67.33494000000002,209.0226,0.3221419103860449,3.7987775999438393,0.8091354494117649,-0.4575500000000261,-0.0306429999999977,0.458574962191596,0.2561799999999721,-0.6119569999999968,0.6634150753856757,-0.5880799999999908,-0.0622410000000002,0.591364547872959,0.4006499999999846,-0.5244689999999999,0.6599910260457997,-0.3946799999999939,-0.0478239999999985,0.3975668967305943,0.1474299999999857,-0.5900289999999977,0.608169241034922,-0.5204200000000014,0.2502870000000001,0.5774777560815668,0.3892799999999852,-0.2820079999999976,0.4806947372959133,0.4267999999999574,0.1996720000000031,0.4711975674639725,-0.6878000000000384,-0.5408529999999949,0.8749804612727345,-0.0884800000000041,0.6063520000000011,0.6127735783337938,0.0979399999999941,-0.1816359999999974,0.2063586201155598,1.6654699999999707,0.1954430000000044,1.6768984128887785,-0.5622800000000439,-0.609183999999992,0.8290138383983946,-0.2852599999999938,1.035055999999997,1.0736452816158562,0.80698000000001,0.2633819999999929,0.8488738412296686,1.7870399999999904,-0.0976239999999961,1.7897045585727174,-0.4094600000000241,-0.95450799999999,1.0386255406372409,-1.6125199999999609,2.458739999999992,2.9403440509572745,2.133360000000039,0.1228599999999886,2.1368948194050548,0.3926700000000096,-0.385089999999991,0.5499854879903657,-0.7693800000000124,-0.6394399999999933,1.0004144631101703,1.1723900000000071,0.3397199999999998,1.2206178724318335,1.5828199999999697,0.0770100000000013,1.584692302152031,2.2530199999999923,0.0673560000000037,2.2540266083469302,0.9846799999999688,0.0476760000000098,0.9858335069249472,-0.1034799999999904,0.2689699999999959,0.2881891241875651,1.1613399999999956,0.0685900000000003,1.163363736627539,0.202350000000024,-0.0480799999999987,0.2079836745997377,-0.5758799999999837,0.43553,0.7220278078439786,0.3790800000000445,1.0827500000000043,1.1471918797219771,2.0438100000000645,0.7010300000000029,2.16069488290232,-0.3052400000000261,0.2545000000000073,0.3974188062988711,0.3690099999999461,1.7496000000000151,1.7880907527583751,0.2035380000000088,0.0623430000000269,112.7536686,0.2016154032490556,38.7704296,0.5772312203064023,26.579758400000003,0.7930331598261182,0.0417597299999999,-0.1645333159999999,0.0855123831501311,0,0
16,533.3333333333334,494.26694,27.060482,0.5724846,493.2695,21.714973,0.16153972,494.695,21.324875,0.47147405,473.49905,17.506474,0.4391752,490.01138,18.197716,0.8603277,454.77756,38.774002,0.98448455,490.23013,40.99869,0.99107623,437.37802,80.80701,0.9288932,499.93155,82.15436,0.9700551,443.36646,116.84927,0.83984995,505.90314,121.98978,0.91262597,459.76556,112.11754,0.99418914,480.33707,113.311584,0.995689,471.54034,172.31868,0.9761331,480.0252,174.28975,0.98258036,479.18848,222.45976,0.8857414,472.4366,226.56413,0.90181315,0.98829394,-0.62271119,0.76518554,-0.05870926,148.07937252603125,175.26161822501632,177.60580866359416,172.0331842277715,1.9287611860578453,112.714562,39.886346,27.060482,68.52512000000002,209.057656,0.3277809623591066,3.590665518250279,0.8157724952941177,-1.040680000000009,-0.1460420000000013,1.050877313564252,-0.5831299999999828,-0.1153990000000035,0.5944388329348788,-1.0081200000000194,-0.1590659999999992,1.0205919491922513,-0.4200400000000286,-0.096824999999999,0.4310553122570511,-1.1715500000000247,-0.1249810000000017,1.1781976289490057,-0.7768700000000308,-0.0771570000000032,0.7806921285302217,-0.5335699999999974,0.039474000000002,0.5350281689556143,-0.0131499999999959,-0.2108129999999981,0.2112227342617245,-0.8039200000000051,0.0935789999999983,0.8093481300658004,-1.2307199999999625,-0.1060930000000048,1.235284357161908,-0.3281400000000189,0.3476920000000021,0.4780853338725357,-0.2396600000000148,-0.258659999999999,0.3526214843142808,0.270780000000002,0.2581500000000005,0.3741166006741767,-1.394689999999969,0.062706999999996,1.3960989807133704,-0.359579999999994,0.6240200000000016,0.7202074262321916,-0.0743200000000001,-0.4110359999999957,0.4177009165611161,0.9183100000000196,0.5954899999999981,1.0944869100176728,-0.8687299999999709,0.6931139999999942,1.1113500033274584,-1.044489999999996,0.1545700000000067,1.0558651642136858,0.5680299999999647,-2.304169999999985,2.3731534863552106,0.830600000000004,-0.4785400000000095,0.9585910971837864,0.4379299999999944,-0.0934500000000184,0.447789668706189,0.2113299999999753,-0.0649699999999882,0.2210915416744567,-0.9610600000000318,-0.404689999999988,1.04278968143152,0.5950699999999642,-0.1452720000000056,0.6125457198315559,-1.657950000000028,-0.2126280000000093,1.6715289015999983,-0.4401599999999916,-0.4050000000000011,0.5981352903816941,-0.3366800000000012,-0.6739699999999971,0.7533850166415555,0.3515999999999621,-0.4951200000000142,0.6072613723924711,0.1492499999999381,-0.4470400000000154,0.4712964291186549,-0.7926199999999994,0.4328899999999862,0.903128017780418,-1.171700000000044,-0.6498600000000181,1.3398503310445262,0.0842400000000225,0.0745300000000099,0.1124771021141871,0.3894800000000487,-0.1799699999999973,0.4290499636406428,-0.1051209999999969,-0.3086590000000058,112.708332,0.1722370946819469,39.0817942,0.6890055765349994,26.9351882,0.3295189746155705,0.01179098,-0.121594494,0.0696002885853376,0,0
17,566.6666666666666,494.1295,27.195084,0.5457985,492.9589,21.790485,0.14826353,494.6081,21.492958,0.43360782,473.24454,17.64215,0.43778926,490.6275,18.494694,0.85168046,455.08246,38.981724,0.9850824,491.20078,41.03392,0.9912409,437.41718,80.84111,0.93508995,501.03455,81.98828,0.971846,442.14926,116.234314,0.85223526,507.50598,121.73175,0.9182131,460.07764,112.184494,0.99481577,481.11963,113.25015,0.99611807,471.1399,172.87816,0.97810537,480.7443,174.59433,0.9839102,478.85648,223.88934,0.89046246,472.79208,227.44406,0.9057324,0.95123842,-0.57210823,0.75978134,-0.01670389,149.50423823887292,175.7463255009216,178.2724854248003,171.79353903078518,2.0031024814451417,112.717322,40.007822,27.195084,70.08880000000005,209.80191,0.3340713135830304,3.2519752125067694,0.8129406735294118,-0.1374399999999696,0.134602000000001,0.1923732102034789,0.9032400000000392,0.2806440000000023,0.945834844111842,-0.3105999999999653,0.0755119999999998,0.3196473402735872,0.6975200000000541,0.234577999999999,0.7359082745044215,-0.0869000000000141,0.1680830000000028,0.1892181410145534,1.0846500000000106,0.2930640000000046,1.1235444497642386,-0.2545100000000388,0.1356760000000001,0.2884151817710361,0.2790599999999585,0.0962019999999981,0.295176740960355,0.6161200000000235,0.2969779999999993,0.6839589073065929,1.4200400000000286,0.203399000000001,1.4345329396012771,0.3049000000000319,0.2077219999999968,0.3689341937039967,0.6330400000000509,-0.1399700000000052,0.6483295786095725,0.9706500000000348,0.0352299999999985,0.971289130691818,0.6998700000000326,-0.222920000000002,0.7345143588113486,0.0391599999999812,0.0340999999999951,0.0519260589684812,0.3987399999999752,-0.5899200000000064,0.7120387587765064,1.1030000000000086,-0.1660799999999938,1.11543335363437,0.1846899999999891,-0.7615699999999919,0.7836448564241225,-1.2171999999999912,-0.6149560000000065,1.363725310293824,-0.172709999999995,-0.7695260000000133,0.7886691377098629,1.6028400000000147,-0.2580299999999909,1.6234763769454863,0.7722400000000107,0.2205100000000186,0.8031060189663782,0.3120799999999804,0.0669539999999955,0.3191813975092958,0.100750000000005,0.1319239999999837,0.1659954947460825,0.7825599999999895,-0.0614339999999913,0.7849676999443878,0.1874900000000252,0.0838380000000142,0.2053808908930231,-0.4004400000000032,0.5594800000000077,0.688018941599729,0.0397199999999884,0.9644800000000088,0.96529754418004,0.7191000000000258,0.3045800000000156,0.7809441634329862,0.3675000000000636,0.7997000000000298,0.8801001874787293,-0.3320000000000505,1.4295800000000156,1.4676249440507878,0.4606199999999489,0.9966900000000294,1.0979807559789068,0.35548,0.8799300000000017,0.9490220415248548,0.2712399999999775,0.8053999999999917,0.8498472201519367,0.0027599999999949,0.1078809999999919,112.6685324,0.129965609194424,39.409268100000006,0.6546448339163081,27.071022,0.2417812663514227,0.04200537,-0.07816438,0.045677307045041,0,0
18,600.0,493.77402,27.213692,0.5311573,492.49057,21.754135,0.1450159,494.17758,21.50813,0.41242376,472.7457,17.740196,0.4451279,490.4076,18.6833,0.8454212,454.7297,39.526207,0.9854622,491.73962,41.050797,0.9907245,437.64066,82.12616,0.9367151,501.93677,81.837845,0.9696205,442.41956,117.512924,0.85328865,508.45438,120.850555,0.91355544,460.02686,112.30304,0.9948856,481.79724,113.12876,0.99602157,470.31094,173.42601,0.9787813,481.6328,174.91434,0.9838329,477.97934,225.04437,0.89326036,473.82132,228.108,0.90619713,0.92775014,-0.55614128,0.74234052,-0.0189147,150.4506012530998,175.4477007290055,178.89933787042511,171.7983252036331,1.836762761729718,112.7159,40.288502,27.213692,70.81371999999999,210.367804,0.3366186189944796,2.358913817237528,0.8106759594117648,-0.35548,0.0186080000000004,0.3559666951612187,-0.2180400000000304,-0.1159940000000006,0.2469737832969593,-0.4683300000000372,-0.0363499999999987,0.4697385564332938,-0.1577300000000718,-0.1118619999999985,0.1933697492991661,-0.4305200000000013,0.0151719999999997,0.4307872560603448,-0.3436199999999871,-0.1529110000000031,0.3761070038180519,-0.4988399999999728,0.098046,0.5083840710682948,-0.244329999999934,-0.03763,0.2472107720144244,-0.2198999999999955,0.188606,0.2897036990374787,-0.8360200000000191,-0.1083719999999992,0.8430147868122075,-0.3527600000000461,0.5444829999999996,0.6487691075328974,-0.6576600000000781,0.3367610000000027,0.7388671373942033,0.5388399999999933,0.0168770000000009,0.5391042373502483,-0.4318100000000413,-0.0183529999999976,0.4321998481131566,0.2234800000000518,1.2850499999999982,1.304337691282445,0.1843200000000706,1.2509500000000031,1.264456311977616,0.9022199999999998,-0.1504350000000016,0.9146756898622592,-0.2007800000000088,0.0156449999999921,0.2013886154304738,0.2702999999999633,1.2786100000000005,1.306868632303944,1.4874999999999543,1.893566000000007,2.407955241767565,0.9483999999999924,-0.8811950000000053,1.294591513962993,-0.6544400000000223,-0.6231650000000144,0.9036737966905132,-0.0507799999999747,0.1185459999999949,0.1289641908282924,-0.3628599999999551,0.0515919999999994,0.3665093642241182,0.6776100000000156,-0.1213900000000052,0.688397301127788,-0.1049499999999739,-0.0599560000000138,0.1208686246963875,-0.828959999999995,0.5478499999999826,0.9936369075773972,-0.4285199999999918,-0.0116300000000251,0.4286777896042592,0.888499999999965,0.3200099999999963,0.9443720930332152,0.1693999999999391,0.0154299999999807,0.1701012783608012,-0.8771399999999971,1.1550299999999822,1.4503340582431188,-0.5451399999999467,-0.2745500000000334,0.6103731007342642,1.0292400000000157,0.6639399999999966,1.224806638290317,0.6737600000000157,-0.215990000000005,0.7075338986225489,-0.0014219999999909,-0.0041819999999859,112.71672239999998,0.0719763880260637,39.7897245,0.423358272856479,27.1825898,0.0699737154022722,-0.00221081,-0.055417612,0.0396881252155966,0,0
19,633.3333333333333,493.94135,27.362106,0.5041889,492.53467,21.933525,0.13752967,494.3462,21.695961,0.37138912,472.9467,18.172977,0.44634905,490.9134,19.042542,0.8272524,455.36563,39.97547,0.98601365,492.6134,41.25479,0.9899187,438.41675,82.03854,0.9429587,502.86984,81.31533,0.96755844,442.0133,116.60599,0.86445194,508.1268,118.86415,0.91116977,461.09882,113.011795,0.99531156,483.07498,113.6859,0.9961184,470.4013,173.82736,0.98034006,482.21585,175.08151,0.98407817,478.13443,225.58038,0.89843947,474.4973,228.056,0.9075909,0.92121196,-0.54091126,0.74504262,0.03095133,152.11360492769896,173.60919681134868,179.8017897331015,172.5118660549919,1.4984679509707326,113.3488475,40.61513,27.362106,69.71005000000002,209.883023,0.3321376291967283,1.967120020412667,0.8065093470588236,0.1673299999999926,0.1484139999999989,0.2236650269845449,0.5228099999999927,0.1298059999999985,0.5386834819594823,0.0441000000000144,0.1793899999999979,0.1847311075590696,0.5124300000000517,0.2157399999999967,0.5559930327801343,0.1686200000000326,0.1878309999999992,0.2524147162132404,0.599140000000034,0.1726589999999994,0.6235221486691876,0.2010000000000218,0.4327809999999985,0.4771796244193663,0.6998399999999947,0.3347349999999984,0.7757728699980372,0.505800000000022,0.3592420000000018,0.6203937899141347,0.7257000000000176,0.1706360000000018,0.745491203500099,0.6359300000000303,0.4492630000000019,0.7786168557570792,0.9886900000000765,-0.0952199999999976,0.993264700117824,0.8737800000000107,0.2039929999999969,0.8972762297358698,0.3349400000000173,0.187115999999996,0.3836628742216402,0.7760899999999538,-0.0876200000000011,0.7810204558780316,0.5526099999999019,-1.3726699999999994,1.4797299554310206,0.9330699999999864,-0.5225149999999985,1.0694117776258931,0.0308499999999867,-0.3720799999999968,0.3733567314245142,-0.4062599999999747,-0.9069339999999926,0.9937688201769896,-0.6765599999999381,-2.185543999999993,2.2878671310930376,-0.3275800000000117,-1.9864050000000049,2.0132345815689305,-1.275980000000004,-1.1052099999999996,1.6880800053611231,1.07195999999999,0.7087550000000107,1.285080500056317,1.1227399999999648,0.5902090000000157,1.2684209755759084,1.2777399999999943,0.557140000000004,1.393924132512236,0.6001299999999787,0.6785300000000092,0.9058471050900294,0.0903599999999755,0.4013500000000078,0.4113961012211977,0.9193199999999706,-0.1464999999999747,0.9309197131868776,0.5830500000000143,0.1671699999999987,0.6065419288062585,-0.3054499999999507,-0.1528399999999976,0.3415549269150851,0.1550900000000297,0.5360100000000045,0.5579960826027491,1.0322300000000268,-0.6190199999999777,1.203613116121633,0.6759799999999814,-0.0519999999999925,0.6779771090530815,-0.3532600000000343,-0.7159399999999891,0.798349992922909,0.6329475000000002,0.6343694999999911,112.8632629,0.2751445709491288,40.07624500000001,0.3934034083495302,27.2075776,0.1069003367010517,0.04986603,-0.0267753519999999,0.0400850169083683,0,0
20,666.6666666666666,493.62646,27.391685,0.46799546,492.08237,22.004097,0.1277087,494.07532,21.777767,0.3202786,472.77075,18.60807,0.4478463,491.18942,19.409546,0.79879194,455.99805,40.58676,0.9866122,493.26352,41.545486,0.9887748,439.97894,82.31273,0.9499022,503.83466,80.96176,0.965124,442.6702,116.37125,0.87792814,508.87018,117.583755,0.9087535,462.19632,113.36327,0.995908,484.26437,113.916405,0.9963445,470.72568,174.15422,0.98293674,482.98285,175.42776,0.9851479,478.6354,226.41815,0.90903986,475.15234,228.73944,0.913752,0.94953017,-0.59888358,0.73497116,0.05256812,154.47954329589308,172.8160760100908,179.38088511500672,172.83756834966957,1.105528542231747,113.6398375,41.066123,27.391685,68.89123999999998,210.13137,0.3278484296378572,1.4737192146832288,0.801343814117647,-0.3148899999999912,0.0295789999999982,0.3162761915494025,-0.4822199999999839,-0.1188350000000006,0.4966466406057576,-0.4522999999999797,0.070572000000002,0.4577725386957827,-0.4963999999999942,-0.1088179999999958,0.5081872854804549,-0.2708800000000337,0.0818060000000002,0.2829632414926333,-0.4395000000000664,-0.1060249999999989,0.4521078971053902,-0.1759500000000002,0.4350930000000019,0.4693232586917057,-0.3769500000000221,0.0023120000000034,0.3769570901893432,0.2760199999999599,0.3670039999999979,0.4592156099437129,-0.229780000000062,0.007761999999996,0.2299110633354307,0.6324199999999678,0.6112899999999968,0.8795626870780475,-0.0035100000000625,0.1620269999999948,0.1620650142041728,0.6501200000000154,0.2906959999999969,0.7121517947853662,-0.2236599999999953,0.0867029999999999,0.2398774808292723,1.5621900000000437,0.2741900000000044,1.5860699077279472,0.78610000000009,0.3618100000000055,0.8653667928110863,0.9648199999999748,-0.3535700000000048,1.0275647800990235,0.0317499999999881,0.1689449999999936,0.1719025175062806,0.6569000000000074,-0.2347400000000021,0.6975818787784059,1.063159999999982,0.6721939999999904,1.2578370161654289,0.7433800000000019,-1.2803949999999986,1.480548945636381,1.0709600000000137,0.7060100000000062,1.2827335817308434,1.097500000000025,0.3514749999999935,1.1524065799990255,0.0255400000000349,-0.3572800000000171,0.3581916944877618,1.189390000000003,0.2305049999999937,1.2115201719843562,-0.0883499999999912,-0.3266350000000102,0.3383727910530117,0.3243800000000192,0.3268600000000106,0.46049955917462,0.2340200000000436,-0.0744899999999972,0.2455893330338678,0.7669999999999959,0.3462499999999977,0.841533161854001,0.1839499999999816,0.179079999999999,0.2567240715242591,0.5009699999999953,0.8377700000000061,0.976129865233108,0.3458799999999655,0.3017600000000016,0.4590120608436963,0.6550399999999854,0.6834399999999903,0.9466613096561872,-0.0209399999999959,0.7354399999999828,0.7357380493082946,0.2909899999999936,-0.3419575000000066,113.0272938,0.4385933083729806,40.3727846,0.4786369180932789,27.2446098,0.1348594021794474,0.02161679,-0.0021616799999999,0.0441066627448763,0,0
21,700.0,492.9959,28.036503,0.4919198,491.21658,22.434849,0.14822687,493.1216,22.314533,0.33794704,472.61798,19.571259,0.47338533,491.65015,20.364044,0.8240882,455.59668,41.313515,0.9874308,494.18378,42.596886,0.99116313,441.58936,83.24742,0.9518586,504.03488,80.66794,0.97064924,443.92285,118.343666,0.8863545,509.41663,115.03462,0.92244077,461.0945,113.320076,0.99649733,484.36273,114.6918,0.99690825,471.16284,173.67569,0.98541033,483.85962,175.72601,0.9872815,478.65375,227.33044,0.9189811,474.36264,228.42445,0.924791,0.95202875,-0.61509618,0.72489969,0.05035732,157.7250641594136,174.39270201515922,178.47717080189653,170.25645078534728,1.7184582846546292,114.005938,41.9552005,28.036503,67.82727,208.853191,0.324760514074403,1.904902080437706,0.8114902229411766,-0.6305600000000027,0.6448180000000008,0.9018847857259842,-0.3156700000000114,0.6152390000000025,0.6914958973276778,-0.8657900000000041,0.4307519999999982,0.967026168003744,-0.4134900000000243,0.3601799999999961,0.5483644887299116,-0.9537199999999756,0.5367660000000001,1.0943946167429524,-0.6828399999999419,0.4549599999999998,0.8205236542598394,-0.1527700000000322,0.963189,0.9752290616163004,0.023179999999968,0.5280959999999979,0.5286044812674182,0.4607300000000123,0.954498000000001,1.0598766743843422,0.1847100000000523,0.5874940000000031,0.615846558921963,-0.4013699999999858,0.7267550000000043,0.8302232873902025,-1.0337899999999536,0.1154650000000074,1.0402182128404145,0.9202599999999848,1.051400000000001,1.3972546037140023,0.2701399999999694,0.760704000000004,0.8072460561786533,1.6104199999999764,0.9346900000000034,1.862014493096101,0.0482299999999327,0.660499999999999,0.6622585468682093,0.2002200000000016,-0.2938199999999966,0.3555534288964159,-0.7645999999999731,0.0597500000000081,0.7669310415545585,1.25264999999996,1.9724159999999955,2.336569472443711,0.5957499999999527,2.2071559999999977,2.2861442804066265,0.546449999999993,-2.5491349999999926,2.607047535187066,-0.1969300000000089,-1.268739999999994,1.2839324797278042,-1.101820000000032,-0.0431939999999997,1.102666329419771,-2.199320000000057,-0.3946689999999933,2.234451181377934,0.0983600000000137,0.7753950000000032,0.7816086588728451,-1.0910299999999893,0.5448900000000094,1.2195292423718205,0.4371600000000057,-0.4785300000000063,0.6481510830817234,0.1127799999999865,-0.8053900000000169,0.8132480436496753,0.8767700000000218,0.2982499999999959,0.92610944029312,0.1097700000000259,-0.0480000000000018,0.119805896766419,0.018349999999998,0.9122900000000128,0.9124745292883653,-0.4826199999999971,0.0745200000000068,0.4883393234217354,-0.7896999999999821,-0.3149899999999945,0.850202793514564,-1.4447399999999675,-0.9984299999999848,1.756170872238768,0.3661005000000017,0.075110500000008,113.285569,0.5691812666860706,40.786555500000006,0.7628497522474806,27.439814,0.3447523126862195,-0.0022108,0.019651636,0.0352246489568219,0,0
22,733.3333333333333,492.09308,28.638222,0.44980502,490.26874,23.0746,0.13159953,492.36893,22.958149,0.29956034,472.09848,20.34885,0.4643667,492.04926,21.082493,0.8085544,456.17746,41.780716,0.98564214,494.93317,42.987667,0.9905346,442.98886,83.194725,0.947782,505.0103,81.09893,0.97061485,445.91113,117.04849,0.879829,510.58633,115.413055,0.9219856,461.88333,113.20191,0.9962358,485.28397,114.50179,0.99679095,471.8881,173.35023,0.9843349,484.16977,175.08704,0.9868499,479.13184,226.91501,0.9140332,474.00006,227.7066,0.9222764,0.9546997,-0.64015202,0.70721322,0.03881198,157.4019714808037,174.41904081392587,178.2577416171208,170.11497431791045,1.580316386691176,113.85185,42.3841915,28.638222,67.59746999999999,207.35775,0.3259944211104025,1.7837592223831211,0.8029879605882353,-0.9028200000000196,0.6017189999999992,1.0849653023765482,-0.272260000000017,-0.0430990000000015,0.2756501975348637,-0.947840000000042,0.6397510000000004,1.143539246200619,-0.0820500000000379,0.2089990000000021,0.2245279147478262,-0.7526700000000233,0.643615999999998,0.9903300885846256,0.2010499999999524,0.1068499999999978,0.2276796543391183,-0.5194999999999936,0.7775909999999975,0.9351620251491126,-0.3667299999999613,-0.1855980000000023,0.4110200852804794,0.3991100000000074,0.7184489999999997,0.8218623715081531,-0.0616200000000048,-0.2360490000000012,0.2439593302192011,0.5807800000000043,0.4672009999999957,0.7453738543851676,0.98214999999999,-0.2595540000000085,1.0158675609625425,0.7493900000000053,0.390781000000004,0.8451598440892771,-0.1708699999999794,-0.660618999999997,0.6823591576735737,1.399499999999989,-0.0526949999999999,1.400491704018617,-0.2109199999999873,-0.9873850000000032,1.0096615198297898,0.9754199999999856,0.4309899999999942,1.0663941843896032,0.7751999999999839,0.7248099999999909,1.0612655539967184,1.988280000000032,-1.295175999999998,2.372917661735468,0.7356300000000715,-3.2675919999999934,3.349374415523601,1.1696999999999775,0.3784349999999961,1.22939462306655,0.6232499999999845,2.9275699999999887,2.993176684961968,0.7888300000000186,-0.1181660000000022,0.7976314765955703,1.8906500000000503,-0.0749720000000024,1.892135889222598,0.9212400000000116,-0.1900100000000009,0.9406311379600516,0.8228799999999978,-0.965405000000004,1.2685181545508146,0.7252599999999916,-0.3254599999999925,0.7949379090218197,0.2880999999999858,0.1530700000000138,0.3262392295540131,0.3101500000000214,-0.6389700000000005,0.7102645165007287,-0.5666200000000003,-0.9372199999999964,1.0951892771571468,0.4780900000000088,-0.4154300000000148,0.6333657182071198,0.4597400000000107,-1.3277200000000278,1.4050627267136808,-0.3625799999999799,-0.7178499999999985,0.8042219089902882,0.4271200000000021,-0.402860000000004,0.5871351411728011,-0.1540880000000015,-0.5201885000000033,113.5124746,0.5089715165853214,41.2618294,0.8866154045559895,27.728441600000004,0.5989941845638358,-0.0115453399999999,0.03075481,0.0291208504495303,0,0
23,766.6666666666667,491.92383,29.36435,0.4386692,490.12305,23.84784,0.12785268,492.18896,23.68372,0.29477197,472.29584,21.142113,0.45357293,492.05405,21.71576,0.80381894,456.87454,42.624916,0.9838927,495.3702,43.141094,0.99005777,444.75928,84.4848,0.9410955,505.50192,80.640526,0.9698805,449.1783,119.6369,0.86727864,511.1121,114.71543,0.91990596,463.1636,113.20577,0.99596786,486.42188,114.229324,0.9966936,472.9096,172.86348,0.9842286,484.71222,174.39125,0.98729765,479.73206,226.45352,0.917736,474.22998,227.20622,0.9276431,0.97066975,-0.65071477,0.71924985,0.03807504,156.6931350966022,174.23008446848684,177.97702060475862,170.40210065494247,1.0754116746489362,113.717547,42.883005,29.36435,66.35282000000001,206.064107,0.3220008600430309,0.7682177317970639,0.800021388235294,-0.1692499999999768,0.7261280000000028,0.745592002964085,0.7335700000000429,0.1244090000000035,0.7440447192078335,-0.1456900000000018,0.7732400000000013,0.7868453937718658,0.8021500000000401,0.1334890000000008,0.8131813669908237,-0.1799699999999688,0.7255710000000022,0.7475576746586126,0.5727000000000544,0.0819550000000042,0.5785342790406313,0.1973600000000033,0.7932629999999996,0.8174455069110116,0.7168599999999969,0.0156720000000021,0.7170312902405276,0.004790000000014,0.633267,0.6332851154014282,-0.3943199999999933,-0.0851819999999996,0.4034157105567341,0.6970800000000281,0.8442000000000007,1.0948032546535658,0.1163000000000238,0.3769990000000049,0.3945300191379729,0.4370299999999929,0.1534270000000006,0.4631793013822984,-0.3123600000000124,-0.2373540000000034,0.3923081581053462,1.7704200000000014,1.2900750000000016,2.19058907192221,0.3709200000000123,1.3427700000000016,1.393058835548597,0.4916200000000117,-0.4584040000000016,0.6721788836433445,-0.4837999999999738,-0.8893939999999958,1.012464383193783,3.2671699999999646,2.588409999999996,4.168244970848013,1.278889999999933,3.883585999999994,4.088740619248888,0.5257700000000227,-0.6976250000000022,0.8735643843043436,-0.6439299999999548,-1.0760599999999982,1.254013942705558,1.2802699999999732,0.003860000000003,1.2802758189155692,0.4914399999999546,0.1220260000000053,0.5063631288669789,1.1379099999999769,-0.2724659999999943,1.1700755912572245,0.216669999999965,-0.0824559999999934,0.2318294218514633,1.0215000000000032,-0.4867500000000007,1.131542227448895,0.2962400000000116,-0.1612900000000081,0.3373019444059128,0.5424499999999739,-0.6957899999999881,0.8822560436743718,0.2322999999999524,-0.0568199999999876,0.239148076304152,0.6002199999999789,-0.4614899999999977,0.7571242094266782,0.1221299999999701,-0.0460599999999828,0.1305268573895469,0.2299199999999928,-0.5003800000000069,0.5506753588095291,0.5924999999999727,0.2174699999999916,0.6311493095139723,-0.1343030000000027,0.0197849999999988,113.712804,0.246511801003257,41.780730000000005,0.9325908048853436,28.1585732,0.8545962948174377,-0.00073694,0.042152758,0.0090699390044107,0,0
24,800.0,492.5408,30.225601,0.49109557,490.72684,24.756378,0.14791827,492.5165,24.54126,0.3535511,472.93942,22.045044,0.4491786,491.35416,22.498474,0.8300509,457.39957,43.618935,0.98402804,494.9178,43.796093,0.99100703,445.7482,85.29226,0.93624866,505.7872,80.7877,0.9713259,450.72043,120.237,0.8587955,511.24768,114.60013,0.9225811,464.2997,113.48957,0.99576306,486.85147,114.326065,0.99668735,473.73404,172.63403,0.9840545,484.85504,173.57773,0.9877307,480.12186,225.90778,0.92016816,474.3708,225.71835,0.93182176,1.1167726,-0.66447091,0.89169295,0.10267979,156.28147163843815,172.799086772587,177.77434353117675,170.56058537692894,0.4759993338827925,113.9078175,43.707514,30.225601,65.49948,203.862736,0.3212920662396483,0.2705439533915399,0.8089415411764707,0.6169699999999807,0.8612509999999993,1.0594362962920305,0.7862199999999575,0.1351229999999965,0.7977468981631533,0.6037900000000036,0.908538,1.0908728897282234,0.7494800000000055,0.1352979999999988,0.7615942615356341,0.327539999999999,0.8575400000000002,0.9179636720480826,0.5075099999999679,0.131968999999998,0.5243874684438663,0.6435799999999858,0.9029310000000024,1.1088190146101329,0.4462199999999825,0.1096680000000027,0.4594990300577194,-0.699890000000039,0.7827140000000021,1.049993913266195,-0.704680000000053,0.1494470000000021,0.7203529053242413,0.5250299999999584,0.9940190000000017,1.1241575838204176,-0.1720500000000697,0.1498190000000008,0.2281379741757699,-0.4524000000000114,0.6549989999999966,0.7960461355983118,-0.8894300000000044,0.5015719999999959,1.0211073381794902,0.9889200000000072,0.8074599999999919,1.2766966820666534,-0.7814999999999941,-0.4826150000000098,0.918509383852446,0.2852800000000002,0.1471740000000068,0.3210060196881082,-0.2063400000000115,0.6055780000000084,0.6397662930195799,1.5421300000000429,0.6000999999999976,1.6547764038987651,-1.7250399999999215,-1.9883099999999985,2.632325902638145,0.1355800000000044,-0.1153000000000048,0.1779776008378648,-0.3901900000000182,0.5823249999999973,0.7009640801959905,1.136099999999999,0.2837999999999994,1.1710105251448415,-0.1441699999999741,0.2799399999999963,0.3148831410221742,0.4295900000000188,0.0967409999999944,0.4403480318804832,-0.7083199999999579,0.3692069999999887,0.7987684465781882,0.8244399999999814,-0.2294500000000141,0.855773694442623,-0.1970600000000217,0.2572999999999865,0.3240924769259565,0.1428199999999719,-0.8135200000000111,0.8259614656871167,-0.3996300000000019,-0.1177300000000229,0.4166107173369487,0.3898000000000365,-0.545739999999995,0.6706535525888333,-0.2104199999999423,-0.0842499999999972,0.226659742565757,0.1408199999999624,-1.4878700000000151,1.494519123096133,-0.0891000000000303,-0.9874900000000082,0.9915015431657288,0.1902704999999969,0.3245734999999996,113.824598,0.1467555035130655,42.3992068,0.9899757445755488,28.7312722,1.109015612013054,0.06460475,0.05649845,0.0266369592524674,0,0
25,833.3333333333334,492.6078,31.240005,0.4808915,490.78735,25.834633,0.14424194,492.6126,25.526756,0.34263662,473.2055,23.105812,0.4423801,491.4811,23.38041,0.820661,458.15308,44.681747,0.9834674,494.9574,44.35047,0.9906006,446.88614,86.38412,0.93531823,506.1077,80.92653,0.9708311,453.04218,121.20743,0.8580164,512.54193,114.18893,0.9219726,465.18536,113.67455,0.9958311,487.27682,114.219955,0.99672997,474.55032,172.7,0.9849364,485.13165,172.76573,0.9883836,480.89642,226.55136,0.92584044,474.56165,225.12486,0.9367992,1.42068768,-0.68829852,1.23952689,-0.09039752,154.85594597788756,173.99402650349836,177.70562385339178,170.6852367037712,0.2676689332455504,113.9472525,44.5161085,31.240005,65.65578999999997,203.445548,0.3227192254768866,-0.5157074326006497,0.8070316588235293,0.0670000000000072,1.014403999999999,1.0166142214311185,-0.5499699999999734,0.1531529999999996,0.5708965250454504,0.060510000000022,1.0782549999999986,1.079951529062763,-0.5432799999999816,0.1697169999999985,0.5691722221691599,0.0960999999999785,0.9854959999999976,0.9901704782591688,-0.2314400000000205,0.1279559999999975,0.2644564454423617,0.2660799999999881,1.0607679999999995,1.0936303380137151,-0.3774999999999977,0.1578369999999971,0.4091683865708559,0.1269400000000473,0.8819359999999996,0.8910246190179099,0.8268300000000863,0.0992219999999974,0.8327621834498383,0.7535100000000057,1.062812000000001,1.3028225771163204,0.2284800000000473,0.0687929999999994,0.238611791932045,0.0396000000000071,0.5543770000000023,0.5557895448180032,0.4920000000000186,-0.1006219999999942,0.502184016953962,1.1379400000000146,1.091859999999997,1.5770433422071908,0.1490200000000072,0.2844000000000051,0.3210768138623607,0.3205000000000382,0.1388299999999986,0.3492764219068102,0.035220000000038,-0.0083440000000081,0.0361948993091956,2.321749999999952,0.9704300000000076,2.5163977124850097,0.7796199999999089,0.3703300000000098,0.8631058181357981,1.2942499999999768,-0.4111999999999938,1.3580016577677418,1.1586699999999723,-0.2958999999999889,1.1958565879318177,0.8856600000000299,0.1849799999999959,0.9047713722261838,-0.2504399999999691,-0.0988200000000034,0.2692314729001518,0.4253499999999803,-0.106110000000001,0.4383856231675299,-0.0042400000000384,-0.2028509999999954,0.2028953074888586,0.8162800000000061,0.0659699999999929,0.8189414382603979,-0.0081599999999752,0.2954200000000071,0.2955326750124321,0.2766100000000051,-0.8120000000000118,0.8578211305977617,0.1337900000000331,0.0015199999999992,0.1337986341485176,0.7745599999999513,0.6435799999999858,1.00704439326174,0.3847599999999147,1.1893199999999808,1.2500089279680722,0.1908500000000117,-0.5934899999999743,0.6234212882152598,0.0500300000000493,0.8943800000000408,0.895778200951596,0.0394349999999974,-0.1508354999999994,113.886081,0.1097219198821548,43.0892039,1.030034987147297,29.5009362,1.2705309462648615,-0.19307731,0.027905322,0.0712622867600397,0,0
26,866.6666666666667,492.4651,32.0704,0.49722952,490.5067,26.749886,0.14706571,492.27936,26.368027,0.37001953,472.93558,24.011223,0.41816607,490.52625,24.165047,0.83240473,458.39755,45.36702,0.9818547,494.08636,44.811386,0.9907318,448.14886,86.00347,0.9274611,506.11768,80.815285,0.97181016,455.68253,117.5596,0.84889,513.0758,113.2701,0.9247915,466.13428,113.59241,0.9953407,487.48557,113.9805,0.9965432,475.57452,172.83206,0.9833347,485.477,172.0277,0.9878209,481.2495,226.25589,0.91970485,474.1792,223.56033,0.9338618,1.57079887,-0.56301935,1.44439518,-0.25326045,152.41756357998062,173.62275814158164,177.00920183584128,169.6161277084094,0.473795829861067,113.786455,45.089203,32.0704,64.92693999999995,202.244667,0.3210316526119737,-0.8919577686736951,0.8074724099999999,-0.1426999999999907,0.8303949999999993,0.842566997944375,-0.209699999999998,-0.1840089999999996,0.2789863833254215,-0.2806499999999801,0.915253,0.9573152440596508,-0.3411600000000021,-0.1630019999999987,0.3781002480877274,-0.3332399999999893,0.8412710000000025,0.9048678318080476,-0.4293399999999678,-0.1442249999999951,0.452916864584408,-0.2699199999999564,0.9054110000000009,0.9447888046124266,-0.5359999999999445,-0.1553569999999986,0.5580607470956367,-0.9548500000000216,0.784637,1.2358777222156898,-1.081790000000069,-0.0972989999999995,1.0861568484805264,0.2444700000000352,0.6852729999999951,0.727574508506868,-0.5090399999999704,-0.3775390000000058,0.6337644815867913,-0.8710399999999936,0.4609159999999974,0.9854715828759276,-0.9106400000000008,-0.0934610000000049,0.915423491134569,1.2627200000000016,-0.3806500000000028,1.318846549413542,0.124779999999987,-1.4725099999999998,1.4777874503797883,0.0099799999999845,-0.1112449999999967,0.1116917652515124,-0.3105200000000536,-0.2500749999999954,0.3986981013561902,2.640350000000012,-3.647829999999999,4.503122453520453,0.3186000000000604,-4.618260000000007,4.629236587991599,0.533869999999979,-0.9188299999999998,1.0626691610280112,-0.7603799999999978,-0.507630000000006,0.9142570542795952,0.9489199999999868,-0.0821399999999954,0.9524684488212584,0.063259999999957,-0.2671199999999913,0.2745085098862874,0.2087500000000091,-0.2394549999999924,0.3176716221587949,-0.2165999999999712,-0.1333449999999914,0.2543549665821079,1.0242000000000075,0.132060000000024,1.032678790137583,0.2079200000000014,0.066090000000031,0.2181710670552003,0.3453499999999962,-0.7380299999999806,0.8148342797158014,0.0687399999999911,0.0739700000000311,0.100978950776899,0.353080000000034,-0.2954699999999945,0.4603998341659354,-0.4214799999999172,-0.9390499999999804,1.029300875788947,-0.3824500000000057,-1.564530000000019,1.6105968221128664,-0.5733000000000175,-0.9710400000000448,1.1276486915702544,-0.1607974999999868,-0.2002324999999842,113.8421844,0.0923047679966927,43.7160044,1.1173100122367796,30.3077156,1.3838452011147346,-0.16286293,-0.032818232,0.1417979223536878,0,0
27,900.0,492.15594,32.673508,0.4835205,490.25626,27.483337,0.14007597,491.94403,27.065178,0.36819774,473.11844,24.889114,0.38881278,489.99548,24.91999,0.82470936,459.11362,46.132378,0.97811586,493.42694,45.20605,0.98979914,449.65842,86.524704,0.9137978,505.33038,80.147675,0.97046196,457.82227,118.60344,0.82862514,512.8413,111.42079,0.9221912,467.16824,113.852875,0.9948283,487.6833,114.17015,0.9963547,476.5379,172.0661,0.98295194,486.26624,171.64246,0.9882195,480.96146,225.10558,0.92352396,474.6112,223.37234,0.93917185,1.05338241,-0.23925866,1.02483277,-0.04569005,152.54685745204245,174.69278391330263,175.6239340678759,168.71536404431424,0.9686794651519092,114.0115125,45.669214,32.673508,63.18288000000007,200.216466,0.3155728444653859,-1.546390643525156,0.8019622176470588,-0.3091600000000198,0.6031079999999989,0.6777308944293531,-0.1664600000000291,-0.2272870000000004,0.2817238221539135,-0.250440000000026,0.7334509999999987,0.7750293949270641,0.0302099999999541,-0.1818020000000011,0.1842949030874094,-0.335329999999999,0.6971509999999981,0.7736056655047173,-0.0020900000000096,-0.1441200000000044,0.1441351535885723,0.1828600000000051,0.8778909999999982,0.8967331751870222,0.4527799999999615,-0.0275200000000026,0.4536155627841325,-0.5307700000000182,0.7549429999999973,0.9228519524544634,0.4240800000000035,-0.0296940000000027,0.42511831298593,0.716070000000002,0.7653580000000062,1.0481073957682068,0.4715999999999667,0.080085000000011,0.4783515101104734,-0.6594200000000114,0.3946639999999988,0.7685014048757582,0.2116199999999821,-0.0662519999999986,0.2217483977484217,1.509559999999965,0.5212340000000069,1.597014801545653,0.2468399999999633,0.9018840000000096,0.935053332733486,-0.7873000000000161,-0.6676099999999963,1.0322521020080415,-0.7972800000000007,-0.5563649999999996,0.9722126370424324,2.139740000000017,1.043840000000003,2.380774918634704,-0.5006099999999947,4.691670000000002,4.718302423647727,-0.2344999999999117,-1.849310000000003,1.864118484994977,-0.7683699999998908,-0.9304800000000027,1.2067251084235535,1.033960000000036,0.2604649999999964,1.0662623025433622,0.085040000000049,0.3426049999999918,0.3530013988994983,0.1977299999999786,0.1896500000000003,0.2739786039091222,-0.0110200000000304,0.4291049999999927,0.4292464809698437,0.9633799999999724,-0.7659600000000069,1.2307703871965547,-0.0608200000000351,-0.8980200000000309,0.9000772149099542,0.7892400000000066,-0.3852400000000102,0.8782423556171829,0.4438900000000103,0.3527899999999704,0.5670089207411011,-0.2880400000000236,-1.1503099999999904,1.1858246656652034,-0.6411200000000576,-0.8548399999999958,1.0685440000299786,0.4320000000000163,-0.187989999999985,0.4711308099668376,0.8144500000000221,1.376540000000034,1.5994346420220271,0.2250575000000054,0.3858549999999923,113.8741169,0.1199592010067383,44.3730089,1.104146076115246,31.114772800000004,1.342867113836165,0.2075704,-0.049718638,0.1360452874486341,0,0
28,933.3333333333334,492.14102,33.564915,0.45967513,490.1319,28.443222,0.12721671,491.98358,28.025543,0.3522529,473.02698,25.816635,0.35945663,490.01843,25.821815,0.81624746,459.64655,46.84585,0.97551775,492.91513,45.641975,0.98915344,451.16907,86.85608,0.9064128,504.7625,79.899864,0.97018695,460.07422,118.086075,0.8187472,513.10046,110.73042,0.9216021,467.4125,114.45545,0.99479705,487.3863,114.694786,0.9964311,476.84476,172.11185,0.9836564,486.8002,171.52386,0.98905003,481.29263,224.9059,0.9293779,475.41537,223.04066,0.9449821,0.91550299,-0.21764186,0.88678004,0.06632427,152.12157994400022,176.05645179777812,175.52480254264017,168.1292404571434,0.937881054324845,114.575118,46.2439125,33.564915,61.93139000000002,199.089265,0.3110734759552532,-2.0724320825190503,0.7961625676470588,-0.0149199999999609,0.891407000000001,0.8915318536367618,0.2942400000000589,0.2882990000000021,0.4119386981105755,-0.1243600000000242,0.959885,0.9679073420658642,0.1260800000000017,0.2264340000000011,0.2591689077725199,0.0395500000000197,0.9603649999999996,0.9611790341684532,0.3748800000000187,0.2632140000000014,0.4580574463929331,-0.0914600000000405,0.9275210000000024,0.9320193866229456,-0.2743200000000456,0.049630000000004,0.2787733834138859,0.0229500000000371,0.9018250000000024,0.902116973083317,0.5537200000000553,0.146882000000005,0.5728701077243101,0.5329299999999648,0.7134719999999959,0.8905372983115062,-0.1831400000000371,-0.0518860000000103,0.1903481457645823,-0.5118100000000254,0.4359250000000045,0.672294639072059,0.147609999999986,0.0412610000000057,0.1532683340452174,1.5106499999999985,0.3313760000000059,1.5465682900783913,0.0010900000000333,-0.1898580000000009,0.1898611288916202,-0.5678800000000024,-0.2478110000000128,0.6195950178310096,0.2194200000000137,0.4197989999999834,0.4736837941084664,2.251950000000022,-0.5173650000000123,2.3106157936197684,0.1122100000000045,-1.5612050000000153,1.5652322946211683,0.2591599999999516,-0.6903700000000015,0.7374107691781948,0.4936599999998634,1.1589400000000012,1.2596992177499629,0.244259999999997,0.6025750000000016,0.6501996448976273,-0.7897000000000389,0.3421100000000052,0.8606191620572162,-0.2969999999999686,0.5246359999999868,0.602869747537532,-0.4947299999999472,0.3349859999999864,0.5974725040501352,0.3068600000000288,0.0457499999999981,0.3102517076504454,-0.6565199999999436,0.811710000000005,1.0439787519389148,0.533960000000036,-0.1185999999999865,0.5469727978611324,-0.2552799999999706,0.2666400000000237,0.3691405802671899,0.331169999999986,-0.1996800000000007,0.3867113539838092,0.6192100000000096,0.9506299999999896,1.1345124155336477,0.8041699999999992,-0.3316800000000057,0.869885631160788,0.3721699999999828,-0.1436900000000207,0.3989452656693562,0.5636054999999942,0.3385479999999887,114.0456311,0.3071496557997875,45.0451904,0.9871148670961952,31.9548858,1.286801839766584,0.11201432,-0.044068792,0.1410956269247351,0,0
29,966.6666666666666,492.21024,34.02175,0.45716912,490.12805,29.012634,0.123609774,492.0581,28.55154,0.36237553,473.1355,26.657948,0.33360636,490.01437,26.591084,0.8169108,460.53574,47.60273,0.9703166,492.5408,46.219765,0.988399,452.24902,87.467514,0.8883099,503.8202,80.1062,0.9697319,460.87946,118.55133,0.7954588,513.15906,110.608475,0.9209008,468.8878,114.795654,0.99331456,488.0467,115.00191,0.9957136,478.7965,172.5982,0.97861904,488.6597,171.95271,0.98658895,481.958,225.4657,0.91010064,476.10754,223.6195,0.9325102,0.97211237,-0.26971869,0.90962506,-0.21174637,152.73977269312266,178.61249918424343,173.694955308435,165.72816759948736,1.6252212932408994,114.898782,46.9112475,34.02175,60.91003999999998,198.874616,0.3062735753753833,-2.4742586258856605,0.789625622,0.0692199999999729,0.4568349999999981,0.4620493757435395,0.0841399999999339,-0.4345720000000028,0.4426424773832617,-0.0038499999999999,0.5694119999999998,0.5694250154708693,0.1205100000000243,-0.390473,0.4086463309868399,0.0745200000000068,0.5259970000000003,0.5312495406200378,0.034969999999987,-0.4343679999999992,0.435773404791984,0.1085199999999986,0.8413129999999995,0.8482830626441854,0.1999800000000391,-0.0862080000000027,0.2177701073701717,-0.0040600000000381,0.7692689999999978,0.7692797137329158,-0.0270100000000752,-0.1325560000000045,0.1352798330720631,0.889189999999985,0.7568800000000024,1.1677012419707264,0.3562600000000202,0.0434080000000065,0.3588947506777091,-0.3743299999999863,0.5777900000000002,0.688450603166262,0.1374800000000391,0.1418649999999957,0.1975510785215042,1.0799499999999966,0.6114339999999885,1.241025196704716,-0.4307000000000016,0.2800579999999826,0.5137460202901738,-0.9422999999999888,0.2063360000000074,0.9646262669531565,-0.3744199999999864,0.4541470000000203,0.5885913981778941,0.8052399999999693,0.4652549999999991,0.9299858453895682,-1.4467100000000528,0.9826200000000114,1.7488601683668636,0.0585999999999558,-0.1219449999999966,0.1352942830462322,-0.2005599999999958,0.5684250000000048,0.6027696858875733,1.4753000000000045,0.3402039999999999,1.5140174541979403,1.2310400000000072,-0.2623710000000017,1.2586890097403007,0.6603999999999814,0.3071240000000017,0.7283222579160797,0.95739999999995,-0.217511999999985,0.98179744863383,1.9517399999999725,0.4863499999999874,2.0114237122247216,1.6448799999999435,0.4405999999999892,1.7028677501203096,1.8594999999999688,0.4288499999999828,1.9083114453620689,1.3255399999999329,0.5474499999999694,1.4341400887290572,0.6653700000000526,0.5597999999999956,0.8695362424304494,0.3342000000000666,0.7594799999999964,0.8297587061309083,0.692169999999976,0.5788399999999854,0.9023054108781292,-0.1120000000000231,0.9105199999999912,0.91738251040664,0.3236639999999937,-0.2399415000000004,114.243824,0.4716554319642425,45.6859371,0.9404244154779856,32.7141156,1.120578885553918,-0.27807064,-0.106954024,0.1288795615832882,0,0
30,1000.0,491.9749,33.210358,0.43112332,490.75726,28.681427,0.09591676,491.6507,27.847046,0.38741317,474.75412,27.403755,0.23221862,489.12485,26.53109,0.82781994,461.16357,48.747147,0.9180388,490.60434,47.751617,0.9876481,453.8114,88.41258,0.76569355,502.1099,82.26048,0.9767769,461.97363,116.24816,0.72695243,510.74365,112.36265,0.94500786,470.03378,115.61363,0.9821859,486.9367,116.33296,0.9928063,481.6717,169.94312,0.97029907,487.21048,171.53099,0.98781246,483.39743,222.17383,0.9072347,476.2609,226.40933,0.9464164,1.05895891,-0.24343463,0.98209047,-0.312461,153.15641356236887,177.56483512210067,169.80178470774064,168.43207702041877,2.1996796177719977,115.973295,48.249382,33.210358,56.93225000000001,199.87824,0.2848346559143474,-1.9367000915064243,0.7694920164705883,-0.2353400000000078,-0.8113919999999979,0.8448324646129552,-0.3045599999999808,-1.268226999999996,1.3042839097102203,0.6292100000000005,-0.3312069999999991,0.711057874542572,0.6330600000000004,-0.900618999999999,1.1008540079233933,-0.4074000000000524,-0.7044940000000004,0.8138099016576557,-0.4819200000000592,-1.230491000000001,1.3214972521655346,1.6186200000000213,0.7458069999999992,1.78217810155132,1.5101000000000226,-0.0955060000000003,1.5131171157699816,-0.8895200000000045,-0.0599939999999996,0.8915408630208758,-0.8854599999999664,-0.8292629999999974,1.2131432457747668,0.6278300000000172,1.1444169999999971,1.305320182479768,-0.2613599999999678,0.3875369999999947,0.4674333920132141,-1.936460000000011,1.5318520000000009,2.469098596958826,-1.5621300000000249,0.9540620000000004,1.830432855022024,1.5623800000000188,0.9450660000000112,1.825973989068869,0.4824300000000221,0.3336320000000228,0.5865569165256144,-1.710300000000018,2.15428,2.7506450895017447,-0.7680000000000291,1.9479439999999928,2.0938743580110093,1.0941700000000196,-2.3031699999999944,2.549862748816104,0.2889300000000503,-2.768424999999993,2.783461428783412,-2.415409999999952,1.7541750000000036,2.98518599064192,-2.4740099999999074,1.87612,3.104923788839195,1.1459799999999518,0.8179760000000016,1.4079612554952967,-0.3293200000000524,0.4777720000000016,0.580273854644543,-1.1100000000000136,1.3310500000000047,1.7331457245425277,-1.770399999999995,1.023926000000003,2.0451749591357675,2.875200000000006,-2.655079999999998,3.913594875098856,0.923460000000034,-3.141429999999985,3.2743489148989564,-1.4492199999999684,-0.4217199999999934,1.5093330867637873,-3.308719999999937,-0.8505699999999763,3.416298781327468,1.439429999999959,-3.2918699999999887,3.5928215683220075,0.7740599999999063,-3.851669999999984,3.928680525634496,0.1533600000000206,2.789830000000024,2.7940420037107776,-0.5388099999999554,2.210990000000038,2.2756961563882205,1.0745130000000105,0.7508490000000165,114.6490325,0.8619717264610532,46.4325918,1.219925911859621,33.1081862,0.7615090978774727,-0.10071463,-0.15136672,0.156952482542984,0,0
31,1033.3333333333337,491.9254,33.601532,0.41091526,490.7077,29.191544,0.09126395,491.6921,28.231125,0.37189952,474.79742,28.114235,0.22604413,489.41107,26.958794,0.81939936,461.56616,49.33383,0.90948206,490.80914,47.951645,0.98630905,454.99323,88.509995,0.7443771,501.80667,82.34641,0.9742895,464.16022,115.184364,0.70365846,510.51727,112.33001,0.9393252,470.6347,115.51471,0.98058677,487.57007,116.01827,0.99217755,482.24713,170.1477,0.9692993,488.3453,171.07909,0.9874699,483.26193,222.45647,0.9082106,477.3973,225.88852,0.947332,1.07871888,-0.22083525,1.00911147,-0.31074148,151.50974779394446,178.4678399915883,169.11158049301707,167.89738187021405,2.4864296035704627,115.76649,48.6427375,33.601532,55.524040000000014,198.929726,0.2791138400345767,-2.7061015144115927,0.762472924117647,-0.0494999999999663,0.3911739999999994,0.3942934798801474,0.1858400000000415,1.2025659999999974,1.2168407825003271,-0.0495599999999853,0.510117000000001,0.5125188262776301,-0.6787699999999859,0.8413240000000002,1.0809971257482516,0.04140000000001,0.3840789999999998,0.3863038159803766,0.4488000000000625,1.0885730000000002,1.177460239808146,0.0432999999999879,0.7104800000000004,0.7117982301186199,-1.5753200000000334,-0.0353269999999987,1.575716059234374,0.2862200000000143,0.4277040000000021,0.5146383196148631,1.1757400000000189,0.4876980000000017,1.2728762260345845,0.402590000000032,0.5866830000000007,0.7115304987061528,-0.2252399999999852,-0.5577339999999964,0.6014983560708951,0.2048000000000343,0.2000279999999961,0.2862765110588231,2.141260000000045,-1.3318240000000046,2.521656113465158,1.1818299999999908,0.097414999999998,1.185838029043165,-0.3805500000000279,-0.8476510000000133,0.9291558105619552,-0.303229999999985,0.0859300000000047,0.315170426594869,1.407070000000033,-2.0683499999999952,2.501583040276711,2.186589999999967,-1.0637959999999964,2.4316327349572853,1.092419999999947,1.239373999999998,1.6520984741461024,-0.226380000000006,-0.0326400000000006,0.2287209522540573,2.1890299999999456,-1.7868150000000045,2.825696407104765,0.6009200000000305,-0.0989200000000067,0.6090073996266696,-0.5450599999999213,-0.9168960000000084,1.0666717763285618,0.6333700000000135,-0.3146899999999988,0.7072392473555299,1.7433700000000272,-1.6457400000000035,2.397456799297978,0.5754300000000399,0.2045799999999928,0.6107148772545523,-2.299769999999967,2.859659999999991,3.669686276577304,1.1348199999999906,-0.4518999999999948,1.2214868163021548,2.584039999999959,-0.0301800000000014,2.584216235921404,-0.135499999999979,0.2826399999999864,0.313441572864843,-1.574929999999938,3.574509999999975,3.9060883560154687,1.1363999999999803,-0.5208100000000115,1.2500592050378925,0.98303999999996,-3.310640000000035,3.453506167824252,-0.2068050000000028,-1.281318000000013,115.0450395,0.8204487536446141,47.1432987,1.275480887786168,33.4144126,0.5042571927556043,0.0017195199999999,-0.162862926,0.1679981363404036,0,0
32,1066.6666666666667,492.09818,34.05139,0.41681927,490.70154,29.665405,0.088986374,491.75635,28.725807,0.396329,474.86765,28.616013,0.20055263,489.31372,27.50711,0.8310823,462.20483,49.691917,0.89459753,490.39526,48.105026,0.986463,456.95697,88.017746,0.7023946,501.15018,82.4348,0.9752246,466.4694,112.99248,0.6675207,510.1983,112.653496,0.9408412,471.07266,114.89709,0.9775888,487.53912,115.33625,0.9917333,483.96133,167.79175,0.96689576,491.03494,168.23642,0.98770976,484.0171,220.9961,0.9082776,479.78387,223.81615,0.9505405,1.02419983,-0.1373158,0.99019677,-0.22280041,151.35217576102403,179.27394930957402,166.3658439660811,164.7753924495793,2.599064209748583,115.11667,48.8984715,34.05139,53.241330000000005,196.30904,0.2712118083242025,-3.2218842307769453,0.757856289647059,0.1727799999999888,0.449857999999999,0.4818974461065292,0.2222799999999551,0.0586839999999995,0.2298960857778575,-0.0061599999999657,0.4738609999999994,0.4739010370541502,0.0434000000000196,-0.0362560000000016,0.0565513707703166,0.0642500000000154,0.4946820000000009,0.4988369910341483,0.0228500000000053,0.1106030000000011,0.1129386829611559,0.0702300000000377,0.5017779999999981,0.5066689394308708,0.0269300000000498,-0.2087020000000023,0.2104322924458213,-0.0973500000000058,0.5483159999999998,0.5568908855027176,-0.3835700000000202,0.1206119999999977,0.4020860597484261,0.6386699999999905,0.3580869999999976,0.7322060287029779,0.2360799999999585,-0.2285960000000031,0.3286181638558372,-0.413880000000006,0.1533810000000031,0.4413868887506809,-0.6186800000000403,-0.046646999999993,0.6204360442535952,1.9637400000000296,-0.492249000000001,2.024495953466225,0.781910000000039,-0.5896639999999991,0.9793298121654728,-0.6564900000000193,0.0883899999999897,0.6624137017000958,-0.3532600000000343,0.002459999999985,0.3532685652588186,2.309180000000026,-2.1918840000000017,3.1838133962052693,0.1225900000000592,-1.1280880000000053,1.1347294143733238,-0.3189699999999789,0.3234860000000026,0.4542962173472152,-0.0925899999999728,0.3561260000000033,0.3679655363970888,0.4379599999999755,-0.6176199999999881,0.7571416155515187,-0.162960000000055,-0.5186999999999813,0.5436962861745503,-0.0309499999999616,-0.6820199999999943,0.6827218927938299,-0.6643199999999752,-0.3673299999999955,0.7591128975982186,1.7141999999999484,-2.3559499999999787,2.9135857705754478,1.1387699999999086,-2.560529999999972,2.802340270880688,2.689639999999997,-2.8426699999999983,3.913430216383061,1.5548200000000063,-2.3907700000000034,2.851884714587888,0.755170000000021,-1.4603699999999833,1.6440688141923936,0.8906700000000001,-1.7430099999999698,1.957390331282929,2.386570000000006,-2.0723700000000065,3.160764746354916,1.2501700000000255,-1.551559999999995,1.9925519974394768,-0.6498200000000054,-0.4430150000000026,115.266071,0.588477458843587,47.7891502,1.1542845224700589,33.689989,0.3514932739071447,0.08794107,-0.198284998,0.1553084821006794,0,0
33,1100.0,173.89006,14.478161,0.6098575,172.23059,9.783611,0.18927135,171.72928,9.508488,0.5286883,155.50417,11.089443,0.36237752,165.31494,12.044773,0.8756447,140.09949,36.698647,0.9748946,170.94244,37.081356,0.9910182,131.3676,75.26195,0.88297856,185.10626,71.51878,0.97078717,141.93147,103.42166,0.7988927,194.93066,103.96379,0.9262595,153.3711,105.99469,0.9918234,171.79796,107.48825,0.9949058,163.43672,170.20169,0.9710457,177.65793,172.16873,0.98193663,161.39311,222.8129,0.8650865,165.11029,224.48645,0.8968688,0.97231343,-0.25350609,0.92215298,-0.17539084,146.6785112707566,174.48944502280133,168.86589900889302,161.33639322673855,5.774279859764588,106.74147,36.8900015,14.478161,63.56305999999998,214.977962,0.2956724452729137,0.7109075239227193,0.8124904076470587,-318.20812,-19.573229,318.80953393432395,-318.3809,-20.023087,319.0099081499187,-318.47095,-19.881794,319.09094585487844,-318.46479000000005,-20.355655,319.11467399701814,-320.02707,-19.217319,320.6035415935586,-320.09132,-19.712001,320.69770208526035,-319.36348000000004,-17.52657,319.84404483071955,-319.4337100000001,-18.028348,319.9420516530662,-323.99878,-15.462337000000002,324.36752813281106,-323.90143,-16.010653,324.29689694095333,-322.10534,-12.993269999999995,322.36729846839074,-322.74401,-13.351356999999991,323.0200531307949,-319.45282,-11.023670000000005,319.6429656761138,-319.03894,-11.177051000000006,319.2346655759368,-325.58937000000003,-12.755796000000004,325.8391446536013,-327.55311000000006,-12.263547000000004,327.7826024298625,-316.04392,-10.916019999999987,316.2323811085873,-315.38742999999994,-11.00440999999998,315.5793530024627,-324.53793,-9.570819999999998,324.67902396699003,-326.84711000000004,-7.378935999999996,326.9303932213159,-315.26764000000003,-8.689706000000001,315.3873742265788,-314.94867000000005,-9.013192000000004,315.07761323965525,-317.70156,-8.9024,317.82626378604016,-318.13951999999995,-8.284780000000012,318.2473751116869,-315.74116000000004,-7.848000000000013,315.8386791103104,-315.7102100000001,-7.165980000000019,315.791526117476,-320.52460999999994,2.409940000000006,320.5336697235653,-322.2388099999999,4.765889999999985,322.2740516667579,-313.37701000000004,3.932310000000001,313.40168068865904,-316.06665000000004,6.774979999999999,316.1392534884318,-322.62399000000005,1.8168000000000009,322.62910545355345,-323.37916000000007,3.277169999999984,323.39576522507923,-314.67358,0.6702999999999975,314.67429391691087,-317.06015,2.742670000000004,317.0720122570761,-8.375200000000007,-7.725380000000001,113.6993414,3.914825054893234,45.918368,5.104753756825146,29.8726382,8.612665760831725,0.04740957,-0.24662802,0.0618541375500439,0,0
34,1133.3333333333333,492.23297,35.19979,0.38935786,490.43027,30.744019,0.085376814,492.3868,30.134727,0.39912096,473.11475,28.865685,0.23670118,489.6328,28.838463,0.83884746,461.98636,49.64276,0.93292344,492.08572,48.19886,0.9847685,455.8442,85.71014,0.72046655,501.7667,80.80196,0.9635587,468.05142,107.15235,0.5898122,512.3198,112.79488,0.89445454,472.1698,113.98704,0.9879979,490.85608,114.099144,0.9946715,485.2664,165.06891,0.97533983,497.5991,165.82602,0.9896478,483.0285,213.69449,0.9328671,484.78043,218.35233,0.9601855,0.95294668,-0.31123277,0.88039326,-0.19012957,140.68222468489628,178.28244137055404,162.98491967169437,158.85835554031465,3.932684089011915,114.043092,48.92081,35.19979,56.47559999999999,189.513867,0.2980024659725693,-2.746437259419068,0.7574175196470588,318.34291,20.721629,319.0166049842574,636.5510300000001,40.294858,637.8251244465846,318.19968,20.960408,318.8892833815976,636.6706300000001,40.842202,637.9792916457444,320.65752,20.626239,321.3202248035992,640.68459,39.843558,641.9223107024459,317.61058,17.776242,318.10764735790144,636.97406,35.302812,637.951598201612,324.31786,16.79369,324.75237079780607,648.31664,32.256027,649.1185692758406,321.88687,12.944113000000002,322.1470272092444,643.99221,25.937383,644.514324416124,321.14328,11.117504000000004,321.3356581276788,640.5961,22.141174000000007,640.9786228270864,324.4766,10.448189999999997,324.6447729778443,650.06597,23.203986,650.4799691906962,316.66044,9.283179999999987,316.79648308007773,632.70436,20.199199999999976,633.026709423583,326.11995,3.730689999999996,326.14128814959724,650.65788,13.301509999999992,650.7938283161376,317.38914,8.831090000000003,317.5119751135817,632.65678,17.520796000000004,632.8993439500803,318.7987,7.992349999999988,318.89886920497617,636.50026,16.894749999999988,636.7244408357749,319.05812000000003,6.610894000000002,319.1266016135503,634.7992800000001,14.458894000000017,634.963924569122,321.82967999999994,-5.132780000000025,321.8706081011914,642.3542899999999,-7.542720000000031,642.3985729330369,319.94117000000006,-6.342710000000011,320.00403471067835,633.3181800000001,-10.275020000000012,633.4015260121441,321.63539000000003,-9.118410000000011,321.7646181626877,644.2593800000001,-10.935210000000012,644.3521766361379,319.67014000000006,-6.134119999999996,319.7289881067934,634.3437200000001,-6.804419999999993,634.3802134642717,7.301622000000009,15.676822000000016,113.5282034,3.867702369900354,46.3202805,5.278617803100645,30.108246200000004,8.769234686593757,-0.01473873,-0.24230466,0.065546978316073,0,0
35,1166.6666666666667,492.679,35.011986,0.392631,490.82675,30.588505,0.08664572,492.76144,30.00909,0.40208218,473.49072,29.149635,0.24231254,490.09018,29.271935,0.84323066,462.55127,50.194397,0.9374597,492.41434,49.016903,0.9856044,456.29742,85.605896,0.7284151,501.69968,81.697426,0.96414983,468.41626,105.964874,0.5938919,512.1577,113.94435,0.89421284,472.45688,113.91173,0.9891888,491.16684,114.09093,0.99514836,486.62045,164.45346,0.978685,499.78516,164.52924,0.99099976,484.2653,213.48557,0.9428763,487.4735,216.83217,0.9662352,0.89672154,-0.23803043,0.82315787,-0.26431449,139.22099595295234,177.892720830046,161.59529618341398,157.05779475872697,3.8459845311993455,114.00133,49.60565,35.011986,55.86027999999999,187.682535,0.2976317412931802,-2.2579897575454377,0.7608099582352942,0.4460299999999506,-0.1878039999999998,0.4839556832148537,-317.89688000000007,-20.909433,318.5837891389264,0.3964799999999968,-0.1555140000000001,0.4258884767119175,-317.8032,-21.115922,318.5039341862987,0.3746399999999994,-0.1256370000000011,0.3951452712218632,-320.28288,-20.751876000000003,320.9544571720632,0.3759699999999952,0.2839500000000008,0.4711486425747154,-317.23461000000003,-17.492292,317.71650580551426,0.4573800000000005,0.4334719999999983,0.6301542979175807,-323.86048,-16.360218000000003,324.2734451644752,0.5649099999999976,0.5516369999999995,0.7895737380821355,-321.32196,-12.392476000000002,321.5608425160815,0.3286200000000008,0.8180429999999959,0.8815812238523423,-320.81466,-10.299461000000008,320.9799448062233,0.4532199999999875,-0.1042439999999942,0.4650539537902968,-324.02338,-10.552433999999993,324.19516444566034,-0.0670200000000136,0.895465999999999,0.8979705104044342,-316.72746,-8.387713999999988,316.83850407454804,0.3648400000000151,-1.1874760000000038,1.2422590213703502,-325.75511,-4.918165999999999,325.79223448068194,-0.1621000000000094,1.1494699999999938,1.160843525588177,-317.55124,-7.681620000000009,317.64413627731585,0.2870800000000031,-0.0753099999999875,0.2967937372991551,-318.51162,-8.067659999999975,318.61377750012633,0.3107599999999593,-0.0082139999999952,0.3108685371599619,-318.74736000000007,-6.619107999999997,318.816078794162,1.3540500000000293,-0.6154499999999814,1.487356751085649,-320.4756299999999,4.517330000000044,320.50746589467417,2.1860599999999977,-1.2967800000000125,2.541750713976495,-317.75511000000006,5.045929999999999,317.7951719908234,1.2368000000000166,-0.2089200000000062,1.2543212532680947,-320.39859,8.909490000000005,320.5224414702475,2.693069999999977,-1.5201600000000042,3.092492918423564,-316.9770700000001,4.613959999999992,317.0106489262885,-0.0417620000000056,-7.343384000000015,113.1338104,3.650483979677325,46.5915341,5.435060975313606,30.4685718,8.963429891377581,-0.07418492,-0.232675358,0.0554177966786579,0,0
36,1200.0,492.98795,35.164867,0.37541407,491.24493,30.72855,0.08353403,493.03552,30.197552,0.38730943,473.90753,29.369572,0.2511272,490.561,29.70396,0.8413348,462.56982,50.35286,0.9369887,493.1381,49.686638,0.98504055,456.54276,84.84007,0.7197487,502.00208,82.38898,0.9611263,470.39624,102.861786,0.5808269,511.8562,114.59147,0.88435644,472.1359,113.286736,0.9892792,491.6535,113.68345,0.99509996,486.4448,163.97374,0.9800448,501.36667,164.01233,0.9914302,484.04227,212.3154,0.9480621,490.3165,215.60951,0.96907806,1.05710069,-0.3205673,0.93885687,-0.36502912,132.53712119097142,178.15128038728062,161.39047053915743,156.98856417455627,3.6430303304450473,113.485093,50.019749,35.164867,55.313440000000014,186.239938,0.2970009563845487,-1.2485382446918958,0.7576353788235294,0.3089500000000384,0.1528810000000007,0.3447066907691581,-0.1370799999999121,0.3406850000000005,0.3672290778587342,0.4181800000000066,0.1400449999999971,0.4410069324001662,0.0217000000000098,0.2955589999999972,0.2963545384855761,0.2740800000000263,0.1884620000000012,0.3326225666487691,-0.1005599999999731,0.3140990000000023,0.3298037225396282,0.4168099999999981,0.2199370000000016,0.471277901104008,0.0408400000000028,-0.0640129999999992,0.0759313490529447,0.4708200000000033,0.4320249999999994,0.6389969272422229,0.0134400000000027,-0.0014469999999988,0.0135176702504563,0.0185500000000047,0.1584629999999975,0.1595450559215152,-0.5463599999999929,-0.3931740000000019,0.6731233496737382,0.723760000000027,0.6697350000000029,0.9860900100016444,0.3951400000000262,-0.148307999999993,0.4220555442877378,0.2453399999999987,-0.7658260000000041,0.8041648947050634,-0.2078799999999887,-0.6615820000000099,0.6934730255201051,0.3023999999999773,0.6915540000000107,0.7547798983253337,0.369419999999991,-0.2039119999999883,0.4219611832194859,1.979979999999955,-3.103088,3.680961278816149,1.6151399999999398,-1.915611999999996,2.505642942269267,-0.3014999999999759,0.647120000000001,0.7139093390620316,-0.1393999999999664,-0.5023499999999927,0.5213327943837635,-0.32098000000002,-0.6249940000000009,0.7025992175031325,-0.6080600000000231,-0.5496840000000134,0.8196886381157438,0.4866600000000289,-0.4074800000000067,0.6347266387981788,0.1759000000000696,-0.3992660000000114,0.4362959417139169,-0.1756500000000187,-0.4797200000000146,0.5108661281588559,-1.529700000000048,0.1357299999999668,1.5357098433298322,1.5815099999999802,-0.5169099999999958,1.6638418879809262,-0.6045500000000175,0.7798700000000167,0.9867511942734334,-0.2230300000000511,-1.1701699999999846,1.1912347416861158,-1.4598300000000677,-0.9612499999999784,1.7478859205909738,2.8430000000000177,-1.2226599999999903,3.0947611338518644,0.1499300000000403,0.2975000000000136,0.3331444955271214,-0.5162369999999896,-0.474474999999984,112.677531,3.371037536056515,46.8669364,5.597444530758917,30.7812388,9.125832118180764,-0.1007146299999999,-0.243532886,0.076023512966299,0,0
37,1233.3333333333337,493.45782,35.1277,0.38687968,491.77982,30.72319,0.08743287,493.44006,30.192383,0.40287498,474.50122,29.615486,0.25771132,490.89832,29.915695,0.8504659,462.9496,50.966595,0.9399407,493.523,50.170403,0.9859907,457.26392,85.52375,0.7165998,502.31348,82.8169,0.9613741,471.28433,103.114075,0.57185954,511.4039,114.6965,0.88258576,472.1871,113.12192,0.98996687,491.94046,113.48579,0.9954485,486.57468,162.98737,0.9824876,502.54788,162.8736,0.9925678,484.38773,210.60628,0.9562531,492.8122,213.73436,0.97426957,1.02711212,-0.37976785,0.90078183,-0.3151631,132.10016629260332,179.15476343690756,161.2761436557912,157.04189487662623,3.491299257458111,113.303855,50.568499,35.1277,54.13998000000004,184.118874,0.2940490484747967,-1.4917586168490382,0.7608652229411765,0.4698700000000144,-0.0371670000000037,0.4713376738486049,0.1609199999999759,-0.1900480000000044,0.2490250764561552,0.5348899999999617,-0.0053599999999995,0.534916854940989,0.116709999999955,-0.1454049999999966,0.186450631870714,0.4045399999999972,-0.0051690000000022,0.4045730220380466,0.1304599999999709,-0.1936310000000034,0.2334797116689023,0.593689999999981,0.245913999999999,0.642605253243371,0.1768799999999828,0.0259769999999974,0.1787773445629892,0.3373200000000338,0.2117350000000009,0.3982668610680823,-0.1334999999999695,-0.2202899999999985,0.2575848095288059,0.3797799999999824,0.6137349999999984,0.7217364467899516,0.3612299999999777,0.4552720000000008,0.5811709790448802,0.384900000000016,0.4837649999999982,0.6182043232014887,-0.338860000000011,-0.1859700000000046,0.3865371140007246,0.7211599999999976,0.6836800000000096,0.9937253584366303,0.4758199999999988,1.4495060000000135,1.525605557290625,0.3114000000000487,0.4279200000000003,0.5292310331037199,0.0090000000000713,-0.2636340000000103,0.2637875773345036,0.8880900000000338,0.2522890000000046,0.923229975477975,-1.0918899999999212,3.3553770000000043,3.5285660804679364,-0.4522999999999797,0.1050299999999992,0.4643345678494995,-0.1508000000000038,-0.5420900000000017,0.5626741580168784,0.0511999999999943,-0.1648160000000018,0.1725854972354283,0.3721800000000144,0.4601779999999991,0.5918460476205023,0.286959999999965,-0.197659999999999,0.3484472947232903,-0.1997000000000639,0.2098200000000076,0.2896627735834012,0.1298800000000142,-0.9863699999999938,0.9948842099963148,0.3055300000000329,-0.5066499999999792,0.5916441526796314,1.1812100000000214,-1.1387299999999811,1.6407202921278226,-0.4002999999999588,-0.6218199999999854,0.7395270126235747,0.3454600000000027,-1.7091200000000129,1.743683969645889,0.5684900000000539,-0.5389500000000282,0.7833568679727598,2.4957,-1.8751499999999908,3.1216511676514984,-0.3473000000000183,-0.6524900000000002,0.7391620188429686,-0.1812380000000075,0.334998999999982,112.314968,3.132139816675569,47.2009419,5.795303562988034,30.9965008,9.23430282758128,0.04986602,-0.262005424,0.080797860105847,0,0
38,1266.6666666666663,494.14227,35.019638,0.3045313,492.6146,30.448738,0.050363686,494.03168,30.129555,0.34004983,474.74158,29.711884,0.19087826,491.72025,30.16761,0.8656047,462.00156,50.945953,0.9181448,494.80225,50.142975,0.98848957,458.92834,85.909225,0.6669957,502.91873,83.648125,0.9736549,471.03647,102.58011,0.5643273,510.40112,114.34126,0.9209842,471.25302,112.60791,0.9900181,492.38153,112.76398,0.996467,486.01352,161.72836,0.98859286,503.07977,161.16974,0.9962126,485.77185,208.78708,0.9748482,497.4678,211.4433,0.98762894,0.99047428,-0.36576606,0.8671284,-0.30877632,138.98564283559506,179.9169282744069,162.98044587635005,161.16782061051927,3.145896137647396,112.685945,50.544464000000005,35.019638,51.47278,181.731416,0.2832354517986287,-1.4023504716647386,0.7481054085882353,0.6844499999999698,-0.1080619999999967,0.6929279892917863,0.2145799999999553,-0.070894999999993,0.2259882240847515,0.8347800000000234,-0.2744520000000001,0.8787386122755954,0.2998900000000617,-0.2690920000000005,0.4029199877941491,0.5916199999999776,-0.0628279999999996,0.5949467051627174,0.1870799999999803,-0.0576589999999974,0.1957638543781572,0.2403600000000096,0.0963980000000006,0.2589700832219906,-0.3533299999999713,-0.1495159999999984,0.383662772700166,0.8219300000000089,0.2519150000000003,0.8596685943577413,0.4846099999999751,0.0401799999999994,0.4862728498486995,-0.9480399999999918,-0.0206419999999951,0.9482646960442976,-1.3278199999999742,-0.6343769999999935,1.4715774293352435,1.2792499999999905,-0.0274280000000004,1.27954400380916,0.8943499999999744,-0.5111929999999987,1.030136013227842,1.664420000000007,0.3854749999999995,1.7084744399683078,0.9432600000000092,-0.29820500000001,0.9892753153824388,0.6052499999999554,0.8312249999999892,1.028232737820056,0.2938499999999067,0.4033049999999889,0.499001749019917,-0.2478600000000028,-0.5339649999999949,0.5886876937944228,-1.1359500000000369,-0.7862539999999996,1.381512850108924,-1.0027800000000298,-0.3552399999999949,1.0638435909474926,-0.55048000000005,-0.4602699999999942,0.7175490946966973,-0.9340799999999944,-0.514009999999999,1.0661668380230125,-0.9852799999999888,-0.3491939999999971,1.0453291960124216,0.4410700000000247,-0.7218099999999907,0.845903316579388,0.1541100000000597,-0.5241499999999917,0.5463360820960022,-0.5611599999999726,-1.2590099999999893,1.3784073148746498,-0.6910399999999868,-0.2726399999999955,0.7428787594217372,0.5318899999999758,-1.70386000000002,1.7849498233003758,-0.6493200000000456,-0.565130000000039,0.8608068188043723,1.3841199999999958,-1.819199999999995,2.285886439524057,1.038659999999993,-0.1100799999999821,1.044476999268046,4.655599999999993,-2.291060000000016,5.188792468734898,2.1598999999999933,-0.4159100000000251,2.19957930934531,-0.6179099999999949,-0.4366719999999873,113.503863,0.5584771029813743,49.9318344,0.6922702537272593,35.1047962,0.0851800436672542,0.0063867799999999,-0.28868252,0.0656511044974108,0,0
39,1300.0,494.18085,34.9619,0.28381556,492.8427,30.428917,0.04695972,494.18207,30.11544,0.32348126,475.18304,30.041077,0.19130912,492.36346,30.457481,0.8621104,462.46918,51.37822,0.9110462,495.46967,50.662132,0.9881259,459.70306,86.62225,0.6406297,503.23788,84.392334,0.97256696,472.5409,103.822464,0.5341433,510.563,114.60283,0.91546977,471.67365,112.60953,0.9897015,493.10092,112.81296,0.9964557,485.9296,161.1966,0.98895943,503.76675,160.5104,0.9964353,486.36774,208.56499,0.9769687,500.22443,211.07938,0.9889131,0.97427224,-0.3259715,0.85951339,-0.32277811,138.77554775611338,179.33987996010083,164.17771402849706,163.38822552609267,3.17112335649304,112.711245,51.020176,34.9619,50.85994,181.038303,0.2809346910364339,-1.243084038005045,0.7415936247058824,0.0385800000000244,-0.0577380000000005,0.0694412920674864,-0.6458699999999453,0.0503239999999962,0.6478275710989221,0.2280999999999835,-0.0198210000000003,0.2289595642051069,-0.6066800000000399,0.2546309999999998,0.6579495182466876,0.1503900000000158,-0.0141150000000003,0.1510509361937381,-0.4412299999999618,0.0487129999999993,0.4439108798722624,0.4414600000000064,0.329193,0.5506859021701987,0.2010999999999967,0.2327949999999994,0.3076275703265206,0.6432099999999537,0.2898710000000015,0.7055099579318078,-0.1787200000000552,0.0379560000000012,0.1827060380393046,0.4676200000000108,0.4322669999999959,0.6368070537368494,1.4156600000000026,0.4529089999999911,1.4863444411982705,0.6674199999999928,0.5191569999999999,0.8455610250295305,-0.6118299999999977,0.5465850000000003,0.820421300994189,0.7747200000000021,0.7130249999999876,1.0528987268607486,-0.8897000000000048,0.327549999999988,0.9480796867879834,0.319150000000036,0.7442090000000121,0.8097553693437549,-0.2860999999999194,-0.0870159999999771,0.2990401214819675,1.5044300000000137,1.2423539999999915,1.9510902301574933,1.7522900000000163,1.7763189999999869,2.495161203982823,0.1618799999999964,0.2615699999999918,0.3076101417378734,1.1646600000000262,0.6168099999999868,1.317910274525563,0.4206300000000169,0.0016200000000026,0.4206331195947536,1.3547100000000114,0.5156300000000016,1.449521811150157,0.7193899999999758,0.0489800000000002,0.7210554850356282,0.278319999999951,0.770789999999991,0.8194993877361709,-0.0839200000000346,-0.5317600000000198,0.5383412152158024,0.4772399999999379,0.7272499999999695,0.8698566434188432,0.6869800000000055,-0.659339999999986,0.9521926044661284,0.1550900000000297,1.044520000000034,1.0559710879091722,0.595890000000054,-0.2220900000000085,0.6359314901780443,-0.7882299999999418,1.5971099999999865,1.7810297260292611,2.756629999999973,-0.3639200000000073,2.780547917821208,-1.89897000000002,1.9271400000000083,2.7055416538098447,0.0253000000000014,0.6432099999999963,113.2374936,0.5545941740180539,50.3517076,0.5472207043977898,35.0572182,0.0852932161320866,-0.01400179,-0.315212228,0.0359547227698917,0,0
40,1333.3333333333333,494.99518,34.939774,0.30041358,493.82462,30.449997,0.050103545,494.88324,30.150314,0.35686237,476.2636,30.25444,0.19088422,492.63004,30.609985,0.8772833,462.92972,51.61223,0.90702254,495.98105,51.05683,0.98890126,460.3704,86.15677,0.60506743,503.9664,84.52217,0.9725346,473.2081,102.880905,0.49536923,510.58633,114.81854,0.9120412,472.48737,112.44918,0.9895629,494.0818,112.754944,0.9966042,485.4153,160.93411,0.9897737,504.18848,160.54134,0.9968726,486.3226,207.97638,0.9802269,502.78055,211.06042,0.990824,0.99746526,-0.33186699,0.87474341,-0.34586878,138.25244606525462,178.9050205222055,166.17503191165275,166.46171739115772,3.576329979338464,112.602062,51.33453,34.939774,50.21592999999996,180.910106,0.2775739334452992,-0.9627171173885394,0.7411969161764707,0.814329999999984,-0.022126,0.814630535136005,0.7757499999999595,0.0356120000000004,0.7765669816853774,0.9819200000000023,0.0210800000000013,0.9821462481728496,0.7538200000000188,0.0409010000000016,0.7549287941263259,0.7011699999999905,0.034874000000002,0.702036726087736,0.5507799999999747,0.0489890000000023,0.5529543656767458,1.0805599999999913,0.2133629999999975,1.101423480487401,0.6390999999999849,-0.1158300000000025,0.649511661866037,0.2665800000000331,0.1525040000000004,0.3071194660323858,-0.3766299999999205,-0.1373670000000011,0.4008988021794782,0.4605399999999804,0.2340099999999978,0.5165827830077004,-0.0070800000000303,-0.1982569999999981,0.1983833774513371,0.5113799999999742,0.3946979999999982,0.6459845320160322,-0.1560400000000186,-0.1244590000000016,0.199595902465472,0.6673400000000242,-0.4654799999999994,0.8136426156489297,-0.1073799999999778,-1.178504999999987,1.183386876479947,0.7285200000000032,0.1298359999999974,0.7399991738481901,0.4093699999999671,-0.6143730000000147,0.7382668758849954,0.6671999999999798,-0.941558999999998,1.153988384032079,-0.8372300000000337,-2.18391299999999,2.3388950520425262,0.0233299999999871,0.2157100000000014,0.2169679538549414,-0.1385500000000092,-0.0458599999999904,0.1459425986475563,0.8137199999999893,-0.1603500000000082,0.8293686519877547,0.3930899999999724,-0.1619700000000108,0.4251517717239125,0.9808800000000132,-0.0580160000000091,0.982594235000403,0.2614900000000375,-0.1069960000000094,0.2825334743283026,-0.5142999999999915,-0.2624899999999854,0.5774127554011806,-0.4303799999999569,0.2692700000000343,0.507674381173584,0.421730000000025,0.0309399999999868,0.4228634253515197,-0.2652499999999804,0.6902799999999729,0.7394890404190938,-0.0451400000000035,-0.5886099999999885,0.59033833663416,-0.6410300000000575,-0.36651999999998,0.7384147691508202,2.5561200000000213,-0.0189599999999927,2.5561903168582947,-0.2005099999999515,0.3449600000000146,0.3990008291971216,-0.1091830000000158,-0.1344830000000172,112.95764,0.4059051233256053,50.6974836,0.5023282576738239,35.0427758,0.0997547047519796,-0.0230906699999999,-0.3315230859999999,0.0233986771066781,0,0
