frame_id,timestamp_ms,nose_x,nose_y,nose_conf,left_eye_x,left_eye_y,left_eye_conf,right_eye_x,right_eye_y,right_eye_conf,left_ear_x,left_ear_y,left_ear_conf,right_ear_x,right_ear_y,right_ear_conf,left_shoulder_x,left_shoulder_y,left_shoulder_conf,right_shoulder_x,right_shoulder_y,right_shoulder_conf,left_elbow_x,left_elbow_y,left_elbow_conf,right_elbow_x,right_elbow_y,right_elbow_conf,left_wrist_x,left_wrist_y,left_wrist_conf,right_wrist_x,right_wrist_y,right_wrist_conf,left_hip_x,left_hip_y,left_hip_conf,right_hip_x,right_hip_y,right_hip_conf,left_knee_x,left_knee_y,left_knee_conf,right_knee_x,right_knee_y,right_knee_conf,left_ankle_x,left_ankle_y,left_ankle_conf,right_ankle_x,right_ankle_y,right_ankle_conf,acc_x,acc_y,acc_z,acc_mag,left_elbow_angle,right_elbow_angle,left_knee_angle,right_knee_angle,spine_angle,hip_height,shoulder_height,head_height,bbox_width,bbox_height,bbox_aspect_ratio,shoulder_tilt,avg_confidence,nose_vx,nose_vy,nose_speed,nose_ax,nose_ay,nose_accel,left_eye_vx,left_eye_vy,left_eye_speed,left_eye_ax,left_eye_ay,left_eye_accel,right_eye_vx,right_eye_vy,right_eye_speed,right_eye_ax,right_eye_ay,right_eye_accel,left_ear_vx,left_ear_vy,left_ear_speed,left_ear_ax,left_ear_ay,left_ear_accel,right_ear_vx,right_ear_vy,right_ear_speed,right_ear_ax,right_ear_ay,right_ear_accel,left_shoulder_vx,left_shoulder_vy,left_shoulder_speed,left_shoulder_ax,left_shoulder_ay,left_shoulder_accel,right_shoulder_vx,right_shoulder_vy,right_shoulder_speed,right_shoulder_ax,right_shoulder_ay,right_shoulder_accel,left_elbow_vx,left_elbow_vy,left_elbow_speed,left_elbow_ax,left_elbow_ay,left_elbow_accel,right_elbow_vx,right_elbow_vy,right_elbow_speed,right_elbow_ax,right_elbow_ay,right_elbow_accel,left_wrist_vx,left_wrist_vy,left_wrist_speed,left_wrist_ax,left_wrist_ay,left_wrist_accel,right_wrist_vx,right_wrist_vy,right_wrist_speed,right_wrist_ax,right_wrist_ay,right_wrist_accel,left_hip_vx,left_hip_vy,left_hip_speed,left_hip_ax,left_hip_ay,left_hip_accel,right_hip_vx,right_hip_vy,right_hip_speed,right_hip_ax,right_hip_ay,right_hip_accel,left_knee_vx,left_knee_vy,left_knee_speed,left_knee_ax,left_knee_ay,left_knee_accel,right_knee_vx,right_knee_vy,right_knee_speed,right_knee_ax,right_knee_ay,right_knee_accel,left_ankle_vx,left_ankle_vy,left_ankle_speed,left_ankle_ax,left_ankle_ay,left_ankle_accel,right_ankle_vx,right_ankle_vy,right_ankle_speed,right_ankle_ax,right_ankle_ay,right_ankle_accel,hip_velocity,hip_acceleration,hip_height_mean_5,hip_height_std_5,shoulder_height_mean_5,shoulder_height_std_5,head_height_mean_5,head_height_std_5,acc_mag_diff,acc_mag_mean_5,acc_mag_std_5,label_binary,label_3class
0,0.0,551.03644,114.4539,0.84358215,553.2282,110.14788,0.8352476,550.6194,111.29243,0.3517824,564.2937,107.63936,0.876822,558.15814,109.71576,0.14328372,582.45593,124.55173,0.994926,566.1582,122.26865,0.9600339,586.89996,156.21304,0.9919886,558.16974,144.03848,0.87229717,555.72424,163.57867,0.98386544,540.4528,152.42802,0.86736786,581.7346,172.80638,0.9954814,572.0598,167.84108,0.98771,540.026,174.45204,0.98980576,532.13025,168.9474,0.9719902,541.06866,219.54007,0.9616353,537.17334,211.57376,0.93131185,1.06082045,-0.87744551,0.58905776,-0.09187139,95.30311564515247,135.4897182370994,90.93476985572906,84.83982342528664,3.1601606991719624,170.32373,123.41019,114.4539,54.76970999999992,111.90071,0.4894491689154676,-172.025570065473,0.8564194911764705,0.0,0.0,0.0,0.0,0.0,0.0,0.0,0.0,0.0,0.0,0.0,0.0,0.0,0.0,0.0,0.0,0.0,0.0,0.0,0.0,0.0,0.0,0.0,0.0,0.0,0.0,0.0,0.0,0.0,0.0,0.0,0.0,0.0,0.0,0.0,0.0,0.0,0.0,0.0,0.0,0.0,0.0,0.0,0.0,0.0,0.0,0.0,0.0,0.0,0.0,0.0,0.0,0.0,0.0,0.0,0.0,0.0,0.0,0.0,0.0,0.0,0.0,0.0,0.0,0.0,0.0,0.0,0.0,0.0,0.0,0.0,0.0,0.0,0.0,0.0,0.0,0.0,0.0,0.0,0.0,0.0,0.0,0.0,0.0,0.0,0.0,0.0,0.0,0.0,0.0,0.0,0.0,0.0,0.0,0.0,0.0,0.0,0.0,0.0,0.0,0.0,0.0,0.0,0.0,170.32373,0.0,123.41019,0.0,114.4539,0.0,0.0,-0.09187139,0.0,0,0
1,33.333333333333336,549.63403,114.88771,0.88502944,552.1926,110.48068,0.87876445,548.8036,111.766174,0.44906932,563.8501,107.94693,0.89427006,555.42053,110.43629,0.17263575,581.7366,125.124084,0.99541414,563.79205,123.38434,0.9651813,585.69196,156.83553,0.99163884,556.01666,145.40703,0.8744941,554.2291,163.8047,0.9831697,538.3333,153.67554,0.86708665,581.1543,172.38652,0.99497706,570.3273,167.59692,0.9866601,539.8371,174.24908,0.9887001,531.09875,168.35956,0.9695404,542.30536,219.8805,0.9583178,538.4334,211.14062,0.92645025,1.03976886,-0.86025033,0.58217969,-0.04642699,95.37985445204832,134.50640645552602,89.48493706686338,81.38518414710185,3.7234253245577777,169.99172,124.254212,114.88771,54.59321,111.93357000000002,0.4877286547036009,-174.46241763292912,0.869494085882353,-1.402409999999918,0.433809999999994,1.467973066578459,-1.402409999999918,0.433809999999994,1.467973066578459,-1.035600000000045,0.332800000000006,1.087760635434146,-1.035600000000045,0.332800000000006,1.087760635434146,-1.815800000000081,0.4737440000000106,1.8765828032720284,-1.815800000000081,0.4737440000000106,1.8765828032720284,-0.4435999999999467,0.3075699999999983,0.5397965032305709,-0.4435999999999467,0.3075699999999983,0.5397965032305709,-2.737610000000018,0.7205299999999966,2.8308429827526806,-2.737610000000018,0.7205299999999966,2.8308429827526806,-0.7193300000000136,0.57235399999999,0.9192522777866848,-0.7193300000000136,0.57235399999999,0.9192522777866848,-2.366149999999948,1.1156900000000007,2.6159950303086883,-2.366149999999948,1.1156900000000007,2.6159950303086883,-1.20799999999997,0.6224899999999991,1.3589546718341736,-1.20799999999997,0.6224899999999991,1.3589546718341736,-2.1530800000000454,1.368549999999999,2.551211984312592,-2.1530800000000454,1.368549999999999,2.551211984312592,-1.495139999999992,0.2260300000000086,1.5121286917785737,-1.495139999999992,0.2260300000000086,1.5121286917785737,-2.1195000000000164,1.2475200000000086,2.4593874034808123,-2.1195000000000164,1.2475200000000086,2.4593874034808123,-0.5802999999999656,-0.4198599999999999,0.7162614813041115,-0.5802999999999656,-0.4198599999999999,0.7162614813041115,-1.732499999999959,-0.2441599999999937,1.7496200603559209,-1.732499999999959,-0.2441599999999937,1.7496200603559209,-0.1888999999999896,-0.2029600000000186,0.27726516477914,-0.1888999999999896,-0.2029600000000186,0.27726516477914,-1.031500000000051,-0.5878399999999999,1.18724391579831,-1.031500000000051,-0.5878399999999999,1.18724391579831,1.236699999999928,0.3404300000000262,1.2827000720744657,1.236699999999928,0.3404300000000262,1.2827000720744657,1.260059999999953,-0.4331399999999803,1.3324269072635333,1.260059999999953,-0.4331399999999803,1.3324269072635333,-0.3320100000000252,-0.3320100000000252,170.157725,0.2347665224217635,123.832201,0.5968136796706289,114.670805,0.306749992746532,0.0454443999999999,-0.06914919,0.0321340434069539,0,0
2,66.66666666666667,548.6806,115.27602,0.8697953,550.9592,110.87905,0.8642656,547.9788,112.20429,0.4104319,561.9807,107.97151,0.890466,555.08936,110.43254,0.16538192,580.05884,124.81363,0.9954099,563.09515,122.78349,0.96362275,583.71826,156.8246,0.99196726,555.52136,144.99619,0.8706903,553.9739,163.92184,0.9831593,537.63715,153.13196,0.86139214,580.3076,173.12079,0.99526286,570.1832,168.31294,0.9870979,538.696,176.12106,0.98927593,530.5518,169.31088,0.9702277,544.5952,221.27744,0.96039736,540.1727,210.59235,0.9289291,1.06207106,-0.86835663,0.6114115,-0.01129969,96.89868345012124,133.2890973370866,86.68105828676,78.3234744398562,4.470709636007834,170.71686499999998,123.79856,115.27602,53.16646000000003,113.30593000000002,0.469229276267983,-173.1755494549986,0.8645748952941177,-0.9534300000000258,0.3883100000000041,1.029472399338638,0.4489799999998922,-0.0454999999999898,0.4512796144297926,-1.2333999999999603,0.3983699999999999,1.2961381935966174,-0.1977999999999156,0.0655699999999939,0.2083848960456727,-0.824799999999982,0.4381159999999937,0.933938257839331,0.9910000000000992,-0.0356280000000168,0.9916402343512478,-1.8694000000000413,0.0245800000000002,1.8695615893572897,-1.4258000000000948,-0.2829899999999981,1.45361238991014,-0.3311699999999291,-0.0037499999999965,0.3311912308621003,2.4064400000000887,-0.7242799999999932,2.513072818682423,-1.677759999999921,-0.3104539999999929,1.7062415724966178,-0.9584299999999076,-0.8828079999999829,1.3030495116317693,-0.6969000000000278,-0.6008499999999941,0.920157775873264,1.66924999999992,-1.7165399999999948,2.394348582412284,-1.973700000000008,-0.0109300000000018,1.9737302639672,-0.765700000000038,-0.633420000000001,0.993739093726346,-0.4953000000000429,-0.410839999999979,0.643515031370694,1.6577800000000025,-1.779389999999978,2.4319669612270496,-0.2552000000000589,0.1171400000000062,0.2808003198004438,1.2399399999999332,-0.1088900000000023,1.2447121095658364,-0.6961499999999887,-0.5435800000000199,0.883234985097401,1.4233500000000276,-1.7911000000000286,2.2877859236607305,-0.8467000000000553,0.7342700000000093,1.1207378475362144,-0.2664000000000897,1.1541300000000092,1.1844766848275523,-0.1440999999999803,0.7160199999999861,0.7303762389344101,1.5883999999999787,0.9601799999999798,1.8560603956767927,-1.1410999999999376,1.871980000000008,2.192354517499368,-0.952199999999948,2.0749400000000264,2.282993833456413,-0.546950000000038,0.9513200000000096,1.0973440868296782,0.4845500000000129,1.5391600000000096,1.613630133611802,2.2898400000000265,1.3969400000000007,2.6823140362754176,1.0531400000000986,1.0565099999999743,1.4917497242165505,1.7392999999999574,-0.5482700000000023,1.823667865292322,0.4792400000000043,-0.1151300000000219,0.4928751307380087,0.7251449999999977,1.057155000000023,170.34410499999998,0.3630016160088014,123.82098733333332,0.4224577175071266,114.87254333333334,0.4112697951872117,0.0351273,-0.0498660233333333,0.0403957909060255,0,0
3,100.0,548.6927,115.37999,0.86246884,550.8855,110.90875,0.84562564,547.57556,112.37862,0.4178382,561.1043,107.89975,0.8722969,553.62494,110.692955,0.18110241,579.44135,124.741486,0.9947936,560.9698,122.970245,0.9667626,583.14264,157.26534,0.9908477,553.29297,145.49753,0.8867846,552.4212,164.16736,0.98136854,534.42487,154.32469,0.87398714,580.45197,173.16982,0.99517536,569.3831,168.54765,0.9882039,538.3963,176.28116,0.98930174,529.8303,169.29794,0.9730973,545.8345,221.37033,0.96168256,541.6546,210.41412,0.9353265,1.05135453,-0.85067016,0.61779828,-0.00564985,96.16963027405562,133.88988632355873,84.86360412790532,75.04241488695972,5.724693275477317,170.858735,123.8558655,115.37999,53.31234000000006,113.47058,0.4698340268478934,-174.52264209184952,0.86568609,0.0120999999999185,0.1039700000000038,0.1046717292300019,0.9655299999999444,-0.2843400000000002,1.0065274047436028,-0.0737000000000307,0.0296999999999911,0.0794592977568012,1.1596999999999298,-0.3686700000000087,1.216890158929656,-0.4032399999999825,0.1743299999999976,0.4393101939404378,0.4215599999999995,-0.2637859999999961,0.497288535355479,-0.8763999999999896,-0.0717599999999976,0.8793329617386019,0.9930000000000518,-0.0963399999999978,0.997662465766906,-1.4644200000000185,0.2604149999999947,1.4873943352806782,-1.1332500000000891,0.2641649999999913,1.1636316898938417,-0.6174899999999752,-0.0721440000000086,0.6216901614437618,1.060269999999946,0.2383099999999842,1.086721734852063,-2.125350000000026,0.1867550000000051,2.13353932528208,-1.428449999999998,0.7876049999999992,1.6311931334225855,-0.575619999999958,0.4407400000000052,0.7249759527046096,1.39808000000005,0.4516700000000071,1.4692288709728467,-2.2283899999999903,0.501339999999999,2.2840892687677417,-1.7330899999999474,0.912179999999978,1.9584875032789404,-1.552699999999959,0.245519999999999,1.5719915268219076,-1.2974999999999,0.1283799999999928,1.3038357543800287,-3.2122799999999643,1.1927300000000116,3.4265649930068154,-2.516129999999976,1.7363100000000316,3.0570709172343364,0.1443699999999808,0.0490299999999876,0.1524684813330061,0.991070000000036,-0.6852400000000216,1.204895681169163,-0.8001000000000431,0.2347100000000068,0.833815803460256,-0.6560000000000628,-0.4813099999999792,0.8136309458839814,-0.2997000000000298,0.1600999999999999,0.3397824303874728,0.8413999999999078,-1.7118800000000078,1.9074818726268072,-0.7214999999999918,-0.0129399999999861,0.7216160292011173,-0.1745499999999538,-0.964259999999996,0.9799311455913502,1.2393000000000711,0.0928899999999828,1.2427763443597457,-1.0505399999999554,-1.304050000000018,1.6745688084100794,1.481899999999996,-0.1782300000000134,1.492579492991912,-0.2573999999999614,0.3700399999999888,0.450759760404555,0.1418700000000115,-0.5832749999999862,170.4727625,0.3925019635301252,123.829706875,0.3453758392655662,114.999405,0.4208769727208469,0.00564984,-0.0388119799999999,0.0397070200931321,0,0
4,133.33333333333334,546.5357,115.93523,0.8250252,548.3277,111.534096,0.80686116,545.74445,113.03351,0.3419089,557.9047,108.48874,0.86019975,552.57184,111.27595,0.15748204,576.8672,125.05682,0.99466246,559.14734,123.10556,0.9622558,581.53894,157.42578,0.99155575,551.15216,144.87314,0.88039196,551.89746,167.22661,0.9820593,532.1119,155.3237,0.86781466,578.1885,174.4379,0.99559903,567.812,169.99146,0.9886553,538.22943,177.95604,0.9898224,530.66614,171.04622,0.9731746,547.404,221.28427,0.9629898,543.2915,210.02411,0.9356125,1.03282878,-0.8243861,0.62197425,0.01645824,100.08358872412914,138.9290689579896,83.07600535409037,73.67878216190252,5.9222323809839015,172.21468,124.08119,115.93523,50.872799999999984,112.79553,0.4510178687841807,-173.71607117950094,0.8538865064705883,-2.1569999999999254,0.5552399999999977,2.227316874088569,-2.169099999999844,0.4512699999999938,2.21554494941974,-2.557799999999929,0.6253460000000075,2.6331347211480933,-2.4840999999998985,0.5956460000000163,2.55451501606773,-1.831109999999967,0.6548900000000089,1.944696568670776,-1.4278699999999844,0.4805600000000112,1.5065691655214393,-3.1995999999999185,0.5889900000000097,3.253359706534076,-2.323199999999929,0.6607500000000073,2.415336167596486,-1.053100000000086,0.5829949999999968,1.203703775862308,0.4113199999999324,0.3225800000000021,0.5227255482563921,-2.5741500000000315,0.3153340000000071,2.593392325518097,-1.956660000000056,0.3874780000000157,1.9946572527841049,-1.8224599999999784,0.1353149999999914,1.827476566422924,0.3028900000000476,-0.0514400000000137,0.3072269937685005,-1.6037000000000037,0.1604399999999941,1.6117055201245696,-1.0280800000000454,-0.2803000000000111,1.065606201370891,-2.140809999999988,-0.6243900000000053,2.230006800034465,0.0875800000000026,-1.1257300000000043,1.1291316527757116,-0.5237399999999752,3.059249999999992,3.1037580688739133,1.0289599999999837,2.8137299999999925,2.99596982536539,-2.312970000000064,0.9990099999999984,2.5194942351591703,0.8993099999999004,-0.1937200000000132,0.9199379949213022,-2.263469999999984,1.268080000000026,2.5944793942716124,-2.4078399999999647,1.2190500000000384,2.698847229485197,-1.5711000000000013,1.443809999999985,2.1337625280475705,-0.7709999999999582,1.209099999999978,1.4340027231493957,-0.1668700000000171,1.6748800000000017,1.6831721870622778,0.1328300000000126,1.5147800000000018,1.5205927322264858,0.8358400000000756,1.748279999999994,1.9378109980078309,1.5573400000000674,1.7612199999999802,2.3510005878349203,1.5694999999999482,-0.0860600000000033,1.5718576823618091,0.330199999999877,-0.1789499999999861,0.3755730854306707,1.6369000000000824,-0.3900099999999895,1.6827208354626924,0.1550000000000864,-0.2117799999999761,0.2624419333872098,1.3559449999999913,1.2140749999999798,170.821146,0.8499403854932989,123.8800035,0.3195498477440537,115.18657,0.5549835634953503,0.0221080899999999,-0.027757936,0.0423490853180677,0,0
5,166.66666666666666,543.98804,116.69835,0.8459361,545.9014,112.31673,0.83132756,543.08905,113.84741,0.37585577,555.38635,108.93238,0.87273294,549.48145,111.773285,0.1662748,574.9106,125.024475,0.99527776,556.25604,123.874435,0.96494573,581.3717,158.02115,0.99216706,548.40125,146.69646,0.8819766,552.29785,170.09601,0.98276466,528.36334,158.8359,0.8674829,578.59015,175.21854,0.9959716,567.6184,171.32317,0.98940814,538.3075,179.12238,0.99070907,529.6531,173.38753,0.9749088,549.2346,221.9305,0.9661926,544.27747,212.30313,0.94013494,1.03961056,-0.82733384,0.62909797,0.02333632,101.47498863380396,140.2006988928103,81.21590538149363,72.51631316414357,8.757599932725237,173.27085499999998,124.449455,116.69835,53.00836000000004,112.99812,0.4691083314562376,-176.47222178007445,0.8608274723529412,-2.5476600000000644,0.7631200000000007,2.659496871590626,-0.390660000000139,0.2078800000000029,0.4425260783277183,-2.426300000000083,0.7826340000000016,2.5494014332694657,0.1314999999998463,0.1572879999999941,0.2050164991993515,-2.655399999999986,0.8138999999999896,2.77733367998876,-0.8242900000000191,0.1590099999999807,0.8394868576696275,-2.518350000000055,0.4436399999999878,2.557127914692628,0.6812499999998636,-0.1453500000000218,0.6965832218764823,-3.0903899999999567,0.4973350000000067,3.1301521455553463,-2.037289999999871,-0.08565999999999,2.0390900371733154,-1.9565999999999804,-0.0323450000000065,1.9568673330159416,0.6175500000000511,-0.3476790000000136,0.7086950610390005,-2.891300000000001,0.7688750000000084,2.991786164755934,-1.0688400000000229,0.633560000000017,1.2425044141571773,-0.1672399999999925,0.5953700000000026,0.6184130128805511,1.436460000000011,0.4349300000000085,1.5008602321668858,-2.750909999999976,1.8233199999999956,3.300303266443836,-0.6100999999999885,2.4477100000000007,2.522599106893521,0.4003900000000158,2.869400000000013,2.8972001159913146,0.924129999999991,-0.1898499999999785,0.943429530701671,-3.7485599999999977,3.512200000000007,5.136852237859293,-1.4355899999999338,2.5131900000000087,2.894312115892109,0.4016500000000178,0.7806399999999769,0.8779074735414765,2.6651200000000017,-0.4874400000000491,2.70932876705653,-0.1936000000000604,1.3317100000000153,1.345708915070441,1.3774999999999409,-0.1120999999999696,1.3820537833238729,0.0780700000000251,1.166339999999991,1.1689499221523492,0.2449400000000423,-0.5085400000000107,0.5644541922955587,-1.0130400000000463,2.341309999999993,2.551074784811308,-1.848880000000122,0.5930299999999988,1.941659557002836,1.830600000000004,0.6462300000000027,1.941316453569592,0.2611000000000558,0.7322900000000061,0.777445724214905,0.985969999999952,2.2790200000000027,2.483157063357032,-0.6509300000001303,2.669029999999992,2.7472588166752927,1.056174999999996,-0.2997699999999952,171.41057099999998,1.3139765018894014,124.0878565,0.2720222228044949,115.63546,0.7023512835469182,0.00687808,-0.004716394,0.0274741006804704,0,0
6,200.0,541.5481,117.87776,0.91013247,543.8649,113.19321,0.89775103,540.5541,114.82298,0.5351555,553.5704,109.6882,0.89850974,546.45917,112.63475,0.24533066,572.914,125.37593,0.99574727,553.18964,125.530914,0.9753245,581.185,157.37715,0.9905461,544.1601,147.77505,0.8919654,551.1143,171.454,0.98082787,525.4572,160.06273,0.88015485,578.6068,175.06584,0.9951527,566.6923,172.11903,0.98843795,540.77014,181.67899,0.9901181,531.1676,178.67989,0.97639716,550.7603,219.80722,0.96585286,546.29736,213.8754,0.9453778,1.04871542,-0.83101852,0.63892379,0.03144262,100.5939969644636,145.3983059523093,85.23180839070437,77.20195226250915,11.275517983900004,173.59243500000002,125.453422,117.87776,55.7278,110.11902,0.5060687926021428,179.54980813829437,0.8860459976470587,-2.4399399999999787,1.17940999999999,2.7100396955948582,0.1077200000000857,0.4162899999999894,0.4300011191846012,-2.0364999999999327,0.8764799999999866,2.2171038406894032,0.3898000000001502,0.093845999999985,0.4009377903317599,-2.5349500000000944,0.9755700000000048,2.716193720521511,0.1204499999998915,0.161670000000015,0.201607022199076,-1.8159500000000437,0.7558199999999999,1.9669616861800223,0.7024000000000115,0.3121800000000121,0.7686495380861318,-3.0222800000000234,0.8614649999999955,3.1426578472091315,0.0681099999999332,0.3641299999999887,0.3704451767805632,-1.9966000000000577,0.3514550000000014,2.027296765899169,-0.0400000000000773,0.3838000000000079,0.3858787892590266,-3.0663999999999305,1.6564789999999905,3.4852161536181,-0.1750999999999294,0.8876039999999819,0.9047103795226088,-0.1867000000000871,-0.6440000000000055,0.6705168827106739,-0.0194600000000946,-1.239370000000008,1.2395227664307031,-4.241149999999948,1.0785899999999913,4.376152386583395,-1.4902399999999716,-0.7447300000000041,1.6659645946117585,-1.183550000000082,1.357990000000001,1.8013682140529172,-1.5839400000000978,-1.511410000000012,2.189343762797507,-2.9061400000000503,1.2268299999999783,3.154482770360339,0.8424199999999473,-2.2853700000000288,2.435690352507897,0.0166500000000269,-0.1526999999999816,0.1536050536277869,-0.3849999999999909,-0.9333399999999584,1.009627929288763,-0.9260999999999058,0.7958600000000047,1.2210873636230262,-0.7324999999998454,-0.5358500000000106,0.9075744996967384,2.462639999999965,2.5566100000000063,3.5497676630590718,2.38456999999994,1.3902700000000152,2.7602580962293644,1.5144999999999982,5.292360000000002,5.504796510280831,2.5275400000000445,2.9510500000000093,3.885505701205479,1.525700000000029,-2.123279999999994,2.614589537269677,-0.3048999999999751,-2.769509999999997,2.7862429273306315,2.019890000000032,1.5722700000000032,2.5596852472521188,1.03392000000008,-0.7067499999999995,1.252392162583336,0.3215800000000399,-0.7345949999999561,172.13071399999998,1.328580035425058,124.3276985,0.6792382528222283,116.23347,1.0786436771473722,0.0081062999999999,0.010857528,0.0185355744129301,0,0
7,233.3333333333333,537.816,118.90619,0.9177724,540.2609,114.30876,0.912503,536.5528,115.839966,0.5475211,550.05457,111.03015,0.91490644,541.7984,113.89018,0.2404436,570.5473,126.43396,0.99649054,549.6161,127.008545,0.9752236,580.3083,158.19438,0.99190485,542.99286,149.79346,0.88259673,549.8947,172.42557,0.9825638,525.3508,162.21225,0.8700999,579.89844,173.67885,0.99582434,566.9634,170.75397,0.9890904,542.0424,182.55139,0.99170095,529.89,178.21828,0.9781431,554.555,220.7448,0.971338,547.6765,212.27826,0.9514154,1.10421754,-0.87646293,0.67159463,0.00835194,97.99204460874924,141.3512670746077,85.05126422509319,73.80960126135435,16.352783593107727,172.21641,126.7212525,118.90619,54.95749999999998,109.71465,0.5009130457882055,178.42756125922898,0.8887963617647059,-3.732099999999946,1.0284300000000002,3.871206359121094,-1.2921599999999671,-0.1509799999999899,1.3009505855334829,-3.604000000000042,1.1155500000000131,3.772700332984364,-1.5675000000001091,0.2390700000000265,1.5856262847532376,-4.001299999999901,1.0169860000000028,4.128518162028019,-1.4663499999998066,0.0414159999999981,1.4669347659509038,-3.515829999999937,1.3419500000000113,3.763228718985811,-1.6998799999998937,0.5861300000000114,1.7980935435342766,-4.660769999999957,1.255430000000004,4.826891492233859,-1.6384899999999334,0.3939650000000085,1.6851877940825433,-2.366700000000037,1.0580300000000022,2.5924305913370524,-0.3700999999999794,0.7065750000000008,0.7976354058246073,-3.5735400000000936,1.4776310000000024,3.8669861007975808,-0.5071400000001631,-0.1788479999999879,0.5377523470001421,-0.8766999999999143,0.817229999999995,1.1985273308939774,-0.6899999999998272,1.4612300000000005,1.6159496009776304,-1.1672400000001062,2.018410000000017,2.331614922258887,3.0739099999998416,0.939820000000026,3.2143715280749787,-1.219600000000014,0.9715699999999856,1.5592858701662138,-0.0360499999999319,-0.3864200000000153,0.3880979501363115,-0.1063999999998941,2.149520000000024,2.1521517582178262,2.799740000000156,0.9226900000000456,2.947863786490305,1.2916400000000294,-1.3869899999999973,1.8952770640990904,1.2749900000000025,-1.2342900000000157,1.7745622852410805,0.271099999999933,-1.3650599999999995,1.3917198042709469,1.1971999999998388,-2.1609200000000044,2.4703973539492856,1.272260000000074,0.872399999999999,1.5426364664431431,-1.190379999999891,-1.684210000000007,2.062417966489762,-1.2776000000000067,-0.4616100000000074,1.3584349642511502,-2.792100000000005,-5.75397000000001,6.395622969727041,3.7946999999999207,0.937579999999997,3.908811116746292,2.268999999999892,3.060859999999991,3.8101476270086247,1.3791400000000067,-1.5971400000000244,2.110185612499549,-0.6407500000000255,-3.169410000000028,3.2335306262041508,-1.376025000000027,-1.6976050000000669,172.43062300000005,1.074610093281534,124.912237,1.1817513830339366,116.959504,1.43570397184796,-0.0230906799999999,0.014787854,0.0142510387749798,0,0
8,266.6666666666667,533.3876,120.2905,0.8837598,535.17816,115.81625,0.87725806,532.3608,117.46752,0.44090095,543.9927,112.12576,0.8998591,538.2374,115.145035,0.19981292,565.3385,126.29909,0.99615544,546.89075,126.98018,0.9712676,576.78375,158.84549,0.9924184,540.6285,149.9014,0.88068026,547.6258,173.98703,0.9834849,523.9213,162.80104,0.8710526,579.513,170.99007,0.99644154,568.3627,168.76161,0.99048656,541.00494,181.56378,0.9931212,531.4541,179.6239,0.9814337,555.22394,217.91078,0.97598207,549.2025,212.70206,0.9584678,1.11763389,-0.90643167,0.65317122,0.02923181,98.0678612217548,142.95248115044328,83.9885968632382,78.18307942910126,22.40288831975268,169.87583999999998,126.639635,120.2905,55.59170000000006,105.78502,0.5255158005782319,177.88560305913612,0.8760342882352941,-4.4284000000000106,1.3843099999999993,4.639724209055975,-0.6963000000000648,0.3558799999999991,0.7819745931934678,-5.082739999999944,1.50748999999999,5.301582028762679,-1.4787399999999025,0.3919399999999768,1.5298002978165788,-4.192000000000007,1.6275539999999893,4.496865132835987,-0.1907000000001062,0.6105679999999865,0.6396559799017156,-6.061869999999999,1.0956099999999935,6.160083535878387,-2.546040000000062,-0.2463400000000177,2.557929451177324,-3.5610000000000355,1.254854999999992,3.775630023059097,1.0997699999999213,-0.0005750000000119,1.0997701503154316,-5.2087999999999965,-0.1348699999999922,5.210545783015438,-2.8420999999999594,-1.1928999999999943,3.082295057258431,-2.725349999999935,-0.0283649999999937,2.7254976051584863,0.8481900000001588,-1.505995999999996,1.7284242037521511,-3.5245499999999765,0.651110000000017,3.584187067467301,-2.647850000000062,-0.166119999999978,2.6530558751937967,-2.36435999999992,0.107939999999985,2.366822607040844,-1.1971199999998134,-1.910470000000032,2.254549160098239,-2.268899999999917,1.561460000000011,2.75428112973234,-1.0492999999999029,0.5898900000000253,1.2037444504959622,-1.4295000000000757,0.5887899999999888,1.5460090278197611,-1.3231000000001814,-1.560730000000035,2.046086934345799,-0.3854400000000169,-2.6887800000000084,2.7162661655294493,-1.6770800000000463,-1.301790000000011,2.123029564207758,1.3993000000000393,-1.9923600000000192,2.4346537453198938,1.1282000000001062,-0.6273000000000195,1.290868130368189,-1.03746000000001,-0.9876099999999894,1.432374519355884,-2.309720000000084,-1.8600099999999884,2.9655427291644854,1.5641000000000531,1.405619999999999,2.1028971430862144,2.84170000000006,1.8672300000000064,3.4002656900454653,0.6689400000000205,-2.834020000000009,2.911898020879179,-3.1257599999999,-3.7716000000000074,4.8985040714078645,1.5259999999999536,0.4237999999999999,1.5837558018835665,0.1468599999999469,2.0209400000000244,2.0262690697930723,-2.340570000000014,-0.9645449999999868,172.23404399999998,1.456194972065066,125.4689909,1.2149335273767248,117.941606,1.73371218509014,0.02087987,0.0217641859999999,0.0094861807901167,0,0
9,300.0,530.16113,123.17392,0.8459165,531.3178,118.68784,0.8407848,529.17596,120.68686,0.35570845,539.16675,113.883514,0.88233566,535.1863,117.71106,0.16358162,560.8093,125.602356,0.99559045,544.1721,128.11185,0.9627001,574.17413,157.04999,0.9927199,537.9222,151.56819,0.8638917,547.42773,174.85483,0.98405886,521.39197,166.60078,0.85982525,578.0818,169.42026,0.99638426,568.3371,168.6202,0.9896515,540.059,181.3863,0.99293125,533.1522,182.72054,0.97955704,555.8156,217.27588,0.9746003,550.7714,215.88577,0.9538108,1.12207333,-0.9049578,0.66029494,0.06411346,100.62649988735214,147.2031126753162,83.76623962573392,83.85872688100825,26.169273738523916,169.02023000000003,126.857103,123.17392,56.68983000000003,103.392366,0.5482980189437004,171.42237704245045,0.8608263788235294,-3.226470000000063,2.883420000000001,4.327149125844915,1.2019299999999475,1.4991100000000015,1.921449066980408,-3.8603600000000142,2.8715899999999976,4.8112792953330095,1.22237999999993,1.3641000000000076,1.8316609059538969,-3.1848400000000083,3.2193400000000025,4.528504815190116,1.007159999999999,1.5917860000000132,1.8836544097567471,-4.825950000000034,1.7577540000000056,5.136097013006701,1.2359199999999646,0.6621440000000121,1.4021173000629898,-3.0511000000000195,2.5660250000000104,3.986689793628941,0.509900000000016,1.3111700000000184,1.4068279137478277,-4.529199999999946,-0.6967340000000064,4.582476503677408,0.6796000000000504,-0.5618640000000141,0.8817864336085491,-2.718650000000025,1.1316699999999995,2.9447809445526056,0.0066999999999097,1.1600349999999937,1.160054348392774,-2.609620000000064,-1.795500000000004,3.1676389936986737,0.914929999999913,-2.446610000000021,2.612086789714297,-2.706300000000056,1.6667899999999918,3.1784034662232976,-0.341940000000136,1.5588500000000067,1.595912367926295,-0.1980700000000297,0.8677999999999884,0.8901171635801612,2.070829999999887,-0.6936600000000226,2.1839187449398305,-2.529329999999959,3.7997399999999857,4.564595745134468,-1.0998299999998835,3.210949999999997,3.394086906871968,-1.4311999999999898,-1.5698099999999895,2.124296795671438,-1.045759999999973,1.118970000000019,1.531570383136206,-0.025600000000054,-0.1414099999999791,0.1437085526334354,-1.424900000000093,1.85095000000004,2.3358843962192166,-0.9459400000000642,-0.1774800000000027,0.962445652491673,0.0915199999999458,0.8101299999999867,0.8152830964149622,1.698099999999954,3.096640000000008,3.531674234637149,0.1339999999999008,1.6910200000000088,1.6963209131529338,0.5916600000000471,-0.6348999999999876,0.8678476626689964,-0.0772799999999733,2.199120000000022,2.200477442011186,1.568899999999985,3.183710000000019,3.5492895872413786,0.0429000000000314,2.759910000000019,2.760243398343724,-0.855609999999956,1.4849600000000578,171.595154,2.04751913838859,126.0241735,1.04450696158379,119.38934399999998,2.494737978271475,0.03488165,0.0312952299999999,0.020439266441421,0,0
10,333.3333333333333,526.024,125.85408,0.8470836,527.0464,121.5137,0.85743773,525.2492,123.5957,0.34021887,535.0597,115.669685,0.89923906,531.9536,119.625984,0.14764562,555.64374,125.48268,0.9961482,542.07825,128.33199,0.95579886,569.2357,156.82477,0.99390197,537.27124,151.66402,0.83323663,544.0957,176.6176,0.9857224,522.0013,167.74574,0.8351651,574.5484,167.4649,0.99661726,566.77563,167.42982,0.9886919,538.4573,181.76132,0.99334735,533.71106,185.44516,0.97762716,556.973,216.33603,0.9754851,552.3333,217.97714,0.95066017,1.09229603,-0.86737405,0.6573472,0.09309962,104.7688321725688,148.12475413116348,83.43926384011708,88.79584137726513,28.269825430088336,167.44736,126.907335,125.85408,52.5471,102.307455,0.5136194570217835,168.13796729052964,0.8572957047058825,-4.1371299999999565,2.6801600000000008,4.929411959098128,-0.9106599999998934,-0.2032600000000002,0.9330681985791852,-4.271400000000085,2.825860000000006,5.121556667615888,-0.4110400000000709,-0.0457299999999918,0.4135760081291678,-3.9267600000000575,2.908839999999998,4.886797953998144,-0.7419200000000501,-0.3105000000000046,0.8042732970825758,-4.107049999999958,1.786170999999996,4.47864561488634,0.718900000000076,0.0284169999999903,0.7194614207093447,-3.232699999999909,1.9149239999999992,3.757297328636025,-0.1815999999998894,-0.6511010000000113,0.6759519747740771,-5.165560000000028,-0.1196759999999983,5.166946144346415,-0.6363600000000815,0.5770580000000081,0.8590401532897709,-2.093849999999975,0.2201399999999864,2.1053905675907,0.6248000000000502,-0.9115300000000132,1.1051072259740622,-4.938430000000039,-0.2252200000000073,4.9435629775800765,-2.328809999999976,1.5702799999999968,2.80876045516521,-0.6509599999999409,0.0958300000000065,0.6579759193921342,2.0553400000001147,-1.5709599999999853,2.5869553218407977,-3.332030000000032,1.7627700000000175,3.769586448643972,-3.133960000000002,0.8949700000000291,3.2592447871401227,0.6093299999999999,1.144960000000026,1.2970028722019311,3.138659999999959,-2.65477999999996,4.110844614431386,-3.5334000000000287,-1.955360000000013,4.038359603799575,-2.102200000000039,-0.3855500000000234,2.1372631196228933,-1.5614699999999857,-1.1903800000000049,1.963464566856241,-1.5358699999999317,-1.0489700000000255,1.8599018032680767,-1.601699999999937,0.3750200000000063,1.6450175957720947,-0.6557599999998729,0.5525000000000091,0.8574831937710752,0.5588599999999815,2.7246199999999874,2.7813447546106023,-1.1392399999999725,-0.3720200000000204,1.1984434312890837,1.1573999999999387,-0.939850000000007,1.490936880790019,0.5657399999998916,-0.3049500000000193,0.6426945231600228,1.561900000000037,2.0913699999999835,2.610241384795676,-0.0069999999999481,-1.0923400000000356,1.0923624286838491,-1.572870000000023,-0.7172600000000671,170.430455,2.468954278145926,126.5157495,0.6033200297412703,121.22049,3.266525478088311,0.0289861599999999,0.04524789,0.0333695565604324,0,0
11,366.6666666666666,520.8295,128.59052,0.8275649,521.53564,124.32286,0.8500162,520.35016,126.62868,0.34476513,529.9344,118.73891,0.8965273,526.86,123.18034,0.14293961,551.8994,128.16869,0.9955942,536.63635,132.30014,0.9479169,567.7107,156.92119,0.9932128,533.03784,156.2811,0.81568813,546.3588,178.45592,0.98162544,518.8925,172.82056,0.79808503,574.9458,166.6639,0.9955107,565.9293,167.22629,0.9853489,538.8989,183.10196,0.9888405,532.68604,186.3723,0.9621968,562.15845,216.32054,0.95369685,556.04785,217.11671,0.90449953,1.12931095,-0.85951339,0.72367147,0.11348819,106.43740210631782,147.99530728708783,79.51427739679511,82.70903719386884,35.48365590759221,166.945095,130.234415,128.59052,56.05329999999992,98.3778,0.5697758989347599,164.8539506675234,0.8461193482352941,-5.194499999999948,2.7364400000000018,5.87119528917234,-1.0573699999999917,0.0562800000000009,1.0588667316050602,-5.510760000000005,2.8091600000000057,6.185455171868929,-1.2393599999999196,-0.0167000000000001,1.239472508609933,-4.899040000000014,3.032980000000009,5.761905986910945,-0.9722799999999552,0.1241400000000112,0.980173014319368,-5.125300000000038,3.069225000000003,5.974013909477062,-1.01825000000008,1.283054000000007,1.6380050761265,-5.093600000000038,3.5543559999999985,6.211135768499701,-1.8609000000001288,1.6394319999999991,2.480057679293866,-3.7443399999999656,2.686009999999996,4.6081158574519065,1.421220000000062,2.8056859999999944,3.145113705257116,-5.441900000000032,3.968150000000009,6.735019675732241,-3.348050000000057,3.748010000000022,5.025636055525763,-1.5249999999999773,0.0964199999999948,1.528045096324035,3.413430000000062,0.3216400000000021,3.4285502263348024,-4.233400000000074,4.617080000000016,6.2641123302827815,-3.5824400000001333,4.521250000000009,5.7684987575712485,2.2631000000000085,1.8383199999999815,2.915654649028237,5.59513000000004,0.0755499999999642,5.595640045553363,-3.108799999999974,5.074819999999988,5.951338964670028,-3.7181299999999737,3.9298599999999615,5.410017589296684,0.3973999999999478,-0.8009999999999877,0.8941631618446036,3.930799999999977,1.1543600000000254,4.09679577836141,-0.8463299999999663,-0.2035300000000006,0.8704590339584874,0.7151400000000194,0.986850000000004,1.2187280837414207,0.441599999999994,1.3406399999999792,1.4114978461194827,2.043299999999931,0.9656199999999728,2.25997718448653,-1.0250199999999268,0.9271400000000084,1.3821195968511066,-1.5838799999999085,-1.7974799999999789,2.3957483600744958,5.18545000000006,-0.0154899999999997,5.185473135847936,4.028050000000121,0.9243600000000072,4.132750683515882,3.714550000000031,-0.8604299999999796,3.812901977156008,2.152649999999994,-2.951799999999963,3.65335808024614,-0.5022649999999942,1.070605000000029,169.10098699999998,2.1032791008553677,127.4719481,1.5479288423222364,123.363042,3.9645809293190166,0.02038857,0.061657004,0.0435142711450844,0,0
12,400.0,517.2117,131.10924,0.82229155,517.42413,127.078415,0.872817,516.18695,128.4742,0.20101036,524.086,123.027374,0.90076727,523.3225,125.38957,0.038217366,543.4097,130.8481,0.9923848,534.3404,133.27284,0.9640337,556.73364,157.46446,0.9929789,533.86774,158.5122,0.80436337,541.09753,178.99365,0.98628795,518.5884,171.85442,0.8364729,578.31616,162.94493,0.99491537,571.07007,164.12405,0.98865193,539.1753,185.81955,0.99204797,535.5183,186.97345,0.9704907,559.1744,217.37277,0.9743357,554.9571,216.86685,0.9322077,1.14359677,-0.86811098,0.73374293,0.12577047,117.41785259762987,132.20095894767036,87.93539069799981,89.69440478722584,48.69360872314397,163.53449,132.06047,131.10924,62.12920999999994,94.345396,0.6585293186057602,165.0316668770129,0.8390749727058823,-3.617800000000102,2.518720000000002,4.408222689293356,1.576699999999846,-0.2177199999999999,1.591661046956768,-4.111509999999953,2.755555000000001,4.949504807364533,1.3992500000000518,-0.0536050000000045,1.400276422184258,-4.163209999999936,1.8455199999999932,4.553928147709343,0.7358300000000781,-1.1874600000000155,1.3969635072184785,-5.84839999999997,4.288463999999991,7.252220766034054,-0.7230999999999312,1.2192389999999875,1.4175391878607342,-3.5375000000000227,2.209230000000005,4.170683809988499,1.556100000000015,-1.3451259999999934,2.0568935718398333,-8.48969999999997,2.67940999999999,8.902485273118932,-4.745360000000005,-0.0066000000000059,4.745364589744401,-2.295949999999948,0.9727000000000032,2.4934978829948435,3.1459500000000844,-2.9954500000000053,4.3439293393194784,-10.977059999999938,0.5432700000000068,10.990495372661718,-9.45205999999996,0.4468500000000119,9.462616613077971,0.829900000000066,2.231099999999998,2.380449793631468,5.06330000000014,-2.3859800000000178,5.597312520344161,-5.261269999999968,0.5377300000000105,5.288678054655971,-7.524369999999976,-1.3005899999999713,7.635946453780276,-0.3041000000000622,-0.9661399999999958,1.0128688511352442,2.804699999999912,-6.040959999999984,6.660295775083815,3.370360000000005,-3.718970000000013,5.018970451247959,2.9729600000000573,-2.9179700000000253,4.165698030642703,5.140769999999975,-3.102239999999995,6.004282572506037,5.987099999999941,-2.898709999999994,6.651908453526646,0.2763999999999669,2.7175900000000013,2.731609849173192,-0.1652000000000271,1.376950000000022,1.3868245536116202,2.8322599999999056,0.6011500000000183,2.895354560343083,3.857279999999832,-0.3259899999999902,3.871030673928935,-2.9840500000000247,1.0522300000000089,3.1641337480264906,-8.169500000000085,1.0677200000000084,8.238977864298544,-1.090750000000071,-0.2498600000000124,1.1190020474065991,-4.805300000000102,0.6105699999999672,4.843934745111761,-3.410605000000004,-2.9083400000000097,167.364603,2.444381992916592,128.5397916,2.468495262504631,125.803652,4.2786906766346124,0.0122822799999999,0.08514071,0.0390052932631219,0,0
13,433.33333333333337,512.4338,134.67888,0.88280433,513.1796,130.90991,0.88700897,511.4118,132.78775,0.4793492,520.76953,125.33652,0.89797175,515.9011,128.9775,0.20400673,541.86523,132.33794,0.9963889,527.67676,137.71164,0.96389574,559.4343,157.51184,0.9932927,525.72577,161.72957,0.85865307,544.9951,179.8919,0.9824693,513.745,180.36089,0.83994466,573.2588,162.36703,0.99670744,564.648,164.15779,0.99026185,541.0319,187.18777,0.9929143,535.3458,189.95416,0.978109,565.0247,220.91788,0.97256505,560.0842,220.00897,0.94680476,1.14751263,-0.86344372,0.7433231,0.13682451,112.25913969353648,151.9011459071543,92.17810897585392,91.9011521499457,50.44035194140879,163.26241,135.02479,134.67888,61.84699999999992,95.58136,0.6470613030923458,159.25646404756395,0.8743028088235294,-4.777899999999931,3.5696399999999926,5.964114195720877,-1.1600999999998294,1.0509199999999908,1.5653321872368129,-4.244529999999941,3.8314949999999897,5.718075625236555,-0.1330199999999877,1.0759399999999886,1.084131543679074,-4.7751499999999965,4.313549999999992,6.43496473378059,-0.611940000000061,2.468029999999999,2.542762797529504,-3.316469999999981,2.3091459999999984,4.04117909900265,2.5319299999999885,-1.979317999999992,3.213778036832026,-7.421399999999949,3.587929999999986,8.243204452450463,-3.883899999999926,1.3786999999999807,4.121346005857719,-1.5444700000000466,1.4898400000000152,2.1459288912963053,6.945229999999924,-1.189569999999975,7.046367613018703,-6.6636400000001,4.438799999999986,8.006687422998429,-4.367690000000152,3.466099999999983,5.57589142165638,2.7006599999999708,0.0473800000000039,2.7010755820598287,13.677719999999908,-0.4958900000000028,13.686706371165323,-8.141970000000015,3.2173699999999883,8.75460708414719,-8.97187000000008,0.9862699999999904,9.025917117379343,3.897569999999973,0.8982499999999902,3.999738112351829,9.15883999999994,0.3605199999999797,9.165932839378591,-4.843399999999974,8.506470000000007,9.78869528695729,-4.539299999999912,9.472610000000005,10.504074671388206,-5.057360000000017,-0.5778999999999996,5.090270973101547,-8.427720000000022,3.1410700000000134,8.994041646740383,-6.422069999999962,0.0337399999999945,6.422158630281528,-11.562839999999936,3.1359799999999893,11.980552550946824,1.8565999999999576,1.368220000000008,2.306293461032196,1.5801999999999907,-1.3493699999999933,2.077939228394313,-0.1724999999998999,2.980709999999988,2.9856972978016194,-3.0047599999998056,2.379559999999969,3.832869480063036,5.850300000000061,3.545109999999994,6.840600485491071,8.834350000000086,2.4928799999999853,9.17933497683255,5.127100000000041,3.1421200000000056,6.013324579997363,6.217850000000112,3.391980000000018,7.082879848119798,-0.2720800000000167,3.138524999999987,166.041917,2.533485650999417,130.2168226,3.4912862856225804,128.68132799999998,4.477680953833112,0.01105404,0.10665925,0.0287915954522348,0,0
14,466.6666666666667,506.83804,136.55429,0.9210628,508.01443,132.51402,0.93070626,505.5875,134.97198,0.59290427,516.4252,127.10593,0.9257882,510.0221,131.80824,0.24030149,535.3839,133.86392,0.99674714,524.73157,141.59988,0.96413857,553.0825,154.9037,0.9929108,523.9846,162.80597,0.8328921,543.816,178.83879,0.9811477,512.6418,181.22519,0.8138291,570.79755,162.433,0.9954756,564.49615,166.00226,0.9860217,536.8525,186.4874,0.9899469,535.1619,193.1886,0.9673355,565.45825,218.63513,0.96120256,564.3358,222.41081,0.9223937,1.15608683,-0.83347498,0.78852186,0.14173742,118.76557935116786,150.39205771260276,83.65905596171268,87.87107801401248,54.83102864290876,164.21763,137.7319,136.55429,65.21005000000002,95.30488,0.6842257113777838,144.01200912956057,0.8832237876470589,-5.595760000000041,1.8754100000000165,5.901668632319212,-0.8178600000001097,-1.694229999999976,1.8813054702785768,-5.165170000000046,1.6041099999999917,5.408525679055287,-0.9206400000001054,-2.227384999999998,2.410149777052286,-5.824300000000051,2.1842300000000137,6.220396384708988,-1.0491500000000542,-2.1293199999999786,2.373756387016162,-4.344330000000014,1.7694100000000077,4.690843729756955,-1.0278600000000324,-0.5397359999999907,1.1609526817644449,-5.879000000000019,2.83074000000002,6.525008041956756,1.5423999999999296,-0.7571899999999658,1.7182358557834052,-6.481329999999957,1.525980000000004,6.658547403848639,-4.936859999999911,0.0361399999999889,4.936992278624619,-2.9451899999999114,3.888240000000025,4.87776121122177,3.718450000000189,-0.5505599999999617,3.758987458891206,-6.351800000000026,-2.60814000000002,6.866422467311521,-9.052459999999996,-2.655520000000024,9.433918513640029,-1.741170000000011,1.076400000000007,2.0470246527338287,6.400800000000004,-2.1409699999999816,6.749369835836526,-1.1790999999999483,-1.0531100000000038,1.5809229842404997,-5.076669999999922,-1.951359999999994,5.438785171203142,-1.1032000000000153,0.8642999999999859,1.4014509374216455,3.740199999999959,-7.642170000000021,8.508340516745907,-2.46124999999995,0.0659699999999929,2.4621339531795896,2.596110000000067,0.6438699999999926,2.6747627388238264,-0.1518500000000813,1.8444700000000007,1.8507101348941783,6.270219999999881,1.8107300000000064,6.526438690533952,-4.179399999999987,-0.7003699999999924,4.23767654462913,-6.0359999999999445,-2.0685900000000004,6.380623840040983,-0.1839000000001078,3.2344400000000064,3.239663767059798,-0.0114000000002079,0.2537300000000186,0.2539859698881302,0.4335499999999683,-2.282749999999993,2.3235561462981567,-5.416750000000093,-5.827859999999987,7.956452271087966,4.251599999999939,2.401839999999993,4.883127885443862,-0.8755000000001019,-0.7402800000000127,1.146522886121423,0.9552199999999972,1.2273000000000138,165.08139699999998,1.9697004566481435,132.391782,4.19203859392509,131.357402,4.360150066364658,0.0049129099999999,0.1221840419999999,0.0195643924346571,0,0
15,500.0,502.2815,140.10059,0.9004121,502.98737,136.42345,0.9182935,501.68692,138.10695,0.5184387,510.59235,130.4837,0.925162,507.15643,133.77722,0.20724636,528.9376,135.60408,0.996302,522.9383,142.80797,0.95328707,545.3241,154.9668,0.9926212,520.8859,165.48216,0.79880315,542.151,176.92572,0.97986335,508.07504,185.36542,0.7818642,569.42377,161.27827,0.9942473,566.03735,164.67288,0.9810575,538.49634,190.75229,0.98614883,537.55664,195.67654,0.95222163,563.541,221.87372,0.9423175,561.0816,223.19441,0.88243407,1.24843586,-0.88530616,0.85189838,0.22157219,131.536635501728,152.3783104987411,94.79656116206972,96.9016164781478,60.37094309821993,162.975575,139.206025,140.10059,67.73685,92.71071,0.7306259359827367,129.78706456263637,0.8653364976470588,-4.556539999999984,3.5463000000000022,5.773932841798549,1.039220000000057,1.6708899999999858,1.967702111728315,-5.027060000000006,3.909430000000015,6.368278823080863,0.1381100000000401,2.305320000000023,2.309453328062751,-3.900579999999991,3.13497000000001,5.004254313811399,1.92372000000006,0.950739999999996,2.1458343799091817,-5.832850000000008,3.377769999999998,6.740287033606216,-1.488519999999994,1.6083599999999905,2.1914638212847484,-2.865670000000023,1.968979999999988,3.4769162758542347,3.0133299999999963,-0.8617600000000323,3.134132732750805,-6.446300000000065,1.740160000000003,6.677045792534363,0.0350299999998924,0.2141799999999989,0.217025743403846,-1.7932700000000068,1.2080899999999986,2.162243913391831,1.1519199999999046,-2.680150000000026,2.9172116325182715,-7.758399999999938,0.0631000000000199,7.758656595699995,-1.406599999999912,2.67124000000004,3.01894794549359,-3.098700000000008,2.676189999999991,4.09437841510772,-1.357529999999997,1.5997899999999845,2.0981457873560507,-1.6650000000000773,-1.9130699999999763,2.5361509862191105,-0.4859000000001288,-0.8599599999999725,0.9877398501630263,-4.566759999999988,4.1402300000000025,6.164154552775256,-3.4635599999999727,3.2759300000000167,4.767385576864947,-1.3737800000000109,-1.1547300000000007,1.7946233201705677,1.087469999999939,-1.2206999999999937,1.634839285954388,1.5412000000000037,-1.3293800000000149,2.035325188858048,1.6930500000000848,-3.173850000000016,3.597185305902434,1.6438400000000684,4.26488999999998,4.570721677995724,5.823240000000055,4.965259999999972,7.652707427126714,2.39474000000007,2.4879399999999805,3.4532050491102084,2.5786400000001777,-0.7465000000000259,2.6845197893852366,-1.9172499999999677,3.238589999999988,3.763550551088665,-2.350799999999936,5.521339999999981,6.000954593695863,-3.254199999999969,0.783600000000007,3.347214752596524,-7.505799999999908,-1.618239999999986,7.67826375801187,-1.2420549999999937,-2.1972749999999905,164.18703999999997,1.6090535041406735,134.85152,3.7548616457816864,134.206704,4.516852010430461,0.07983477,0.147878556,0.0426090422230537,0,0
16,533.3333333333334,495.69293,144.31609,0.89603966,496.20374,140.5576,0.90778404,494.98367,142.5694,0.54514074,503.05646,134.48738,0.9070098,499.13028,138.56511,0.22055845,522.3731,138.67035,0.9949184,513.87256,147.02022,0.9502874,540.9123,155.31578,0.9897279,510.2881,167.45865,0.8018274,541.71735,176.11087,0.97430235,500.2591,188.3074,0.7818771,566.4383,162.17767,0.99170893,561.58594,166.47513,0.9761538,535.04285,189.85327,0.9803853,533.8809,195.39586,0.9399798,564.0253,220.06354,0.92353135,562.0117,221.70819,0.8560502,1.30995677,-0.91281845,0.91699443,0.20462265,134.13610799972344,164.25805144882884,87.58500296762193,89.31684447975168,64.91536002983005,164.3264,142.845285,144.31609,71.45463000000001,87.22081,0.819238312287649,135.51230356055711,0.8610166247058824,-6.588570000000004,4.215499999999992,7.821745003188226,-2.03203000000002,0.6691999999999894,2.139386491707393,-6.7836300000000165,4.134150000000005,7.944106759063619,-1.7565700000000106,0.2247199999999907,1.7708860051680435,-6.703249999999969,4.46244999999999,8.052764777702096,-2.802669999999978,1.32747999999998,3.101154991176646,-7.535889999999995,4.003680000000003,8.533410316778395,-1.7030399999999872,0.6259100000000046,1.814416867674009,-8.026149999999973,4.787890000000004,9.345746330529176,-5.16047999999995,2.8189100000000167,5.880204708894034,-6.564499999999953,3.066270000000003,7.245320694275678,-0.1181999999998879,1.32611,1.331367331768349,-9.065740000000003,4.212249999999983,9.996533989843678,-7.272469999999998,3.0041599999999846,7.868532087149412,-4.411800000000085,0.3489799999999832,4.425580897509471,3.346599999999853,0.2858799999999633,3.3587883134247973,-10.597800000000008,1.9764900000000123,10.780532341220455,-7.4990999999999985,-0.6996999999999787,7.531671852915523,-0.4336499999999432,-0.814850000000007,0.9230562523486648,1.231350000000134,1.098219999999969,1.649942420480261,-7.815940000000012,2.941980000000001,8.351297168943288,-3.249180000000024,-1.1982500000000016,3.463087312630185,-2.985469999999964,0.8994000000000142,3.1180044068121213,-1.6116899999999532,2.054130000000015,2.610937516104112,-4.451409999999896,1.802250000000015,4.802411482848917,-5.9926099999999,3.1316300000000297,6.761544281375297,-3.453489999999988,-0.8990199999999788,3.5685893768406416,-5.097330000000056,-5.163909999999959,7.255945122242873,-3.675740000000019,-0.2806799999999896,3.686440805166975,-6.070480000000089,-2.76861999999997,6.672029986053788,0.484299999999962,-1.8101800000000023,1.873845810732562,2.401549999999929,-5.04876999999999,5.590842594403778,0.9301000000000386,-1.486220000000003,1.753264354967636,4.184300000000008,-2.26982000000001,4.760299289162406,1.3508250000000146,2.592880000000008,163.663301,0.5910274618660833,137.37369400000003,4.097918855305361,137.351818,5.069695763718933,-0.01694954,0.166105448,0.043698452166617,0,0
17,566.6666666666666,491.4469,148.068,0.8543192,491.24084,145.10751,0.87893784,491.20102,145.64305,0.4184583,496.7301,138.06093,0.91462266,495.76135,139.28122,0.19247368,518.3574,141.97952,0.9963775,510.20337,143.80469,0.95064056,534.8395,160.85648,0.9919783,506.78973,163.26746,0.7757923,539.6304,184.30193,0.97475785,499.20807,190.77112,0.7339248,567.4861,160.48624,0.99394906,565.1362,161.05658,0.9796388,534.39844,194.95233,0.985803,545.7058,186.69522,0.94861233,562.40436,221.99573,0.9444733,583.7627,202.59686,0.8861536,1.32970157,-0.85067016,0.96464964,0.33751683,150.42367507910183,174.5367054358663,90.16725797562236,75.52016160390438,71.03576806162799,160.77141,142.89210500000002,148.068,92.56167999999997,83.9348,1.1027807166660224,167.38308060410694,0.8482890047058823,-4.246029999999962,3.7519100000000094,5.666180319139142,2.3425400000000423,-0.4635899999999822,2.387971804628392,-4.962899999999991,4.549909999999983,6.732908540749663,1.820730000000026,0.4157599999999775,1.8675958102598316,-3.7826499999999896,3.0736499999999864,4.87398864842747,2.920599999999979,-1.3888000000000034,3.2339866728234807,-6.326360000000022,3.573550000000012,7.265885386661447,1.2095299999999725,-0.4301299999999912,1.2837346446208913,-3.3689300000000344,0.7161099999999863,3.444198437517823,4.657219999999938,-4.071780000000018,6.186201621091862,-4.015700000000038,3.3091699999999946,5.203503875169141,2.5487999999999147,0.2428999999999916,2.56034799392574,-3.669190000000015,-3.215530000000001,4.8787896487756175,5.396549999999991,-7.427779999999984,9.1812127538196,-6.072799999999916,5.540700000000015,8.220599511592761,-1.6609999999998308,5.191720000000032,5.450951986433174,-3.498369999999966,-4.191190000000006,5.459365006390378,7.099430000000041,-6.1676800000000185,9.404370415253794,-2.0869500000000016,8.191059999999993,8.45274063402515,-1.6533000000000584,9.00591,9.15640845627259,-1.0510299999999688,2.463719999999995,2.678540703312143,6.764910000000043,-0.4782600000000059,6.7817947429644745,1.0477999999999383,-1.6914299999999969,1.989678437562176,4.033269999999902,-2.590830000000011,4.793711190904107,3.55025999999998,-5.41855000000001,6.478042155628502,8.001669999999876,-7.220800000000025,10.778064549300971,-0.6444099999999935,5.09905999999998,5.139618383858843,2.8090799999999945,5.998079999999959,6.623284240676938,11.824899999999955,-8.700639999999993,14.68091946778535,15.500639999999976,-8.419960000000003,17.639885680219113,-1.6209400000000187,1.93219000000002,2.522063575665796,-2.1052399999999807,3.7423700000000224,4.293875717169756,21.750999999999976,-19.11133000000001,28.954255911159237,20.820899999999934,-17.625110000000006,27.27919315746156,-3.554990000000004,-4.905815000000018,163.11068500000002,1.4332456966270135,139.54002099999997,3.3885617566590285,140.74357,5.50350181634836,0.13289418,0.20845472,0.0812801730455712,0,0
18,600.0,486.41656,154.60228,0.7902921,486.46362,150.97372,0.74726653,485.10205,152.7083,0.36234954,493.52753,142.98714,0.7469506,489.17505,146.12961,0.18331072,512.6507,143.13104,0.98102784,502.98328,146.472,0.9369026,530.2241,162.05656,0.9723813,500.05075,163.46985,0.8395948,532.6588,184.32101,0.95037884,490.23486,191.2724,0.8230234,559.3534,161.0617,0.9772036,554.25964,163.99527,0.9590691,531.69086,193.88644,0.94211036,531.6461,198.5175,0.893067,559.35736,221.04477,0.8110655,557.12085,222.25067,0.75154704,1.35137712,-0.89267553,0.98577515,0.23999559,143.3622877368908,170.34257012679635,94.34694790304955,99.74650144952282,70.10723627229456,162.528485,144.80152,154.60228,74.25530999999995,79.26353,0.9368155703283008,160.93538171751496,0.8039729923529412,-5.030340000000024,6.534279999999995,8.246280108873345,-0.7843100000000618,2.782369999999986,2.890800061055766,-4.77722,5.866209999999995,7.565332160090523,0.1856799999999907,1.3163000000000125,1.3293316938973618,-6.098970000000008,7.06525000000002,9.333551983216273,-2.316320000000019,3.991600000000034,4.614998255947705,-3.20256999999998,4.9262099999999975,5.875712686049229,3.1237900000000423,1.352659999999986,3.404078882708247,-6.586299999999994,6.848390000000023,9.501567938087916,-3.21736999999996,6.132280000000037,6.925050737380933,-5.706699999999955,1.151520000000005,5.821719952075975,-1.6909999999999172,-2.1576499999999896,2.741338089783833,-7.220090000000027,2.6673100000000147,7.697028143653918,-3.550900000000013,5.882840000000016,6.871440698689051,-4.615400000000022,1.2000799999999856,4.768868751223939,1.4573999999998932,-4.34062000000003,4.57875493386575,-6.738980000000026,0.2023900000000082,6.742018477614873,-3.2406100000000606,4.393580000000014,5.459404581866096,-6.971599999999967,0.0190800000000024,6.971626109194292,-4.884649999999965,-8.17197999999999,9.52056000153875,-8.973209999999995,0.5012800000000084,8.987200862476586,-7.922180000000026,-1.9624399999999864,8.161624023808029,-8.1327,0.5754599999999925,8.153034005914607,-9.180499999999938,2.2668899999999894,9.4562344790143,-10.87656000000004,2.938690000000008,11.266563644239575,-14.42682000000002,8.357240000000019,16.67263013834353,-2.707580000000007,-1.065889999999996,2.909830054917302,-2.0631700000000137,-6.164949999999976,6.501021377552897,-14.059699999999909,11.822280000000006,18.369579975829534,-25.884599999999864,20.52292,33.03335832891341,-3.047000000000025,-0.9509600000000092,3.1919482955712444,-1.4260600000000068,-2.883150000000029,3.216551110444257,-26.641849999999977,19.65381000000002,33.10680321230969,-48.39284999999995,38.76514000000003,62.00487085981308,1.7570749999999862,5.31206499999999,162.9639,1.451290812591452,141.49536700000002,2.920127307148947,144.72825000000003,7.018709523947378,-0.0975212399999999,0.229088936,0.0709946323099703,0,0
19,633.3333333333333,480.26184,155.86435,0.8240452,480.77402,152.79102,0.8420234,479.45215,153.72229,0.38871118,487.51187,146.26373,0.8754527,482.67664,147.92216,0.17650579,506.59158,148.88518,0.99314195,496.65408,151.67844,0.94495845,521.6213,172.74983,0.98844343,493.62585,173.41632,0.80925304,518.9886,195.97586,0.9701723,480.62195,198.76604,0.7805588,557.4888,160.10971,0.9922964,551.86163,162.53654,0.97953117,528.4571,194.52786,0.9833018,525.5555,196.95049,0.9519442,560.7169,217.2898,0.9385399,558.7415,216.30775,0.8890971,1.17114773,-0.72072372,0.90201005,0.19627071,141.3307360881083,160.77372329339593,85.05849021450916,82.86043160557078,78.24337195431352,161.323125,150.28181,155.86435,81.26474999999999,71.02607,1.1441538136045846,164.30024191508502,0.8428221652941177,-6.1547199999999975,1.2620699999999945,6.28278592372046,-1.1243799999999735,-5.272210000000001,5.390772548392294,-5.689599999999984,1.8173000000000168,5.972782220205244,-0.9123799999999846,-4.048909999999978,4.150434851012577,-5.649900000000002,1.0139899999999784,5.740169486182441,0.4490700000000061,-6.051260000000042,6.067900085902908,-6.015660000000025,3.276589999999999,6.850124616654816,-2.813090000000045,-1.6496199999999988,3.26109207053408,-6.4984099999999785,1.7925499999999772,6.741110296575753,0.0878900000000157,-5.055840000000046,5.056603875893431,-6.059120000000007,5.754139999999978,8.356019525707191,-0.3524200000000519,4.602619999999973,4.616092581480553,-6.3291999999999575,5.206439999999986,8.195473757727452,0.8908900000000699,2.539129999999972,2.6908857554716032,-8.602800000000002,10.693270000000012,13.724219144741909,-3.98739999999998,9.493190000000029,10.29660211604296,-6.42489999999998,9.946470000000003,11.841098153081068,0.3140800000000467,9.744079999999997,9.749140541237466,-13.670200000000024,11.65485000000001,17.96412804904543,-6.698600000000056,11.635770000000008,13.426182832544065,-9.61291,7.493639999999999,12.188629090988863,-0.6397000000000048,6.992359999999991,7.021560685460169,-1.864599999999996,-0.951989999999995,2.093565886257219,6.268100000000004,-1.5274499999999875,6.451525487239433,-2.3980099999999998,-1.4587300000000027,2.80683900019221,8.478550000000041,-4.397420000000011,9.551079141065726,-3.233760000000075,0.6414200000000108,3.296759523228908,-0.5261800000000676,1.7073100000000068,1.7865533377148566,-6.090599999999995,-1.5670100000000105,6.28895290967423,7.969099999999912,-13.389290000000017,15.581387663301976,1.3595400000000382,-3.754969999999986,3.993513329450648,4.406540000000064,-2.804009999999977,5.223032342586099,1.620649999999955,-5.942920000000015,6.159935433825588,28.26249999999993,-25.59673000000004,38.13084700007197,-1.2053599999999849,-2.962434999999971,162.384999,1.4026449960315528,144.005349,4.051123994966307,148.590262,6.702099507129815,-0.04372488,0.2399955939999999,0.0570371018152998,0,0
20,666.6666666666666,475.28845,159.17517,0.76436794,475.25134,155.96799,0.78960514,474.42508,157.23424,0.26556864,482.08755,149.08032,0.8580543,478.69052,151.48218,0.12722854,503.28036,150.67719,0.99314487,491.17743,153.383,0.9338943,521.4562,178.19557,0.99076414,488.11758,177.39748,0.7925365,512.7633,200.10815,0.9749774,474.7724,202.0323,0.7668424,550.4324,162.89879,0.9934256,543.60114,165.1758,0.9798813,524.53314,199.18445,0.9846197,520.24133,202.0267,0.95068794,556.0314,223.45744,0.9364071,551.5553,221.85133,0.8799339,1.01571942,-0.60821811,0.73767326,0.34292103,124.91667729704275,158.8160209577813,92.10060292512864,89.96694404398264,76.44105298686719,164.037295,152.03009500000002,159.17517,81.60631999999998,74.37711999999999,1.0971965424690209,167.3978149609924,0.8224670417647059,-4.973389999999995,3.3108200000000068,5.9746244371089965,1.1813300000000029,2.0487500000000125,2.364934910605376,-5.52267999999998,3.176969999999983,6.371274029838904,0.1669200000000046,1.3596699999999655,1.3698776570555151,-5.0270700000000375,3.511950000000013,6.132309971568664,0.6228299999999649,2.4979600000000346,2.574436126708163,-5.424319999999966,2.816589999999991,6.111990403338309,0.5913400000000593,-0.4600000000000079,0.7491882244136499,-3.986120000000028,3.5600200000000086,5.344426541248396,2.5122899999999504,1.7674700000000314,3.0717342406204127,-3.3112200000000485,1.7920100000000048,3.7650335627322553,2.7478999999999587,-3.9621299999999735,4.821766123206264,-5.476650000000007,1.704560000000015,5.735784167496204,0.8525499999999511,-3.5018799999999715,3.604164956949073,-0.1651000000000522,5.445740000000001,5.448242116279344,8.43769999999995,-5.247530000000012,9.936365149837204,-5.508270000000039,3.981159999999989,6.7963720718115725,0.916629999999941,-5.9653100000000165,6.035323848228866,-6.225300000000061,4.132289999999983,7.4719596314555,7.444899999999961,-7.522560000000027,10.583734925044174,-5.849550000000022,3.2662599999999884,6.6996783198971706,3.7633599999999774,-4.227380000000011,5.659825099241135,-7.05639999999994,2.789079999999984,7.587604905792015,-5.191799999999944,3.7410699999999792,6.399249329796368,-8.260490000000004,2.6392600000000077,8.671873407038419,-5.862480000000005,4.09799000000001,7.152775250942821,-3.9239599999999655,4.656589999999994,6.089441067101288,-0.6901999999998907,4.015169999999984,4.074060157741871,-5.314170000000104,5.076210000000003,7.349034681711683,0.7764299999998912,6.643220000000014,6.6884389444249255,-4.685500000000047,6.167639999999977,7.745559593702715,-6.0450400000000855,9.922609999999963,11.618980067703893,-7.186199999999985,5.543579999999992,9.075943458197594,-8.80684999999994,11.486500000000008,14.474124815424906,2.714169999999996,3.919529999999981,162.597343,1.583153824469487,146.570163,4.304593642985554,152.40517800000003,6.059504465702616,0.14665032,0.264265362,0.0712776951453421,0,0
21,700.0,469.73642,164.68074,0.7003354,469.0616,161.94536,0.7460159,469.66937,162.88809,0.18919754,475.46915,153.58443,0.83848745,476.10034,155.05081,0.08732166,499.36298,153.22821,0.9895188,489.87335,153.31046,0.89098996,516.508,188.62924,0.9876581,484.11575,181.45357,0.7052193,504.01398,208.43863,0.9693002,465.15158,207.89789,0.70348483,552.09644,165.2774,0.98579526,547.2144,166.53548,0.95581686,521.7771,202.76929,0.9642016,519.94904,204.69167,0.88396007,556.01337,223.36432,0.86915576,551.90314,221.40338,0.76174766,0.83902936,-0.37436365,0.68412255,0.30951325,121.9185762146332,155.91652797573948,82.06711681033096,82.06061425097056,77.06845933164581,165.90644,153.269335,164.68074,90.86178999999998,70.13611,1.2955065330040896,179.50340952571193,0.7781297852941176,-5.552030000000002,5.505569999999977,7.818972959781852,-0.5786400000000071,2.1947499999999707,2.2697470810863223,-6.189740000000029,5.977370000000008,8.604756439580406,-0.6670600000000491,2.8004000000000246,2.878751327155613,-4.755709999999965,5.653850000000006,7.3880171512118,0.2713600000000724,2.1418999999999926,2.15902104195397,-6.618400000000008,4.504109999999997,8.00563710469692,-1.1940800000000422,1.6875200000000063,2.067256828940256,-2.5901799999999757,3.568630000000013,4.409552415982825,1.3959400000000528,0.0086100000000044,1.3959665525005058,-3.91737999999998,2.551019999999994,4.674780112989253,-0.6061599999999316,0.7590099999999893,0.971352729805142,-1.304079999999999,-0.0725400000000036,1.306095975799634,4.172570000000007,-1.7771000000000186,4.53524253098995,-4.948199999999929,10.433670000000006,11.547560474355588,-4.783099999999877,4.987930000000006,6.91067951035923,-4.001829999999984,4.056090000000012,5.6979390517098345,1.5064400000000546,0.0749300000000232,1.5083023498291608,-8.749319999999955,8.330479999999994,12.080873209035806,-2.5240199999998936,4.198190000000011,4.8985177591287306,-9.62081999999998,5.865589999999997,11.267889044559304,-3.771269999999959,2.599330000000009,4.580283163932088,1.66404,2.378610000000009,2.9028976305925847,8.72043999999994,-0.4104699999999752,8.730095040404711,3.613259999999968,1.3596799999999971,3.8606188014358223,11.873749999999973,-1.27958000000001,11.94249823273587,-2.7560399999999845,3.584840000000014,4.521817588890557,1.167919999999981,-1.0717499999999802,1.585145163352528,-0.2922899999999799,2.6649699999999825,2.6809510523319697,5.021880000000124,-2.4112400000000207,5.5707591109292585,-0.0180299999999533,-0.0931199999999989,0.0948494348955128,4.667470000000094,-6.260759999999976,7.80912235648159,0.3478400000000192,-0.4479499999999916,0.5671436044777424,7.534040000000004,-5.991529999999983,9.62601633400338,1.8691450000000032,-0.8450249999999926,162.913351,2.090854113369069,148.654973,4.565909860452951,156.478108,6.107017711188513,-0.03340778,0.285243482,0.0644432889853608,0,0
22,733.3333333333333,466.80212,172.6,0.65890056,465.46017,169.81206,0.7000989,466.02283,170.87964,0.18590273,469.84573,159.76013,0.80360365,470.5807,161.70312,0.10342823,491.96527,157.12059,0.9871651,484.31888,158.1967,0.88264716,506.91745,194.53854,0.98441386,480.12668,190.71732,0.682212,492.43262,215.51157,0.9585736,454.27618,221.86852,0.6618669,545.7505,166.74274,0.9831268,541.9548,168.55034,0.9504173,518.0053,206.29471,0.96000016,516.17145,207.58511,0.87558824,555.07513,224.8081,0.8665982,550.7131,221.42339,0.7608122,0.63241699,-0.2665253,0.52076833,0.24024124,123.58785293492248,147.65819974797654,81.48926177497756,78.38665261480214,79.83588703630457,167.64654000000002,157.65864499999998,172.6,100.79894999999992,67.68751,1.4891809214258145,171.98912542826972,0.7650209170588235,-2.9343000000000075,7.919260000000008,8.445400845288527,2.6177299999999946,2.413690000000031,3.560675465273425,-3.601429999999993,7.866700000000009,8.651893835161184,2.5883100000000354,1.889330000000001,3.2045150186885047,-3.646540000000016,7.991549999999989,8.784197480367796,1.1091699999999491,2.337699999999984,2.587489010392085,-5.62342000000001,6.175700000000006,8.352372296922605,0.9949799999999982,1.671590000000009,1.945301603479529,-5.519640000000038,6.65231,8.6440531040537,-2.929460000000063,3.083679999999987,4.253330252167152,-7.397710000000018,3.892380000000003,8.359230545241607,-3.4803300000000377,1.3413600000000088,3.729871788480173,-5.5544700000000375,4.886239999999987,7.397802262733188,-4.250390000000039,4.95877999999999,6.531103600502769,-9.590550000000064,5.909300000000002,11.264922360695667,-4.642350000000135,-4.524370000000005,6.482386707023988,-3.9890699999999697,9.263749999999987,10.086116374868949,0.0127600000000143,5.207659999999976,5.207675632487083,-11.581360000000018,7.072940000000017,13.570349284126795,-2.832040000000063,-1.2575399999999777,3.098686401235256,-10.875400000000012,13.97063,17.70459905665475,-1.254580000000033,8.105040000000002,8.201563532522327,-6.345940000000041,1.4653399999999976,6.512923751987315,-8.009980000000041,-0.9132700000000114,8.061875817283513,-5.259599999999978,2.0148599999999988,5.6323221658211065,-8.872859999999946,0.6551800000000014,8.89701665795895,-3.7717999999999847,3.525419999999997,5.162853999136511,-1.0157600000000002,-0.0594200000000171,1.017496493360052,-3.7775899999999183,2.8934399999999982,4.758380106895557,-3.4852999999999383,0.2284700000000157,3.492780358238917,-0.9382400000000644,1.4437800000000038,1.721858004017791,-0.920210000000111,1.5369000000000028,1.791325781118614,-1.1900399999999536,0.0200100000000134,1.1902082177921185,-1.5378799999999728,0.467960000000005,1.6075016192837632,1.7401000000000124,-0.1290449999999907,164.288377,2.5420645178884405,151.60828099999998,4.680690456518268,161.384508,7.38248504209597,-0.06927201,0.2657883639999999,0.0591860219412716,0,0
23,766.6666666666667,463.30505,176.117,0.6994641,461.617,172.98744,0.7571838,461.80127,174.42047,0.21778631,465.62466,162.94342,0.8418251,466.04657,165.62666,0.12564003,488.4635,160.97285,0.9894433,482.19012,162.78113,0.87556154,508.47025,197.31866,0.98598945,487.48773,195.05028,0.63559544,488.0863,219.13997,0.9608228,462.31573,224.76428,0.624272,537.56165,172.0194,0.9793875,534.2587,173.40936,0.93242127,511.02975,211.1099,0.94271004,507.28818,211.54791,0.8123363,547.282,228.42001,0.80608666,540.37384,223.0089,0.65252864,0.315381,-0.23803043,-0.02309067,0.20560523,108.11970947798083,130.40758272658107,81.35811856511268,73.83938090614154,77.90730352990163,172.71438,161.87698999999998,176.117,85.66500000000002,67.44716,1.2701053495787618,163.9205571904506,0.7552384870588235,-3.497070000000008,3.516999999999996,4.959716482310257,-0.5627700000000004,-4.4022600000000125,4.4380855310032175,-3.8431699999999855,3.17537999999999,4.985277704732188,-0.2417399999999929,-4.691320000000019,4.69754420628483,-4.221560000000011,3.54083,5.509904347853971,-0.575019999999995,-4.45071999999999,4.487711724119532,-4.221069999999997,3.1832899999999995,5.286848510123964,1.4023500000000126,-2.9924100000000067,3.3047092354093843,-4.534130000000005,3.9235399999999743,5.996040442533709,0.9855100000000334,-2.7287700000000257,2.9012782825851446,-3.501769999999965,3.852260000000001,5.205986961230288,3.895940000000053,-0.0401200000000017,3.89614657039496,-2.12876,4.584429999999998,5.054564032881568,3.425710000000038,-0.301809999999989,3.4389792497484266,1.5528000000000477,2.7801199999999824,3.1843767136442964,11.143350000000112,-3.1291800000000194,11.574368954500397,7.3610499999999774,4.332959999999986,8.541639155577784,11.350119999999947,-4.930790000000002,12.374890465717217,-4.346319999999992,3.628399999999999,5.661782767150284,7.235040000000026,-3.4445400000000177,8.013155409275456,8.039549999999963,2.895760000000024,8.545161799527236,18.914949999999976,-11.074869999999976,21.918669645290944,-8.188850000000002,5.276659999999993,9.741683893357449,-1.8429099999999607,3.811319999999995,4.233494704201225,-7.696100000000001,4.859019999999987,9.101649881774176,-2.436500000000024,2.844159999999988,3.745100580171385,-6.975550000000055,4.815190000000001,8.476104797523494,-3.2037500000000705,1.2897700000000043,3.453624286948489,-8.883270000000039,3.962800000000016,9.727089479022018,-5.10568000000012,1.0693600000000174,5.216464230875284,-7.7931299999999055,3.611909999999994,8.589456853899348,-6.854889999999841,2.168129999999991,7.189596971249347,-10.33926000000008,1.5855099999999993,10.460121381117032,-9.149220000000128,1.565499999999986,9.282188150344847,5.06783999999999,3.3277399999999773,166.325556,4.271948717112879,155.023375,4.702007727299671,165.68745199999998,8.609230658680904,-0.0346360099999999,0.258910292,0.0646763941252751,0,0
24,800.0,456.00198,180.10315,0.6538847,454.67468,177.67496,0.70830536,455.03006,178.23267,0.18405095,458.9844,168.884,0.81745785,458.14618,169.85625,0.105409704,479.9505,165.58365,0.990085,472.50946,166.34265,0.873367,499.11777,201.33583,0.9888805,478.0774,199.39409,0.67341244,484.60797,222.84843,0.968286,459.05472,229.5098,0.6627737,531.4153,167.77669,0.98552006,526.57916,169.43195,0.9500028,514.10144,212.03323,0.95708674,507.2985,212.57138,0.85113883,548.1226,225.91519,0.83796394,538.2028,221.69576,0.69544107,0.29700118,-0.24810189,0.00712372,0.16310857,117.80474254099816,138.15889514738063,90.83115001442404,82.36734721843733,87.13455399634363,168.60432,165.96314999999998,180.10315,93.44792,63.92615000000001,1.4618105194539244,174.17586640395794,0.7590039202352941,-7.303069999999991,3.986150000000009,8.320109569434765,-3.805999999999983,0.4691500000000133,3.834806086688072,-6.942319999999995,4.687520000000006,8.37667301097518,-3.0991500000000087,1.5121400000000165,3.4483761543805085,-6.771209999999996,3.8122000000000185,7.770595453638035,-2.549649999999985,0.2713700000000187,2.564050857412921,-6.640260000000012,5.940579999999983,8.909744306319904,-2.4191900000000146,2.757289999999984,3.668123280398299,-7.900389999999959,4.229590000000002,8.961338835252207,-3.3662599999999543,0.3060500000000274,3.380143930382212,-8.513000000000034,4.610800000000012,9.681458859077008,-5.011230000000069,0.7585400000000107,5.0683142211686825,-9.680659999999987,3.5615200000000016,10.3150183105024,-7.551899999999989,-1.022909999999996,7.620862056099679,-9.352480000000014,4.017169999999993,10.178729633863952,-10.905280000000062,1.2370500000000106,10.975218657543977,-9.410329999999988,4.343810000000019,10.36450655000034,-16.771379999999965,0.0108500000000333,16.77138350962433,-3.4783299999999717,3.7084600000000014,5.08443262916324,0.8679900000000202,0.0800600000000031,0.8716743908708318,-3.261009999999999,4.745519999999999,5.7579637277860645,-11.300559999999962,1.849759999999975,11.45095054443949,-6.146349999999984,-4.242709999999988,7.468480867391956,2.042500000000018,-9.51936999999998,9.736026471148262,-7.6795399999999745,-3.977409999999992,8.648417480655032,0.0165600000000267,-8.836429999999979,8.836445517203149,3.0716900000000464,0.9233299999999928,3.207462820517219,10.047240000000102,-3.891860000000008,10.774674281722028,0.0103199999999787,1.0234700000000032,1.0235220287321647,8.893590000000017,-2.9393300000000124,9.366728561082594,0.8405999999999949,-2.504819999999995,2.642107415000376,8.6337299999999,-6.11672999999999,10.580911095260094,-2.171039999999948,-1.3131400000000042,2.5372724215581948,8.168220000000133,-2.8986500000000035,8.667294260084988,-4.110060000000004,-9.177899999999994,167.78179500000002,3.262034361364832,158.15964300000002,5.840609134170462,170.535212,8.518957403554255,-0.0424966599999999,0.252277864,0.0737672878506224,0,0
25,833.3333333333334,449.16037,189.40979,0.7243548,447.87698,186.10239,0.74395186,447.2133,187.12328,0.30472478,452.00055,176.46233,0.801739,447.47134,178.6582,0.1824765,473.64554,173.9098,0.9894721,461.65118,174.95755,0.92214274,488.74866,210.2724,0.9835384,469.72235,205.68219,0.761934,470.12253,234.43643,0.9505732,455.128,229.90005,0.70802104,527.0724,174.32625,0.9852959,518.9233,175.92056,0.9626595,511.29028,214.53888,0.9633509,501.62106,214.3229,0.9032603,544.4286,223.99484,0.87125456,533.5566,219.00427,0.78438336,0.47843724,-0.42349274,0.11619029,0.18988392,119.81878740605744,134.20698710451143,84.49764569699077,74.08545717940677,89.28605354947808,175.123405,174.433675,189.40979,97.21529999999996,60.52663000000001,1.606157461498228,175.00768236905915,0.7966548788235294,-6.841610000000003,9.306639999999987,11.55080843411836,0.4614599999999882,5.320489999999978,5.340464321732686,-6.79770000000002,8.427430000000015,10.827294292430611,0.1446199999999748,3.739910000000009,3.7427051383324415,-7.816759999999988,8.890609999999981,11.83827196298934,-1.0455499999999915,5.078409999999963,5.184922654254314,-6.983850000000018,7.578330000000022,10.305592967481328,-0.343590000000006,1.6377500000000396,1.6734034631851735,-10.674840000000016,8.801950000000005,13.8356977716377,-2.7744500000000585,4.572360000000003,5.348275308181167,-6.304959999999994,8.326149999999984,10.44400758445242,2.2080400000000395,3.715349999999973,4.321951673040777,-10.85827999999998,8.614900000000006,13.860690695935745,-1.1776199999999903,5.053380000000004,5.1887800385832525,-10.369110000000036,8.936570000000017,13.688707957911916,-1.0166300000000206,4.919400000000024,5.0233487751598815,-8.355050000000006,6.288099999999986,10.456914559873765,1.055279999999982,1.9442899999999668,2.212211446155144,-14.48544000000004,11.587999999999994,18.550194500155545,-11.007110000000068,7.879539999999991,13.536750760936,-3.926719999999989,0.3902499999999804,3.946064497812966,-0.66570999999999,-4.355270000000019,4.405853671764435,-4.342899999999986,6.549559999999985,7.858595078231203,1.803449999999998,10.792269999999974,10.94191590423722,-7.6558599999999615,6.488609999999994,10.035649060808142,0.023680000000013,10.466019999999986,10.466046788678126,-2.8111600000000294,2.505650000000003,3.7657539043464032,-5.882850000000076,1.58232000000001,6.09193406931665,-5.67743999999999,1.7515199999999993,5.941476858828946,-5.687759999999969,0.7280499999999961,5.734166950839471,-3.6940000000000737,-1.920349999999985,4.163337618125689,-4.534600000000069,0.5844700000000103,4.572111365758782,-4.646200000000022,-2.691490000000016,5.369477894553649,-2.475160000000073,-1.3783500000000115,2.8330664920012727,6.51908499999999,10.629144999999994,169.999017,3.803322983082657,162.640359,8.113869910869596,176.582136,9.146901553282005,0.02677535,0.221670442,0.056478315142379,0,0
26,866.6666666666667,442.55737,194.51843,0.62883526,441.3789,191.51259,0.65527177,441.66547,191.66574,0.22291498,446.29602,182.0003,0.7749996,444.9132,182.13535,0.16050571,467.8736,181.02802,0.9855861,459.92358,176.85873,0.910676,478.5959,218.82631,0.9772759,466.2635,206.25372,0.7556049,465.50238,238.138,0.93611884,452.9669,233.21179,0.6983034,520.73236,180.9112,0.9818708,515.38104,180.20291,0.959115,505.71317,220.53625,0.95693415,498.95135,216.83115,0.90021235,537.0146,224.7241,0.85928917,527.46204,217.39801,0.78193,0.59297476,-0.50283621,0.29600275,0.10562754,130.0252032068869,141.57485001209704,76.86206004447936,66.98028524275199,88.29333583318113,180.557055,178.943375,194.51843,95.6357,61.27927,1.5606533569891847,-152.32579036992172,0.7732614076470588,-6.603000000000009,5.108640000000008,8.348521524773126,0.2386099999999942,-4.197999999999979,4.204775705326007,-6.498080000000016,5.410199999999975,8.455489798137062,0.2996200000000044,-3.0172300000000405,3.0320700877948465,-5.547829999999976,4.5424600000000055,7.170241318149605,2.268930000000012,-4.348149999999976,4.90453379715135,-5.704529999999977,5.537970000000001,7.950520375535161,1.279320000000041,-2.040360000000021,2.408262567080299,-2.5581399999999803,3.477149999999994,4.316787275520982,8.116700000000037,-5.32480000000001,9.707436012150724,-5.771939999999972,7.118220000000008,9.164297427080802,0.5330200000000218,-1.2079299999999762,1.320304966778496,-1.7275999999999954,1.9011800000000108,2.568868846866267,9.130679999999984,-6.713719999999995,11.333285203364452,-10.15276,8.553910000000002,13.27583940493783,0.216350000000034,-0.3826600000000155,0.4395861668660953,-3.458849999999984,0.5715299999999957,3.505750969963481,4.896200000000022,-5.71656999999999,7.526748767223474,-4.620149999999967,3.701570000000004,5.920085006771417,9.865290000000073,-7.88642999999999,12.63011183359044,-2.1610999999999763,3.3117400000000146,3.954487961493877,1.7656200000000126,2.921490000000034,3.41357844563447,-6.3400400000000445,6.5849500000000205,9.140988661195289,-1.9971400000000583,0.0353900000000351,1.99745353680636,-3.542260000000056,4.282350000000008,5.557528896020287,4.113599999999906,-2.206259999999986,4.667899757663951,-5.577110000000005,5.997369999999989,8.189786497156073,-2.7659499999999757,3.4917199999999866,4.454501987977979,-2.669710000000009,2.508250000000004,3.663150221680796,3.007729999999981,0.7567300000000046,3.1014641777392646,-7.413999999999987,0.7292599999999823,7.449779603961434,-3.7199999999999136,2.649609999999967,4.567147156825493,-6.094560000000001,-1.6062599999999918,6.302676636255424,-1.4483599999999797,1.085230000000024,1.809826191240472,5.43365,-1.0854349999999895,172.92914000000002,5.235836580419804,167.77516699999998,8.796029127188843,182.549674,9.1743269358048,-0.08425638,0.1808933,0.0504849481630501,0,0
27,900.0,431.41614,202.43631,0.54010427,430.2329,199.8581,0.60119534,429.99512,200.07817,0.17001402,436.7868,190.18729,0.7201947,434.36258,190.89899,0.102721594,460.60812,188.10185,0.96269083,449.25958,182.65724,0.79734194,469.44788,228.95152,0.9554568,459.61853,212.34972,0.62399983,453.246,235.36615,0.9032211,452.48956,231.21716,0.6032709,510.04303,190.70468,0.9409264,500.42645,189.44191,0.8743586,506.71915,227.92575,0.83139306,485.34744,224.52032,0.6750758,533.0316,223.54242,0.6017715,500.78198,218.10553,0.47803533,0.27033479,0.01203663,0.19995539,0.18153198,99.38916466293348,140.0685943556465,75.43904514697412,44.170394842607685,84.66897014927211,190.073295,185.379545,202.43631,103.03648000000004,52.70891,1.954820884081632,-154.37002986751853,0.6695160008235294,-11.141230000000007,7.917879999999997,13.668205061649466,-4.538229999999999,2.8092399999999884,5.337355235554396,-11.146000000000017,8.345510000000019,13.924110497985165,-4.647919999999999,2.935310000000044,5.49719975282873,-11.670350000000042,8.41243,14.386314595037918,-6.1225200000000655,3.869969999999995,7.243060054376241,-9.50921999999997,8.18698999999998,12.547990686500334,-3.8046899999999937,2.649019999999979,4.636051440234442,-10.550620000000038,8.76364000000001,13.715573937462514,-7.992480000000057,5.286490000000015,9.58262558334098,-7.265480000000025,7.073830000000015,10.140328914749292,-1.4935400000000527,-0.0443899999999928,1.4941995193748916,-10.663999999999987,5.798509999999993,12.13851779337575,-8.936399999999992,3.8973299999999824,9.749278234254048,-9.148019999999974,10.12520999999998,13.645737336783936,1.0047400000000266,1.5712999999999795,1.865070014128153,-6.644970000000001,6.096000000000004,9.017585170149491,-3.1861200000000167,5.524470000000008,6.377392055950472,-12.256380000000036,-2.7718500000000006,12.565906379044089,-7.636230000000069,-6.473420000000004,10.010852866229785,-0.4773400000000265,-1.9946300000000008,2.050951562689872,1.6837599999999495,-5.306370000000015,5.56710070992972,-10.689329999999984,9.793479999999988,14.497379982579591,-4.34928999999994,3.208529999999968,5.404719073642891,-14.954589999999996,9.239000000000004,17.578364061200347,-11.41232999999994,4.956649999999996,12.442252820586736,1.0059800000000223,7.389499999999998,7.457660894033733,6.583090000000027,1.3921300000000087,6.728677424650432,-13.603909999999985,7.68916999999999,15.626570403546628,-10.934199999999976,5.180919999999986,12.09953146557334,-3.9829999999999472,-1.18168,4.154594639961831,3.43100000000004,-1.9109399999999823,3.927270385853285,-26.680060000000022,0.7075199999999882,26.68943959984925,-20.585500000000025,2.31377999999998,20.71512462280642,9.51624000000001,4.08259000000001,177.414491,8.292771833432232,173.319347,9.531014658128164,188.516936,10.666704021242175,0.07590444,0.1691514479999999,0.038677494916465,0,0
28,933.3333333333334,427.08057,204.21257,0.6051228,426.04587,202.43239,0.65273917,425.70978,201.52405,0.21677835,430.5351,193.29669,0.742167,428.09424,191.4226,0.13450135,451.1205,190.84721,0.9728918,444.11786,183.72533,0.8318575,463.80658,231.00117,0.9596686,457.9599,212.64906,0.62180316,453.79388,239.95184,0.89796305,452.52628,232.74123,0.5752432,508.79352,193.00668,0.94568896,503.6952,192.22484,0.8782563,505.60925,228.79375,0.8407011,499.02194,226.35297,0.6779645,530.46045,220.51036,0.6204554,523.2,216.59648,0.4867563,1.53593674,0.65169735,-1.17099181,0.75044682,114.26133906522452,139.29281791363272,66.48107729348644,60.22743604636719,84.80564079504299,192.61576,187.28627,204.21257,104.75067,56.22650999999999,1.8630120940636,-134.51631726560836,0.6859152082352942,-4.3355699999999615,1.7762600000000075,4.685324621891176,6.805660000000046,-6.141619999999989,9.16714264424856,-4.187029999999993,2.57428999999999,4.915098089051722,6.958970000000022,-5.771220000000028,9.040699295369835,-4.285339999999962,1.4458799999999885,4.522688126545942,7.385010000000079,-6.966550000000012,10.152398317767156,-6.251700000000028,3.109400000000022,6.982271926099734,3.2575199999999427,-5.077589999999958,6.032690673198752,-6.268339999999967,0.5236099999999908,6.290171204959335,4.282280000000071,-8.240030000000019,9.286334928231962,-9.487619999999993,2.7453599999999767,9.87683829947619,-2.222139999999968,-4.328470000000039,4.865548141833578,-5.141720000000021,1.0680900000000122,5.251485580909486,5.522279999999967,-4.730419999999981,7.271344426913048,-5.641300000000001,2.049650000000014,6.002110529846986,3.506719999999973,-8.075559999999967,8.804076014664984,-1.6586300000000165,0.2993400000000008,1.685425142953568,4.986339999999984,-5.796660000000003,7.646231343034285,0.5478800000000206,4.58569,4.618303289142022,12.804260000000056,7.35754,14.767615548869134,0.0367200000000025,1.5240699999999947,1.5245122903079475,0.514060000000029,3.5186999999999955,3.5560522175018745,-1.2495099999999866,2.3019999999999925,2.619251656504188,9.439819999999996,-7.491479999999996,12.051243679504612,3.268750000000012,2.782929999999993,4.2929507273436105,18.223340000000007,-6.456070000000011,19.333157026220533,-1.1099000000000387,0.867999999999995,1.409007455622601,-2.115880000000061,-6.521500000000003,6.856158576374988,13.674499999999966,1.832650000000001,13.796758904630432,27.27840999999995,-5.856519999999989,27.900008577749528,-2.5711499999999887,-3.0320600000000013,3.9754496809920696,1.4118499999999583,-1.8503800000000008,2.3274936233854406,22.41802000000007,-1.5090499999999736,22.46875280523828,49.098080000000095,-2.2165699999999617,49.148088897243085,2.542464999999993,-6.973775000000018,181.394767,10.060502091628267,178.401203,8.636869571821318,194.13605,9.872140115496975,0.5689148399999999,0.278119766,0.2660774107754273,1,1
29,966.6666666666666,426.3284,205.05698,0.8399299,424.3523,201.57849,0.83355504,422.26657,203.4664,0.58680946,427.9475,194.01492,0.80005103,422.17673,198.83989,0.39128634,447.1961,195.9484,0.98104376,442.5829,196.10388,0.93505013,461.4576,234.67339,0.9411027,459.24872,225.40213,0.7386557,454.5144,239.03134,0.8474192,456.16684,230.91699,0.6412642,504.9746,196.82028,0.93704736,501.8961,199.45018,0.896021,508.7975,231.97441,0.8175906,509.949,231.5792,0.7162385,537.2036,225.57083,0.59217125,535.77716,219.21313,0.51302963,0.37856393,0.14468516,-0.14714162,0.31737391,101.89717435851476,121.16948573630728,83.50252791925914,78.4866068635376,87.93683550304242,198.13523,196.02614,205.05698,115.02687000000005,45.01642000000001,2.555220238410335,178.06967461542234,0.7651921058823529,-0.7521700000000351,0.8444100000000105,1.1308350706447297,3.5833999999999264,-0.9318499999999972,3.702580179077756,-1.6935699999999656,-0.8539000000000101,1.8966614233699963,2.4934600000000278,-3.4281900000000007,4.239083562245517,-3.443210000000022,1.942350000000005,3.953279477421267,0.8421299999999405,0.4964700000000164,0.977581402134838,-2.587600000000009,0.718229999999977,2.6854288471117638,3.664100000000019,-2.391170000000045,4.375308306725408,-5.917509999999993,7.417290000000008,9.488578162411905,0.3508299999999735,6.893680000000018,6.9026013669702975,-3.924399999999992,5.1011900000000026,6.436074484971407,5.563220000000001,2.355830000000026,6.041469337611516,-1.5349600000000123,12.37854999999999,12.473355695405298,3.606760000000008,11.310459999999978,11.871614174542549,-2.348979999999983,3.67222000000001,4.359232360037716,3.292320000000018,1.622569999999996,3.670436539064544,1.288819999999987,12.753070000000008,12.818028374804769,2.9474500000000035,12.453730000000007,12.797767477782998,0.7205200000000218,-0.920500000000004,1.168960786510839,0.1726400000000012,-5.506190000000004,5.508895795502038,3.6405599999999936,-1.8242400000000032,4.0720423243379935,3.603839999999991,-3.348309999999998,4.919231911762234,-3.818919999999992,3.813600000000008,5.3970079605648165,-2.569410000000005,1.5116000000000156,2.9810740192252982,-1.79910000000001,7.225339999999987,7.445958563247574,-5.067850000000021,4.442409999999995,6.739295974402681,3.188250000000039,3.1806600000000174,4.503502647728806,4.298150000000078,2.3126600000000224,4.880828792131596,10.92706000000004,5.226229999999987,12.11256043355412,-2.7474399999999264,3.393579999999986,4.3663270342473774,6.743150000000014,5.060470000000009,8.430802366524807,9.314300000000005,8.09253000000001,12.338769237282149,12.577159999999935,2.616649999999993,12.846470756129808,-9.840860000000134,4.125699999999966,10.670704101867054,5.519469999999984,2.9770049999999912,187.300949,9.315141534775051,184.413801,8.269803992201801,199.126816,6.84912960092633,-0.43307291,0.308972834,0.258235603514785,1,1
30,1000.0,417.94553,215.63577,0.6469798,416.01898,211.90009,0.66053385,414.73657,213.805,0.3807256,421.76755,201.34308,0.6708578,418.16095,206.12657,0.26214552,446.57455,199.00093,0.9391044,437.0381,199.93533,0.8397036,488.2959,224.9512,0.85189843,451.2644,221.42245,0.6014697,522.7547,229.28062,0.7062553,443.09177,229.93103,0.4959552,498.6715,203.62286,0.87933445,494.6369,207.1215,0.82398134,512.8819,235.83636,0.72781104,509.94565,236.67651,0.6441078,539.1463,221.62592,0.5412207,533.4653,218.51416,0.48968312,1.40092856,-0.25178658,1.37733398,0.04642699,155.27993892407292,102.64580261893836,85.3880522418804,79.70697093383104,83.8561050428441,205.37218,199.46813,215.63577,124.40973000000002,37.67558,3.302131691081288,174.40391033126062,0.6565745676470588,-8.382869999999969,10.578789999999998,13.49752967401811,-7.630699999999933,9.734379999999987,12.368740294565116,-8.333320000000015,10.321600000000018,13.26573212387468,-6.639750000000049,11.175500000000028,12.999156907757568,-7.53000000000003,10.338600000000014,12.790134868718184,-4.086790000000008,8.396250000000009,9.338033335055098,-6.1799499999999625,7.328159999999997,9.586120747627763,-3.592349999999953,6.60993000000002,7.523041481169696,-4.015780000000007,7.28667999999999,8.319987646072553,1.9017299999999864,-0.1306100000000185,1.9062098428557,-0.6215500000000134,3.0525300000000186,3.1151667376562897,3.302849999999978,-2.048659999999984,3.8866214014359297,-5.544800000000009,3.8314499999999896,6.739793479217298,-4.009839999999997,-8.5471,9.440960503868236,26.838300000000004,-9.722190000000012,28.544970227451635,29.187279999999987,-13.394410000000022,32.11397722248834,-7.984319999999968,-3.979680000000002,8.921166894795743,-9.273139999999955,-16.73275000000001,19.130500464496468,68.24029999999993,-9.75072,68.93341051049477,67.51977999999991,-8.830219999999997,68.09473897810894,-13.075069999999982,-0.9859600000000056,13.11219175525204,-16.715629999999976,0.8382799999999975,16.73663644987544,-6.303100000000029,6.802580000000006,9.273843014974991,-2.4841800000000376,2.988979999999998,3.886534666357702,-7.259199999999964,7.671320000000009,10.56149303755864,-5.460099999999954,0.44598000000002,5.478283505843734,4.08439999999996,3.8619500000000073,5.621119209063238,0.8961499999999205,0.68128999999999,1.1257179427369202,-0.0033500000000117,5.0973100000000215,5.097311100825632,-10.930410000000052,-0.1289199999999652,10.93117025457481,1.9426999999999448,-3.944909999999993,4.397317159143713,-4.800450000000069,-9.005380000000002,10.204959046801742,-2.311860000000024,-0.6989700000000028,2.415213390261845,-14.88901999999996,-3.315619999999996,15.25372913568347,7.236950000000036,1.7174800000000516,193.350704,9.251575290658144,189.420692,8.295235854282629,204.372012,7.553258695068346,-0.27094692,0.280281448,0.2816800846268462,1,1
31,1033.3333333333337,411.85666,213.29408,0.80869645,410.9197,209.25089,0.8033398,409.95145,210.7842,0.50667936,419.35034,202.29706,0.7939208,416.3301,204.28842,0.3926246,442.5443,202.58646,0.9677221,433.06238,205.27951,0.95429486,460.45914,217.6283,0.878436,446.58524,221.18724,0.7625118,473.84854,233.75659,0.77101415,442.22192,221.39566,0.6840168,504.03003,204.81468,0.92515326,496.88617,208.23712,0.91995764,509.15048,224.9762,0.7266929,508.17303,227.21153,0.6872509,530.3838,230.90988,0.49400187,529.99927,230.18317,0.46696594,1.53615736,0.81382334,1.08845494,-0.71605646,169.71664565138525,52.36750101197762,119.86329588624676,128.49928859960173,87.63021423014109,206.5259,203.932985,213.29408,120.43234999999991,31.45953,3.82816736842008,164.1444206859455,0.7378399547058824,-6.088870000000043,-2.34169,6.523637783706306,2.293999999999926,-12.920479999999998,13.122546987166768,-5.099280000000022,-2.6492000000000075,5.746382963082104,3.234039999999993,-12.970800000000024,13.367896893737646,-4.785119999999949,-3.0208000000000084,5.658852008526073,2.74488000000008,-13.359400000000022,13.638472589494802,-2.4172100000000114,0.9539800000000014,2.5986500388663454,3.762739999999951,-6.374179999999996,7.401917520480729,-1.830849999999998,-1.8381499999999849,2.5943799153169405,2.1849300000000085,-9.124829999999974,9.382773664210363,-4.030249999999967,3.585529999999977,5.394343374628609,-3.408699999999953,0.5329999999999586,3.45011951821957,-3.975719999999967,5.344179999999994,6.660826479559401,1.5690800000000422,1.5127300000000048,2.179533000277845,-27.836760000000027,-7.322900000000004,28.78385088391756,-54.67506000000003,2.399290000000008,54.72767835846596,-4.679160000000024,-0.235209999999995,4.685067987735101,3.305159999999944,3.744470000000007,4.994510807526567,-48.90615999999994,4.47596999999999,49.110556842561806,-117.14645999999988,14.22668999999999,118.00716842161611,-0.8698499999999854,-8.53537,8.579579247224189,12.205219999999995,-7.549409999999995,14.35134093374204,5.35853000000003,1.191820000000007,5.48946979892415,11.66163000000006,-5.610759999999999,12.941183950261328,2.2492699999999672,1.115620000000007,2.510741626950067,9.508469999999932,-6.555700000000002,11.54938111895606,-3.731419999999957,-10.860160000000008,11.483317048745098,-7.815819999999917,-14.722110000000017,16.668160220147247,-1.7726200000000176,-9.464979999999995,9.629539348525451,-1.769270000000006,-14.56229000000002,14.669376482216297,-8.762500000000045,9.28395999999998,12.76610040425816,-10.70519999999999,13.228869999999972,17.01776449822065,-3.4660299999999324,11.669009999999986,12.172886196009523,-1.1541699999999082,12.367979999999989,12.421716373726278,1.1537199999999928,-6.083230000000043,198.544473,7.372223786132563,194.418614,7.924331304937358,208.127142,5.920559100285692,-0.76248345,0.115944648,0.5349128434774428,1,1
32,1066.6666666666667,26.781334,127.85187,0.07140313,25.432188,125.1478,0.026232319,28.898796,125.51907,0.0376408,21.61019,125.34149,0.1815929,38.01159,125.57857,0.26225987,19.622038,136.44792,0.7564804,43.189922,134.89636,0.8976271,6.4610558,153.7628,0.68886286,58.569656,144.76413,0.89454496,4.5956173,166.71294,0.61863077,69.042206,145.69965,0.81311315,22.224943,178.90874,0.9555254,36.216072,178.05725,0.972244,14.899324,209.91602,0.9101205,26.780476,208.4963,0.94487727,11.445549,229.21536,0.79612255,23.953815,227.86612,0.8500062,1.9273813,1.73450245,0.82364916,-0.1670389,150.95859931308115,152.42013969206334,176.85347895055116,171.08007343120966,2.922409889321926,178.48299500000002,135.67214,127.85187,64.44658869999999,104.06756,0.6192764400426373,-3.766555485939468,0.6280755399411764,-385.075326,-85.44221,394.440588610871,-378.9864559999999,-83.10052,387.9902450522568,-385.487512,-84.10309,394.5553847756969,-380.388232,-81.45388999999999,389.0114949975359,-381.052654,-85.26513,390.47569388421687,-376.26753400000007,-82.24432999999999,385.151122235922,-397.74015,-76.95557,405.116510001811,-395.32294,-77.90955,402.926947313587,-378.31851,-78.70985,386.4196365295669,-376.48766,-76.87170000000002,384.255405158035,-422.9222620000001,-66.13853999999998,428.0625493646089,-418.8920120000001,-69.72406999999995,424.6551114195767,-389.872458,-70.38315,396.1746096241962,-385.896738,-75.72733,393.2568129199665,-453.9980842,-63.8655,458.4681696121556,-426.1613242,-56.54259999999999,429.8959639943803,-388.015584,-76.42311000000001,395.4700812563868,-383.336424,-76.18790000000001,390.83424884664055,-469.2529227,-67.04364999999999,474.0180971944159,-420.34676270000006,-71.51961999999997,426.38768387151447,-373.179714,-75.69601,380.779443866186,-372.309864,-67.16064,378.3188951095466,-481.805087,-25.90594000000001,482.5010462023489,-487.163617,-27.097760000000022,487.9166714978495,-460.670098,-30.179869999999998,461.65762610894507,-462.919368,-31.29549,463.9760219708121,-494.251156,-15.060180000000004,494.4805498995575,-490.5197360000001,-4.200019999999995,490.5377167695775,-481.392554,-18.71523000000002,481.75621519664463,-479.619934,-9.250250000000024,479.7091287595295,-518.9382509999999,-1.694519999999983,518.9410176012003,-510.1757509999999,-10.978479999999962,510.2938603702031,-506.045455,-2.3170499999999947,506.0507595556592,-502.57942500000007,-13.98605999999998,502.77399326899786,-28.04290499999999,-29.196624999999983,196.226413,11.415272294497342,184.477133,27.957370777671287,193.210254,36.87606970665034,0.54901756,0.046230472,0.5468099896471096,1,1
33,1100.0,407.52917,229.40903,0.24924976,404.19315,227.58328,0.2945674,408.70416,226.60931,0.12308032,406.46112,218.60059,0.50751406,418.383,216.64462,0.1716558,427.57245,216.40567,0.74326473,437.4974,208.59415,0.6082905,433.16675,233.62498,0.569611,469.59515,218.44113,0.3954357,410.3015,218.82224,0.42616224,487.18134,220.47456,0.33881363,486.5171,216.05302,0.6052207,492.67407,214.92168,0.5652253,505.2295,232.69572,0.48024464,514.11646,224.82248,0.4525419,526.80554,228.66228,0.38104853,536.57495,219.65282,0.3782623,8.21960251,1.9283167,7.942454,-0.87228696,39.08315860210004,169.5406031837005,127.76159649513436,142.25240229273265,87.00298662220759,215.48735,212.49991,229.40903,132.38179999999994,25.03082999999998,5.288749702317116,-38.20482867505919,0.4288346182352941,380.747836,101.55716,394.0593500552277,765.8231619999999,186.99937,788.3234614268911,378.760962,102.43548,392.3683140851155,764.248474,186.53857,786.6844145583244,379.805364,101.09024,393.0284355443383,760.858018,186.35537,783.3474628048049,384.85093,93.25910000000002,395.9892650750458,782.59108,170.21467,800.8881522277474,380.37141,91.06605,391.1207422369601,758.68992,169.7759,777.4536969687754,407.950412,79.95774999999998,415.7123770541747,830.8726740000001,146.09628999999995,843.6193017894235,394.307478,73.69779000000003,401.1355774019609,784.179936,144.08094000000003,797.3063961214959,426.7056942,79.86218,434.11486643175016,880.7037783999999,143.72768,892.3546331398849,411.025494,73.67699999999999,417.57664811019305,799.041078,150.10011,813.0170277143119,405.7058827,52.10929999999999,409.0386808162232,874.9588054,119.15294999999998,883.0347312765775,418.139134,74.77491,424.77243619116587,791.318848,150.47092,805.4979931481478,464.292157,37.14428000000001,465.77559466810953,946.097244,63.05022000000002,948.195826475968,456.457998,36.86443,457.94419980756703,917.128096,67.04429999999999,919.575381703466,490.330176,22.77969999999999,490.8590390614,984.581332,37.83988,985.3082034781344,487.335984,16.326180000000022,487.60937793959687,968.7285379999998,35.04141000000004,969.3620999143742,515.3599909999999,-0.5530799999999942,515.3602877803124,1034.2982419999998,1.141439999999989,1034.2988718400325,512.621135,-8.213300000000004,512.6869281984652,1018.66659,-5.896250000000009,1018.6836542059024,37.004354999999975,65.04725999999997,200.800731,13.91544752636448,189.519861,30.72742087654686,198.249546,40.31657901926619,-0.70524806,-0.278316284,0.504258188594466,1,1
34,1133.3333333333333,18.802288,141.62498,0.014766802,18.161034,138.79703,0.009885296,20.603226,138.9387,0.0068908287,19.73175,133.75311,0.29517505,29.872034,133.65184,0.16493237,20.704708,137.43958,0.88927436,37.782608,134.68849,0.9393248,13.25725,151.44714,0.87347305,55.676765,140.09772,0.9475411,13.79925,169.87936,0.77201015,68.61885,148.39117,0.8668304,25.739214,170.6014,0.98833525,36.22572,169.08177,0.99248284,20.419731,197.63734,0.9548668,32.39561,196.18167,0.96767586,13.989878,218.29593,0.8478913,24.216139,215.9328,0.87971234,6.85540467,1.72664179,-4.67880869,-4.70361888,150.3172753752485,164.1672997949992,173.84268407122542,165.5487493860076,2.9469178378787,169.841585,136.064035,141.62498,55.3616,84.64409,0.6540515627960373,-9.15119633255069,0.6712393292176471,-388.7268820000001,-87.78405000000001,398.515530718496,-769.474718,-189.34121,792.4275584843347,-386.032116,-88.78625,396.1108339499185,-764.7930779999999,-191.22173,788.3363509193946,-388.100934,-87.67060999999998,397.8799703798175,-767.906298,-188.76085,790.7659204851884,-386.72937,-84.84748000000002,395.9276455148684,-771.5803000000001,-178.10658000000004,791.870010284129,-388.510966,-82.99278000000001,397.2764430901756,-768.882376,-174.05883,788.3378618488232,-406.867742,-78.96608999999998,414.45989293303967,-814.818154,-158.92383999999996,830.1719165379623,-399.7147920000001,-73.90566000000001,406.48980494428014,-794.02227,-147.60345000000004,807.6250019085934,-419.9095,-82.17784,427.8751986003811,-846.6151941999999,-162.04002,861.9827464235603,-413.918385,-78.34340999999998,421.2672777838748,-824.9438789999999,-152.02040999999997,838.8340768925251,-396.50225,-48.94288,399.5115014086039,-802.2081327,-101.05218,808.5477297307643,-418.56249,-72.08339000000001,424.7241141598769,-836.701624,-146.8583,849.4921823555102,-460.777886,-45.45161999999999,463.01415743717104,-925.070043,-82.5959,928.7500563406884,-456.44835,-45.83991,458.7443662504539,-912.906348,-82.70434,916.6449738440356,-484.809769,-35.05838,486.0757164537823,-975.139945,-57.83807999999999,976.853702369341,-481.72085,-28.640810000000016,482.5715214578856,-969.056834,-44.96699000000004,970.099571029574,-512.815662,-10.366350000000011,512.92042697169,-1028.1756529999998,-9.813270000000015,1028.2224825834478,-512.358811,-3.720020000000005,512.3723155656774,-1024.979946,4.493279999999999,1024.989794713743,-45.64576499999998,-82.65011999999996,195.142002,19.78519948994149,177.52744,38.31709942900176,185.563146,47.05577214192468,-3.83133192,-1.282514842,1.949582508035276,1,1
35,1166.6666666666667,41.861965,131.01062,0.08889132,39.29232,128.63332,0.016861808,42.632393,128.98837,0.07803194,28.061344,128.90121,0.08007628,43.847157,129.78033,0.4925324,20.96758,137.41147,0.6686251,45.697235,137.69977,0.9426245,7.744005,148.89418,0.57853943,67.619255,143.04102,0.95789504,7.575651,152.03183,0.5832795,89.22118,142.42442,0.9138361,23.073708,177.47067,0.9329168,36.443825,177.68324,0.97399783,15.550591,202.29382,0.8456459,26.24461,202.6624,0.9362534,8.882488,221.24184,0.6656013,17.050467,222.39932,0.7912831,3.39654373,-0.23164365,0.33063876,-3.37246624,134.0407823069864,164.67182211521313,177.47264176787797,177.23289273658972,5.102617991542891,177.576955,137.55562,131.01062,81.64552900000001,93.766,0.8707370275927627,0.6679278362048863,0.6204053969411764,23.059677,-10.614360000000003,25.38529774404722,411.78655900000007,77.16969,418.9550467863546,21.131286,-10.163710000000007,23.44850206256033,407.163402,78.62253999999999,414.68486797116816,22.029167,-9.950330000000008,24.172158898674923,410.130101,77.72027999999997,417.4292055780819,8.329593999999997,-4.8519000000000005,9.63966129149961,395.058964,79.99558000000002,403.0767642227591,13.975123000000004,-3.8715100000000007,14.501470702836633,402.486089,79.12127000000001,410.1892577883151,0.2628720000000015,-0.028109999999998,0.2643706876414265,407.130614,78.93797999999998,414.712601137821,7.914626999999996,3.0112799999999997,8.46812421894772,407.629419,76.91694000000001,414.822804210715,-5.513245000000001,-2.552959999999985,6.075646071951931,414.396255,79.62488000000002,421.97675015697183,11.942489999999992,2.9432999999999936,12.299840742468977,425.860875,81.28670999999997,433.54932139076135,-6.223599000000001,-17.847529999999978,18.901521410026767,390.278651,31.095350000000025,391.5154482494941,20.60233000000001,-5.966749999999991,21.448965172972805,439.16482,66.11664000000002,444.11389216114594,-2.6655060000000006,6.86927,7.368296449582902,458.11238,52.32088999999999,461.090477281473,0.2181049999999942,8.601470000000006,8.60423476852678,456.6664549999999,54.44138000000001,459.9001141319399,-4.869139999999998,4.656480000000016,6.737308834393755,479.940629,39.714860000000016,481.5810185936892,-6.150999999999996,6.480729999999994,8.935024472988301,475.56985,35.12154000000001,476.86497543958296,-5.107389999999999,2.945909999999998,5.896085001100304,507.708272,13.312260000000007,507.8827676969692,-7.165671999999997,6.466520000000003,9.65208454801262,505.193139,10.186540000000008,505.2958275009253,7.735369999999989,53.38113499999997,189.582957,20.09462554433103,165.14493799999997,39.44147934644538,168.638116,48.72451883734138,1.3311526399999996,-1.966293488,1.9664391734861228,1,1
36,1200.0,406.8186,220.02905,0.22094053,403.44757,218.16208,0.13222523,407.5916,219.50867,0.14300966,401.25092,218.40976,0.19247238,410.4525,222.1184,0.17308047,416.82648,221.81989,0.5612695,421.54474,224.98866,0.6017253,447.15402,221.94817,0.45096686,441.50046,222.31752,0.55384153,471.5648,221.11935,0.45035425,452.10556,216.30931,0.5463133,462.209,221.71147,0.47964275,465.94196,226.75327,0.525665,495.95868,213.47134,0.36585414,497.15326,213.14682,0.42045113,527.7444,225.22006,0.29448777,526.06323,221.89767,0.33363128,2.39315934,-0.16286293,2.34247491,0.46205907,177.81303023204217,158.0906404057056,145.99396759428055,139.60468022935785,88.94316988310587,224.23237,223.404275,220.02905,126.49348000000003,13.606449999999995,9.29658145243018,33.88519706683777,0.3791724164705882,364.956635,89.01843000000002,375.6562608425263,341.896958,99.63279000000004,356.11827070909726,364.15525,89.52876,374.9992599588699,343.023964,99.69247,357.217060696958,364.9592070000001,90.5203,376.0174829527995,342.9300400000001,100.47063,357.34487519341667,373.189576,89.50855000000001,383.7736835143367,364.859982,94.36045,376.86430049719866,366.605343,92.33807000000002,378.05528258109626,352.63022,96.20958000000002,365.5192954428327,395.8589,84.40841999999998,404.7580142209743,395.596028,84.43652999999998,404.5067922394106,375.847505,87.28889000000001,385.8506153061793,367.932878,84.27761000000001,377.4616778703171,439.410015,73.05399,445.441406626304,444.92326,75.60694999999998,451.3015822898586,373.881205,79.2765,382.1935620919091,361.938715,76.3332,369.9005147848422,463.989149,69.08751999999998,469.1044828281804,470.212748,86.93504999999996,478.1816927698236,362.88438,73.88489000000001,370.3296507414665,342.28205,79.85164,351.4730233785975,439.135292,44.24079999999998,441.3581913418684,441.800798,37.37152999999998,443.378592591002,429.498135,49.07002999999997,432.2921648754221,429.28003,40.46855999999997,431.1833119512796,480.408089,11.177519999999989,480.5381035151971,485.277229,6.521039999999971,485.321041114642,470.90865,10.48442,471.0253493258711,477.05965,4.003690000000006,477.076450049401,518.8619120000001,3.978219999999993,518.8771626875326,523.9693020000001,1.0323099999999954,523.970318913489,509.012763,-0.5016499999999837,509.01301019680886,516.1784349999999,-6.968169999999986,516.2254663925426,46.655415000000005,38.920045000000016,193.124251,24.8293706668064,169.039196,44.82279749997999,169.98511,50.33417317331392,3.83452531,-1.7306703820000002,2.2092840679415,1,1
37,1233.3333333333337,409.00476,207.66855,0.13812454,404.66037,206.08629,0.06612768,410.0297,207.0521,0.10570112,396.09042,208.86337,0.14876294,411.07465,212.00607,0.22321548,408.76514,217.29764,0.5477521,421.0652,223.5018,0.66987777,443.33923,218.66425,0.41950884,452.04834,226.1965,0.63787013,470.87512,219.84009,0.4412183,459.50494,215.40062,0.63214934,455.39606,223.27844,0.6403365,465.2076,229.89688,0.71838343,494.82968,205.60127,0.65293527,499.75406,208.35197,0.7448752,526.7096,223.336,0.6200403,531.3455,227.87106,0.68861854,1.39600928,0.96071931,-0.8968515,-0.47065666,179.8183689579043,119.6617428380388,126.76732957068616,116.3399961639638,82.23625940576633,226.58766,220.39972,207.66855,135.25508000000002,24.29561000000001,5.567058181825514,26.766413310927035,0.4762057341176471,2.186159999999973,-12.360500000000002,12.552340650077976,-362.770475,-101.37893000000004,376.6697558600512,1.2128000000000156,-12.075790000000012,12.136539373482885,-362.94245,-101.60455000000002,376.8961482858441,2.438099999999963,-12.45657,12.692929834159637,-362.5211070000001,-102.97687,376.8630902270776,-5.160500000000013,-9.546390000000002,10.851927122963009,-378.350076,-99.05494000000002,391.10185520860085,0.6221500000000333,-10.112330000000014,10.13145047125042,-365.983193,-102.45040000000004,380.05234115662967,-8.06134000000003,-4.5222499999999854,9.243156801553264,-403.92024,-88.93066999999996,413.5942750429538,-0.4795399999999858,-1.4868600000000072,1.562277590954952,-376.327045,-88.77575000000002,386.6564089556703,-3.814790000000016,-3.283919999999995,5.033562685663117,-443.224805,-76.33791,449.7507134740935,10.54788000000002,3.878979999999984,11.238516731971364,-363.333325,-75.39752000000001,371.0739698196385,-0.6896800000000098,-1.2792599999999936,1.4533288168890055,-464.678829,-70.36677999999998,469.97648648456834,7.399379999999951,-0.9086900000000072,7.45496759888997,-355.48500000000007,-74.79358000000002,363.2680344239174,-6.812940000000026,1.5669699999999978,6.990818723475838,-445.948232,-42.67382999999998,447.9853584558258,-0.734359999999981,3.143610000000024,3.2282454122479787,-430.232495,-45.92641999999995,432.67682605836586,-1.129000000000019,-7.870069999999998,7.950637886666706,-481.537089,-19.047589999999985,481.9136631881297,2.6007999999999925,-4.794849999999997,5.454791211632204,-468.30785,-15.279269999999997,468.5570386445554,-1.0348000000000184,-1.8840599999999768,2.1495332338905464,-519.8967120000001,-5.86227999999997,519.9297620594626,5.28227000000004,5.973389999999995,7.973942841844325,-503.7304929999999,6.475039999999979,503.7721069303307,2.355289999999997,-44.30012500000001,202.745184,26.965775515131966,185.984712,45.06973247039806,185.948446,46.11075582837518,-0.93271573,-1.7913939339999998,2.159166435845664,1,1
38,1266.6666666666663,408.96307,203.9838,0.17612392,404.1936,202.28375,0.0787462,408.82996,204.02504,0.14279655,395.37854,207.22394,0.1589544,409.47897,212.20718,0.2966805,407.7483,218.8791,0.59924793,423.90845,225.53159,0.74511164,441.22357,220.61583,0.42890438,461.36115,228.29077,0.7031211,467.56668,219.4499,0.4517448,474.4319,217.99088,0.6856282,455.0796,223.53365,0.65829444,466.82956,230.24597,0.7520324,492.71478,202.04022,0.65256435,501.7343,205.36716,0.76401347,522.41504,217.06555,0.62074006,529.97284,221.55298,0.70265067,1.72427789,1.23043801,-1.16362245,-0.32425198,174.4958781345099,137.54808511408604,123.43453675994044,114.69957695344056,84.07346241154508,226.88981,222.205345,203.9838,134.59430000000003,28.205749999999995,4.771874359948794,22.37501340209284,0.506903235882353,-0.04168999999996,-3.684750000000008,3.684985836960579,-2.2278499999999326,8.675749999999994,8.957229129870441,-0.4667699999999968,-3.802539999999994,3.8310813988350527,-1.6795700000000124,8.273250000000019,8.44201521838242,-1.199739999999963,-3.027060000000006,3.256143165034355,-3.637839999999926,9.429509999999992,10.106905496030889,-0.7118800000000078,-1.6394300000000044,1.787317503774868,4.448620000000005,7.906959999999998,9.072498903058628,-1.5956800000000158,0.2011099999999999,1.6083034211553646,-2.217830000000049,10.313440000000014,10.549209190384865,-1.016840000000002,1.5814599999999928,1.8801540674104291,7.044500000000028,6.103709999999978,9.3209578914455,2.843250000000012,2.0297899999999918,3.493439280508541,3.3227899999999977,3.5166499999999985,4.838156736464826,-2.115659999999991,1.9515799999999783,2.878312306196094,1.6991300000000251,5.235499999999973,5.5043167611339205,9.312810000000011,2.094270000000023,9.545386159239465,-1.2350700000000074,-1.7847099999999614,2.170388833596386,-3.308439999999962,-0.3901899999999898,3.331369608689456,-2.618759999999952,0.8890700000000038,2.7655649336979518,14.926960000000008,2.5902600000000007,15.150035699931545,7.527580000000057,3.498950000000008,8.301030764844866,-0.3164599999999495,0.2552100000000052,0.4065452935405485,6.496480000000076,-1.3117599999999925,6.627591318722133,1.6219600000000014,0.3490899999999897,1.659101585105625,2.3563199999999824,-2.794520000000034,3.655350321487683,-2.1148999999999774,-3.5610499999999945,4.141724171465293,-0.9858999999999584,4.309020000000004,4.420367877269939,1.9802400000000373,-2.9848099999999818,3.5819605237495344,-0.6205599999999549,1.810040000000015,1.913462702850515,-4.294560000000047,-6.270450000000011,7.6001176830428445,-3.2597600000000284,-4.386390000000034,5.465020813290694,-1.3726599999999962,-6.318080000000009,6.465472168527222,-6.654930000000036,-12.291470000000004,13.977422082265404,0.3021500000000117,-2.053139999999985,205.02567600000003,28.73677586311642,187.925799,46.67751754337053,180.8634,41.26733084544548,0.14640468,-1.681786938,2.23022858729776,1,1
39,1300.0,399.67148,215.86469,0.20953096,394.84015,214.25706,0.10756246,399.27612,217.27466,0.15261297,389.1597,216.94226,0.1846458,399.94864,225.009,0.24106817,407.4932,221.5991,0.64995897,411.40427,232.58424,0.76509726,439.2456,213.36194,0.5455158,431.9074,225.90417,0.7382343,459.6931,219.53194,0.5671932,435.83896,215.86116,0.7409883,457.8219,221.62453,0.77644217,462.22388,230.35889,0.8340845,492.95584,200.81714,0.77424437,499.06253,206.73846,0.8406567,523.4524,217.143,0.732077,529.92267,222.18637,0.78718686,1.16280687,1.10368496,0.32572585,-0.1670389,148.66589246173,129.42495471438403,121.20301125944351,120.74102917586148,91.24595516743324,225.99171,227.09167,215.86469,140.76297000000005,31.7671,4.431092720736464,70.40260330915564,0.5674764582352941,-9.291590000000042,11.880889999999994,15.082744840386336,-9.249900000000082,15.565640000000002,18.106623059521663,-9.35345000000001,11.973309999999998,15.19365588851479,-8.886680000000013,15.775849999999991,18.106643108121947,-9.553840000000037,13.24962000000002,16.334879518686424,-8.354100000000074,16.276680000000027,18.29539009238125,-6.21884,9.718320000000006,11.537751712010452,-5.506959999999992,11.35775000000001,12.62240442641972,-9.530329999999992,12.801819999999992,15.95975517422807,-7.934649999999976,12.600709999999992,14.89082143894686,-0.2550999999999703,2.719999999999999,2.731936311483117,0.7617400000000316,1.138540000000006,1.3698617299567362,-12.50418000000002,7.05265,14.355987931692493,-15.347430000000031,5.0228600000000085,16.14845906532574,-1.9779699999999707,-7.253889999999984,7.518728978557457,0.1376900000000205,-9.205469999999965,9.206499685385284,-29.453750000000014,-2.386600000000016,29.55028339326885,-38.76656000000003,-4.480870000000039,39.02466361405954,-7.873580000000004,0.0820399999999779,7.874007402714329,-4.565140000000042,0.4722299999999677,4.589499361858585,-38.59294,-2.129719999999992,38.65165876287847,-53.51990000000001,-4.7199799999999925,53.727627038707006,2.7423,-1.9091200000000013,3.3413991776499867,3.0587599999999497,-2.1643300000000067,3.747043779634783,-4.605680000000007,0.1129200000000025,4.607064053038558,-6.227640000000008,-0.2361699999999871,6.232116513553008,0.2410600000000045,-1.2230800000000102,1.246609245112528,2.355959999999982,2.3379699999999843,3.31913411035165,-2.6717700000000377,1.3712999999999909,3.003134799322231,-4.652010000000075,4.356109999999973,6.373138267149118,1.0373600000000351,0.0774499999999989,1.040247216819191,5.331920000000082,6.34790000000001,8.290066664171103,-0.05016999999998,0.6333900000000199,0.6353738434969,1.3224900000000162,6.951470000000029,7.076151140344619,-0.8980999999999995,-1.2002500000000111,216.255701,21.64657110674638,206.131326,38.41314682275117,195.711342,36.72567279785594,0.15721308,-0.774470942,1.4952056678218757,1,1
40,1333.3333333333333,398.0843,222.1228,0.3132741,393.7603,220.49167,0.19463257,396.33466,223.31235,0.23785488,391.5784,222.36594,0.26170668,398.18262,229.86176,0.32775995,409.21298,226.63145,0.7403245,411.8197,234.53099,0.8296769,434.27567,217.02625,0.59012675,434.62268,225.22119,0.76265746,447.89343,215.18306,0.5630886,441.84677,214.97191,0.7283514,458.5384,220.14224,0.81463915,462.4235,227.23392,0.862024,490.90463,200.86343,0.7913615,496.6662,204.84048,0.85207796,515.09534,211.82066,0.7609047,522.6579,214.39789,0.81124926,1.16041746,1.14839243,-0.05305941,-0.15795002,166.73906997185802,147.38644480772425,124.8517901999892,126.627837108698,97.85496696824156,223.68808,230.58122,222.1228,131.07950000000005,33.66756000000001,3.8933470707901896,71.73794858773658,0.6142182564705883,-1.5871799999999894,6.258110000000016,6.456243576918406,7.704410000000053,-5.6227799999999775,9.538007568486227,-1.0798500000000215,6.234610000000004,6.327435331522567,8.273599999999988,-5.738699999999994,10.06901855445702,-2.9414600000000064,6.037689999999998,6.716091681007639,6.61238000000003,-7.211930000000024,9.78445213536766,2.418700000000001,5.42367999999999,5.938553227209461,8.637540000000001,-4.294640000000015,9.64629617942556,-1.766020000000026,4.852760000000018,5.16411718089358,7.764309999999966,-7.9490599999999745,11.111798443982822,1.7197800000000143,5.032350000000008,5.318100203164673,1.9748799999999849,2.312350000000009,3.04090669651339,0.4154300000000148,1.9467500000000089,1.99058223829111,12.919610000000034,-5.105899999999991,13.891959450059622,-4.9699300000000335,3.66431,6.174736592033732,-2.991960000000063,10.918199999999985,11.32072947656643,2.715280000000007,-0.6829799999999864,2.799858417634724,32.16903000000002,1.7036200000000292,32.21410890037627,-11.799669999999992,-4.34887999999998,12.575570339483598,-3.926089999999988,-4.430919999999958,5.920070500804829,6.007810000000006,-0.8892500000000041,6.073264901072576,44.600750000000005,1.2404699999999875,44.61799711308656,0.7164999999999964,-1.482290000000006,1.6463765954665457,-2.025800000000004,0.4268299999999954,2.070277635704934,0.1996199999999817,-3.1249699999999905,3.1313392734259784,4.805299999999988,-3.237889999999993,5.794380013608,-2.051210000000026,0.046289999999999,2.051732250611689,-2.2922700000000304,1.2693700000000092,2.620267534012541,-2.3963299999999776,-1.8979799999999896,3.056914383704564,0.2754400000000601,-3.2692799999999806,3.2808625256172963,-8.357060000000047,-5.322339999999997,9.90796421668956,-9.394420000000082,-5.399789999999996,10.835721442548325,-7.264769999999999,-7.788480000000021,10.65069499437949,-7.214600000000018,-8.421870000000041,11.089560291413765,-2.3036299999999983,-1.4055299999999988,225.477926,1.435606007206056,224.736446,4.083405669467552,213.933778,7.84531687241982,0.0090888799999999,-0.1315676979999999,0.3558284451289849,1,1
41,1366.6666666666667,393.5755,220.8226,0.21346466,389.32,218.59294,0.14320496,392.99387,221.92932,0.1409894,387.53125,218.99887,0.23200771,395.78702,227.57281,0.18066953,408.78156,220.7916,0.61791146,412.01312,232.49991,0.6801359,442.82654,210.21797,0.5082241,434.7947,225.19385,0.626704,466.49084,218.9066,0.53422993,439.73788,217.6666,0.6511138,462.55237,218.98694,0.7469347,466.8034,227.5541,0.79045594,488.74362,200.03891,0.7891133,495.76294,205.42926,0.8344938,519.44556,217.83328,0.77621514,528.5127,221.59502,0.8131557,1.14116651,1.06094265,-0.37657446,-0.18669053,142.5850297707947,141.07415388243712,114.02026685677602,116.34886342012577,93.55814499026174,223.27052,226.645755,220.8226,140.98145,32.46100000000001,4.343102358426961,74.57019283528474,0.5458249429411763,-4.508800000000008,-1.300200000000018,4.692525703712247,-2.9216200000000185,-7.558310000000034,8.103327309229254,-4.440299999999979,-1.8987300000000005,4.8292276507636105,-3.360449999999957,-8.133340000000004,8.800218392636616,-3.34078999999997,-1.3830300000000193,3.615750240959662,-0.3993299999999635,-7.420720000000017,7.431456772887818,-4.047149999999988,-3.367069999999984,5.264654167882235,-6.465849999999989,-8.790749999999974,10.912584560267996,-2.3956000000000017,-2.28895,3.313335398431618,-0.6295799999999758,-7.1417100000000175,7.169406718864555,-0.4314200000000028,-5.839850000000013,5.855763932989457,-2.151200000000017,-10.87220000000002,11.082977681110815,0.1934200000000032,-2.031080000000003,2.0402689192358965,-0.2220100000000116,-3.977830000000012,3.9840205758755936,8.550870000000032,-6.808279999999996,10.930235784981972,13.520800000000063,-10.472589999999997,17.10225639932058,0.1720199999999749,-0.0273400000000094,0.1741790917417814,-2.543260000000032,0.6556399999999769,2.626411094478573,18.597409999999968,3.7235399999999856,18.966507555153605,30.39707999999996,8.072419999999966,31.45069851661163,-2.108889999999974,2.69468999999998,3.421808181093701,-8.11669999999998,3.583939999999984,8.87273603876502,4.013969999999972,-1.155299999999983,4.176921504038559,3.297469999999976,0.3269900000000234,3.313643140261162,4.3799000000000206,0.3201799999999934,4.391587326058788,4.180280000000039,3.445149999999984,5.416991729816487,-2.161009999999976,-0.8245200000000068,2.312962915937025,-0.1097999999999501,-0.8708100000000059,0.8777050165630815,-0.9032599999999888,0.5887799999999856,1.078211721323768,1.4930699999999888,2.4867599999999754,2.900557415825421,4.350220000000036,6.012619999999998,7.421321534120476,12.707280000000084,11.334959999999995,17.02810274810444,5.854799999999955,7.197130000000016,9.2777887062004,13.119569999999952,14.985610000000037,19.917118869379674,-0.4175600000000088,1.8860699999999893,225.285556,1.686717140402074,225.384742,4.076338743649719,214.092488,8.005834915670887,-0.0287405099999999,-0.261317618,0.1350241716075192,1,1
