frame_id,timestamp_ms,nose_x,nose_y,nose_conf,left_eye_x,left_eye_y,left_eye_conf,right_eye_x,right_eye_y,right_eye_conf,left_ear_x,left_ear_y,left_ear_conf,right_ear_x,right_ear_y,right_ear_conf,left_shoulder_x,left_shoulder_y,left_shoulder_conf,right_shoulder_x,right_shoulder_y,right_shoulder_conf,left_elbow_x,left_elbow_y,left_elbow_conf,right_elbow_x,right_elbow_y,right_elbow_conf,left_wrist_x,left_wrist_y,left_wrist_conf,right_wrist_x,right_wrist_y,right_wrist_conf,left_hip_x,left_hip_y,left_hip_conf,right_hip_x,right_hip_y,right_hip_conf,left_knee_x,left_knee_y,left_knee_conf,right_knee_x,right_knee_y,right_knee_conf,left_ankle_x,left_ankle_y,left_ankle_conf,right_ankle_x,right_ankle_y,right_ankle_conf,acc_x,acc_y,acc_z,acc_mag,left_elbow_angle,right_elbow_angle,left_knee_angle,right_knee_angle,spine_angle,hip_height,shoulder_height,head_height,bbox_width,bbox_height,bbox_aspect_ratio,shoulder_tilt,avg_confidence,nose_vx,nose_vy,nose_speed,nose_ax,nose_ay,nose_accel,left_eye_vx,left_eye_vy,left_eye_speed,left_eye_ax,left_eye_ay,left_eye_accel,right_eye_vx,right_eye_vy,right_eye_speed,right_eye_ax,right_eye_ay,right_eye_accel,left_ear_vx,left_ear_vy,left_ear_speed,left_ear_ax,left_ear_ay,left_ear_accel,right_ear_vx,right_ear_vy,right_ear_speed,right_ear_ax,right_ear_ay,right_ear_accel,left_shoulder_vx,left_shoulder_vy,left_shoulder_speed,left_shoulder_ax,left_shoulder_ay,left_shoulder_accel,right_shoulder_vx,right_shoulder_vy,right_shoulder_speed,right_shoulder_ax,right_shoulder_ay,right_shoulder_accel,left_elbow_vx,left_elbow_vy,left_elbow_speed,left_elbow_ax,left_elbow_ay,left_elbow_accel,right_elbow_vx,right_elbow_vy,right_elbow_speed,right_elbow_ax,right_elbow_ay,right_elbow_accel,left_wrist_vx,left_wrist_vy,left_wrist_speed,left_wrist_ax,left_wrist_ay,left_wrist_accel,right_wrist_vx,right_wrist_vy,right_wrist_speed,right_wrist_ax,right_wrist_ay,right_wrist_accel,left_hip_vx,left_hip_vy,left_hip_speed,left_hip_ax,left_hip_ay,left_hip_accel,right_hip_vx,right_hip_vy,right_hip_speed,right_hip_ax,right_hip_ay,right_hip_accel,left_knee_vx,left_knee_vy,left_knee_speed,left_knee_ax,left_knee_ay,left_knee_accel,right_knee_vx,right_knee_vy,right_knee_speed,right_knee_ax,right_knee_ay,right_knee_accel,left_ankle_vx,left_ankle_vy,left_ankle_speed,left_ankle_ax,left_ankle_ay,left_ankle_accel,right_ankle_vx,right_ankle_vy,right_ankle_speed,right_ankle_ax,right_ankle_ay,right_ankle_accel,hip_velocity,hip_acceleration,hip_height_mean_5,hip_height_std_5,shoulder_height_mean_5,shoulder_height_std_5,head_height_mean_5,head_height_std_5,acc_mag_diff,acc_mag_mean_5,acc_mag_std_5,label_binary,label_3class
0,0.0,513.70953,94.1815,0.9388793,515.8737,91.954765,0.90241265,511.7142,92.09081,0.87716216,519.5224,92.87154,0.75407845,508.7688,93.10785,0.65392995,525.1672,105.17343,0.9931311,503.83438,105.40478,0.994303,530.66583,120.80299,0.95182943,497.76465,120.114044,0.94838184,525.71686,131.76984,0.9143842,502.40875,129.86845,0.90528893,521.6201,137.50424,0.9944476,508.21643,137.55084,0.99502796,519.7243,162.58957,0.9838869,507.53955,162.53094,0.98322636,515.93134,187.41064,0.9626501,509.8435,187.27905,0.96125346,0.98862951,-0.01842341,0.96882561,0.19602506,136.32958261312567,132.11741708346003,175.633580823888,173.12917082888427,0.742053464584519,137.52754,105.289105,94.1815,32.90118000000001,95.455875,0.3446742241410053,179.37866353467928,0.9243690229411764,0.0,0.0,0.0,0.0,0.0,0.0,0.0,0.0,0.0,0.0,0.0,0.0,0.0,0.0,0.0,0.0,0.0,0.0,0.0,0.0,0.0,0.0,0.0,0.0,0.0,0.0,0.0,0.0,0.0,0.0,0.0,0.0,0.0,0.0,0.0,0.0,0.0,0.0,0.0,0.0,0.0,0.0,0.0,0.0,0.0,0.0,0.0,0.0,0.0,0.0,0.0,0.0,0.0,0.0,0.0,0.0,0.0,0.0,0.0,0.0,0.0,0.0,0.0,0.0,0.0,0.0,0.0,0.0,0.0,0.0,0.0,0.0,0.0,0.0,0.0,0.0,0.0,0.0,0.0,0.0,0.0,0.0,0.0,0.0,0.0,0.0,0.0,0.0,0.0,0.0,0.0,0.0,0.0,0.0,0.0,0.0,0.0,0.0,0.0,0.0,0.0,0.0,0.0,0.0,137.52754,0.0,105.289105,0.0,94.1815,0.0,0.0,0.19602506,0.0,0,0
1,33.333333333333336,513.76697,94.43607,0.9382191,515.92303,92.20122,0.9013974,511.75998,92.33512,0.8761979,519.5475,93.02365,0.752094,508.7697,93.249054,0.65277785,525.1791,105.159935,0.99308115,503.81894,105.38548,0.9942386,530.6948,120.745926,0.9517642,497.76678,120.062164,0.9480302,525.81366,131.67554,0.9143434,502.28473,129.74553,0.90489185,521.61035,137.40125,0.99449265,508.1971,137.44798,0.9950566,519.75104,162.52856,0.98417205,507.56396,162.47432,0.98348606,515.9602,187.42949,0.96339124,509.86514,187.30634,0.9619561,0.98923093,-0.00147387,0.97054513,0.1913578,136.44629671277133,132.5781746215514,175.5758529598602,173.25631452112853,0.7213013725731704,137.42461500000002,105.2727075,94.43607,32.928020000000004,95.22826999999998,0.3457798787505027,179.39502811096983,0.92409355,0.0574400000000423,0.2545700000000011,0.2609698038088035,0.0574400000000423,0.2545700000000011,0.2609698038088035,0.0493300000000545,0.2464550000000116,0.2513434222831604,0.0493300000000545,0.2464550000000116,0.2513434222831604,0.0457799999999792,0.2443099999999987,0.2485622346616586,0.0457799999999792,0.2443099999999987,0.2485622346616586,0.0251000000000658,0.1521100000000075,0.1541669941978684,0.0251000000000658,0.1521100000000075,0.1541669941978684,0.0009000000000014,0.1412040000000018,0.1412068681615754,0.0009000000000014,0.1412040000000018,0.1412068681615754,0.0118999999999687,-0.0134949999999918,0.0179923601842291,0.0118999999999687,-0.0134949999999918,0.0179923601842291,-0.0154400000000123,-0.0193000000000012,0.0247160595564994,-0.0154400000000123,-0.0193000000000012,0.0247160595564994,0.0289699999999584,-0.0570639999999968,0.0639965701893252,0.0289699999999584,-0.0570639999999968,0.0639965701893252,0.0021299999999655,-0.0518800000000112,0.0519237065318051,0.0021299999999655,-0.0518800000000112,0.0519237065318051,0.0968000000000302,-0.0942999999999756,0.1351396684915323,0.0968000000000302,-0.0942999999999756,0.1351396684915323,-0.1240199999999731,-0.1229199999999934,0.174614680940612,-0.1240199999999731,-0.1229199999999934,0.174614680940612,-0.0097499999999399,-0.1029900000000054,0.1034504838074716,-0.0097499999999399,-0.1029900000000054,0.1034504838074716,-0.0193300000000249,-0.1028599999999926,0.1046605393641722,-0.0193300000000249,-0.1028599999999926,0.1046605393641722,0.0267400000000179,-0.0610100000000102,0.0666126692154143,0.0267400000000179,-0.0610100000000102,0.0666126692154143,0.0244099999999889,-0.056619999999981,0.0616577043036578,0.0244099999999889,-0.056619999999981,0.0616577043036578,0.0288600000000087,0.0188499999999862,0.0344705976159391,0.0288600000000087,0.0188499999999862,0.0344705976159391,0.0216399999999907,0.0272899999999935,0.0348286333352207,0.0216399999999907,0.0272899999999935,0.0348286333352207,-0.1029249999999706,-0.1029249999999706,137.4760775,0.0727789654536046,105.28090625,0.0115947834445139,94.308785,0.1800081732866601,-0.00466726,0.19369143,0.0033002511955607,0,0
2,66.66666666666667,513.8375,94.69978,0.93845,515.9864,92.4507,0.90166104,511.81396,92.58681,0.8767356,519.59674,93.17917,0.7517978,508.77405,93.404236,0.65369236,525.2385,105.18789,0.9931357,503.77844,105.41168,0.99427444,530.7468,120.81166,0.9523526,497.77667,120.106155,0.9484448,525.8257,131.87376,0.91524684,502.34412,129.80368,0.9055961,521.657,137.40569,0.9945515,508.16638,137.45667,0.9951048,519.8864,162.5466,0.98428994,507.51218,162.49998,0.9835919,516.06604,187.44519,0.96354055,509.77768,187.3393,0.9620876,0.99340868,-0.00884324,0.97398417,0.19528812,136.59701164568543,132.56304121154767,175.30527072503884,173.29230445290878,0.7191146387029539,137.43117999999998,105.299785,94.69978,32.97012999999998,94.99449,0.3470741266459334,179.40252926914204,0.9243855041176472,0.0705299999999624,0.2637100000000032,0.2729788361759871,0.0130899999999201,0.0091400000000021,0.0159652027859951,0.0633699999999635,0.2494799999999912,0.2574024617209225,0.014039999999909,0.0030249999999796,0.0143621803705886,0.0539800000000241,0.2516899999999964,0.2574134738120769,0.0082000000000448,0.0073799999999977,0.0110319717186322,0.0492399999999406,0.1555199999999956,0.1631289306039637,0.0241399999998748,0.0034099999999881,0.0243796575036212,0.004349999999988,0.1551819999999963,0.1552429567613255,0.0034499999999866,0.0139779999999944,0.0143974644989926,0.059400000000096,0.0279549999999915,0.0656493870878543,0.0475000000001273,0.0414499999999833,0.0630424658465285,-0.0405000000000086,0.0262000000000028,0.0482357751052147,-0.0250599999999963,0.045500000000004,0.0519447167669647,0.0520000000000209,0.0657340000000061,0.0838150270297814,0.0230300000000625,0.122798000000003,0.1249389038850734,0.0098900000000412,0.0439910000000054,0.0450890250615523,0.0077600000000757,0.0958710000000166,0.0961845426303227,0.0120399999999563,0.198219999999992,0.1985853217133527,-0.0847600000000738,0.2925199999999677,0.3045524716694869,0.0593899999999507,0.0581500000000119,0.083117955942116,0.1834099999999239,0.1810700000000054,0.2577315910011305,0.0466499999999996,0.0044399999999882,0.0468608162540929,0.0563999999999396,0.1074299999999937,0.1213349286066952,-0.0307199999999738,0.0086900000000014,0.0319254522285655,-0.0113899999999489,0.111549999999994,0.1121299897440355,0.1353599999999915,0.0180400000000133,0.1365568423770781,0.1086199999999735,0.0790500000000236,0.1343398931814298,-0.0517800000000079,0.0256599999999878,0.057789306969371,-0.0761899999999968,0.0822799999999688,0.1121379262336984,0.1058400000000574,0.0157000000000095,0.1069981102637446,0.0769800000000486,-0.0031499999999766,0.0770444216021338,-0.0874600000000214,0.0329600000000027,0.0934645023525184,-0.1091000000000121,0.0056700000000091,0.1092472374936902,0.0065649999999664,0.109489999999937,137.46111166666665,0.0576221954487346,105.28719916666668,0.0136389846426853,94.43911666666668,0.2591534318378504,0.00393032,0.19422366,0.0025091104590272,0,0
3,100.0,513.6091,94.72645,0.93820804,515.7706,92.4717,0.9048556,511.60867,92.619995,0.8720944,519.4729,93.16878,0.764805,508.67688,93.4444,0.6358495,525.27356,105.159935,0.99329996,503.83936,105.435715,0.9939856,530.8592,120.77997,0.95482683,497.83392,120.10405,0.9448186,525.79285,131.94942,0.91859293,502.22293,129.8323,0.9009484,521.6628,137.37347,0.9945779,508.20895,137.42407,0.9949262,519.848,162.52226,0.98446435,507.59354,162.4748,0.9830474,515.96106,187.43271,0.96381253,509.89288,187.30281,0.96114814,0.98568737,-0.00835194,0.96317577,0.20928991,135.92465914124622,133.45200438144175,175.25873313668407,173.30161140298807,0.6773231342751648,137.39877,105.297825,94.72645,33.02528000000001,94.96101,0.3477772577631888,179.262852905928,0.9237800811764706,-0.228399999999965,0.0266699999999957,0.229951840392687,-0.2989299999999275,-0.2370400000000074,0.3815063649534044,-0.2158000000000584,0.0210000000000007,0.2168193718283152,-0.2791700000000219,-0.2284799999999904,0.3607478333961382,-0.2052899999999908,0.0331850000000031,0.2079548708854795,-0.259270000000015,-0.2185049999999933,0.3390654331025279,-0.1238399999999728,-0.010390000000001,0.124275088815069,-0.1730799999999135,-0.1659099999999966,0.2397557392430241,-0.0971700000000055,0.0401640000000043,0.1051435009689206,-0.1015199999999936,-0.115017999999992,0.153412681105562,0.0350599999999303,-0.0279549999999915,0.0448406693192089,-0.0243400000001656,-0.055909999999983,0.060978387154845,0.06092000000001,0.0240349999999978,0.0654899047563906,0.1014200000000187,-0.002165000000005,0.1014431053596242,0.1123999999999796,-0.0316899999999975,0.1167819168364489,0.0603999999999587,-0.0974240000000037,0.1146280758627472,0.0572499999999536,-0.0021050000000002,0.0572886858375603,0.0473599999999123,-0.0460960000000056,0.0660894153098075,-0.0328499999999394,0.0756599999999991,0.0824836838410839,-0.0448899999998957,-0.1225599999999929,0.130522280473446,-0.1211899999999559,0.0286199999999894,0.1245235740733003,-0.1805799999999067,-0.0295300000000224,0.1829785706031382,0.0057999999999083,-0.0322199999999952,0.032737874091007,-0.0408500000000913,-0.0366599999999834,0.0548878684228696,0.0425700000000119,-0.0326000000000021,0.0536186991636421,0.0732899999999858,-0.0412900000000036,0.0841206764119156,-0.0384000000000241,-0.0243400000000235,0.0454642232970387,-0.1737600000000156,-0.0423800000000369,0.1788535769841033,0.0813600000000178,-0.0251800000000059,0.0851673763832326,0.1331400000000258,-0.0508399999999937,0.142516543601107,-0.1049800000000686,-0.0124800000000107,0.1057192073372416,-0.2108200000001261,-0.0281800000000203,0.2126950511884428,0.1152000000000157,-0.0364900000000147,0.1208410530407804,0.2026600000000371,-0.0694500000000175,0.2142297320635431,-0.0324099999999702,-0.0389749999999367,137.44552625,0.0564372730523178,105.289855625,0.0123386257296303,94.51095,0.2557611749269269,0.0140017899999999,0.1979902225,0.0078067318682462,0,0
4,133.33333333333334,513.37665,94.95086,0.93865746,515.56793,92.69101,0.9084068,511.4196,92.83676,0.86910945,519.40424,93.29646,0.7769022,508.638,93.582275,0.6217959,525.32477,105.174484,0.99355984,503.92862,105.45173,0.99391633,530.9225,120.748505,0.95771366,497.89026,120.06763,0.9434656,525.8072,132.0422,0.9229955,502.20694,129.9808,0.8998284,521.66675,137.37831,0.9947732,508.25104,137.40564,0.9949698,519.91974,162.50728,0.9850979,507.6955,162.42706,0.9832123,515.97144,187.44337,0.9651186,509.99338,187.24261,0.96166915,1.0039765,0.00908888,0.98331869,0.20241184,135.86277659813908,134.02203013700608,174.97956735312877,173.4376836229557,0.5934906825050567,137.391975,105.313107,94.95086,33.03224,94.75235999999998,0.3486165373757811,179.2576170606924,0.92418777,-0.2324499999999716,0.224410000000006,0.3230988248198831,-0.0040500000000065,0.1977400000000102,0.1977814705679076,-0.2026699999998982,0.2193100000000072,0.2986168196869726,0.0131300000001601,0.1983100000000064,0.1987441898521985,-0.1890700000000151,0.2167649999999952,0.2876361071301787,0.0162199999999757,0.183579999999992,0.1842951567459012,-0.0686600000000225,0.127679999999998,0.1449702659168513,0.0551799999999502,0.138069999999999,0.1486881209108321,-0.038880000000006,0.1378749999999939,0.1432521204904095,0.0582899999999995,0.0977109999999896,0.1137768149536535,0.0512099999999691,0.0145490000000023,0.0532366180461992,0.0161500000000387,0.0425039999999938,0.0454688081656065,0.0892600000000243,0.0160149999999958,0.0906853230958803,0.0283400000000142,-0.0080200000000019,0.02945294552334,0.0633000000000265,-0.0314650000000114,0.0706890106381754,-0.049099999999953,0.0002249999999861,0.0491005155267781,0.0563400000000342,-0.0364200000000067,0.0670866007486171,-0.0009099999999193,-0.0343150000000065,0.0343270640311737,0.0143499999999221,0.0927800000000047,0.0938831768742336,0.0471999999998615,0.0171200000000055,0.0502089075761176,-0.0159900000000448,0.1484999999999843,0.1493583948092532,0.1051999999999111,0.1198799999999948,0.1594937440778793,0.0039500000000316,0.0048400000000015,0.0062472473938739,-0.0018499999998766,0.0370599999999967,0.037106146391121,0.0420899999999733,-0.018429999999995,0.0459481555668731,-0.0004800000000386,0.0141700000000071,0.0141781275209471,0.0717400000000907,-0.01497999999998,0.0732872976716458,0.1101400000001149,0.0093600000000435,0.1105370037590404,0.1019599999999627,-0.0477399999999761,0.1125830768809865,0.0205999999999448,-0.0225599999999701,0.030550181668795,0.0103800000000546,0.0106600000000014,0.0148788440411601,0.1153600000001233,0.0231400000000121,0.1176579330093344,0.1005000000000109,-0.0601999999999804,0.1171507148932512,-0.0147000000000048,-0.0237099999999657,0.0278972059532583,-0.0067950000000109,0.0256149999999593,137.434816,0.0544281325924289,105.29450590000002,0.0149099480733515,94.598932,0.2962507309189368,-0.0068780699999999,0.198874546,0.0070440710608482,0,0
5,166.66666666666666,513.6061,95.37916,0.9401632,515.7895,93.105965,0.90930855,511.62134,93.24591,0.87336683,519.5644,93.56698,0.77517235,508.75177,93.83778,0.6322214,525.4252,105.2106,0.99374276,503.9494,105.552475,0.99423873,531.06555,120.69182,0.95873934,498.08875,120.3307,0.9466814,525.86865,132.11551,0.9249426,502.4037,130.69914,0.90450764,521.7266,137.38744,0.99494535,508.26248,137.44907,0.9952004,519.99414,162.5194,0.98536646,507.77332,162.47064,0.9837316,515.8891,187.42574,0.9653729,510.05307,187.28764,0.9623378,1.01105317,0.00933453,0.9828274,0.23704785,135.51966534516907,135.77282355094525,174.5841250966108,173.63143713788904,0.5496502173437511,137.418255,105.3815375,95.37916,32.976800000000026,94.319775,0.3496276327034537,179.08798087949918,0.9258846652941176,0.2294499999999288,0.428299999999993,0.4858890742751491,0.4618999999999005,0.203889999999987,0.5048987444031752,0.2215699999999287,0.4149549999999919,0.4704050562280998,0.424239999999827,0.1956449999999847,0.46717934845715,0.2017399999999725,0.4091499999999968,0.4561828033803842,0.3908099999999876,0.1923850000000015,0.4355966532527436,0.1601600000000189,0.2705200000000047,0.3143760423442102,0.2288200000000415,0.1428400000000067,0.269744060175606,0.113770000000045,0.2555049999999994,0.2796898602470421,0.152650000000051,0.1176300000000054,0.1927143985280208,0.1004300000000739,0.0361159999999927,0.1067265213338012,0.0492200000001048,0.0215669999999903,0.0537377324513223,0.020780000000002,0.1007450000000034,0.1028657543840552,-0.0684800000000223,0.0847300000000075,0.1089434867259366,0.1430500000000165,-0.0566849999999874,0.1538716729128637,0.07974999999999,-0.025219999999976,0.0836427576063653,0.1984899999999925,0.263069999999999,0.329551369288608,0.1421499999999582,0.2994900000000058,0.3315130202571109,0.0614500000000362,0.0733099999999922,0.0956580294591275,0.047100000000114,-0.0194700000000125,0.0509655854475471,0.1967600000000402,0.718340000000012,0.744799874597219,0.212750000000085,0.5698400000000277,0.6082599675303872,0.059849999999983,0.0091299999999989,0.0605423768941883,0.0558999999999514,0.0042899999999974,0.0560643746062911,0.0114399999999932,0.0434300000000007,0.0449114517690077,-0.03064999999998,0.0618599999999958,0.0690368169891852,0.0743999999999687,0.0121199999999817,0.0753807296329433,0.0026599999998779,0.0270999999999617,0.0272302331976293,0.077820000000031,0.0435799999999915,0.0891917529820111,-0.0241399999999316,0.0913199999999676,0.0944567731821852,-0.0823400000000447,-0.0176299999999969,0.0842062497680977,-0.0927200000000993,-0.0282899999999983,0.0969397880130668,0.0596899999999891,0.045029999999997,0.0747702949037813,-0.0408100000000217,0.1052299999999775,0.1128663324468242,0.0262799999999856,0.0330749999999966,137.412959,0.0168639465280335,105.3129924,0.0410054949753732,94.83846400000002,0.3530886377809567,0.0346360099999999,0.207079104,0.0181037527627321,0,0
6,200.0,513.8465,95.74226,0.9408405,516.04565,93.463615,0.90927184,511.86566,93.57837,0.8758813,519.8144,93.778336,0.7720542,508.96133,93.97831,0.6387545,525.55676,105.20138,0.9937868,504.06186,105.46275,0.99444675,531.1321,120.67691,0.9589625,498.1578,120.232605,0.94917816,525.9436,132.15004,0.92569673,502.38565,130.77838,0.90825355,521.7532,137.3943,0.9950663,508.27835,137.42912,0.99538827,520.098,162.60226,0.98563266,507.8989,162.52661,0.9842711,516.0309,187.57576,0.9658211,510.20447,187.40778,0.9632394,0.98937012,0.01744083,0.9639127,0.22230912,135.85358870095163,136.36549568725613,174.5069574561387,173.83971290081885,0.3690286667990355,137.41171,105.332065,95.74226,32.97430000000003,94.112145,0.3503724163297693,179.3033389368409,0.9268556270588236,0.2404000000000223,0.3631000000000028,0.4354695971018101,0.0109500000000934,-0.0651999999999901,0.0661131038448563,0.2561500000000478,0.3576500000000067,0.439916293174087,0.034580000000119,-0.0573049999999852,0.0669301085088508,0.244320000000016,0.3324600000000117,0.4125795850499824,0.0425800000000435,-0.076689999999985,0.0877178003600262,0.25,0.211355999999995,0.3273703693616725,0.089839999999981,-0.0591640000000097,0.107571392553958,0.2095599999999535,0.1405299999999982,0.2523174082380763,0.0957899999999085,-0.1149750000000011,0.1496495062637453,0.1315600000000358,-0.0092199999999991,0.1318826827146362,0.0311299999999619,-0.0453359999999918,0.0549948160829444,0.1124599999999986,-0.0897250000000013,0.1438673945861255,0.0916799999999966,-0.1904700000000048,0.2113860054497487,0.0665500000000065,-0.0149100000000004,0.0681997844571438,-0.07650000000001,0.041774999999987,0.0871630691577599,0.0690500000000042,-0.0980949999999865,0.1199605415334473,-0.1294399999999882,-0.3611649999999855,0.3836598373885211,0.0749499999999443,0.0345299999999895,0.0825216541278162,0.0134999999999081,-0.0387800000000027,0.0410626156010272,-0.0180500000000165,0.0792399999999986,0.0812697982032709,-0.2148100000000568,-0.6391000000000133,0.674234488957693,0.0266000000000303,0.0068599999999889,0.0274703403692321,-0.0332499999999527,-0.0022700000000099,0.0333273971380439,0.0158700000000067,-0.0199499999999943,0.0254923400259761,0.0044300000000134,-0.0633799999999951,0.0635346307142766,0.1038599999999405,0.0828600000000108,0.1328633854754177,0.0294599999999718,0.0707400000000291,0.0766292320201792,0.1255800000000135,0.055970000000002,0.1374880987576875,0.0477599999999824,0.0123900000000105,0.049340953578124,0.1417999999999892,0.150020000000012,0.206429746887411,0.2241400000000339,0.1676500000000089,0.2799022366827715,0.1514000000000237,0.1201399999999921,0.1932759157267281,0.0917100000000346,0.0751099999999951,0.1185421283763945,-0.0065449999999884,-0.0328249999999741,137.410378,0.0155720954755695,105.3248639,0.0345037346319241,95.099702,0.4506623347030725,-0.01473873,0.213269368,0.0166146065430984,0,0
7,233.3333333333333,513.52637,95.62672,0.94061893,515.7463,93.34955,0.91238004,511.59012,93.46992,0.8707999,519.64606,93.698166,0.78574175,508.84195,93.935234,0.62000537,525.65,105.188805,0.9940532,504.031,105.49933,0.9942895,531.3782,120.586975,0.96200395,498.0982,120.25371,0.94677883,525.8721,131.93265,0.93028843,502.41913,130.85211,0.9056694,521.7977,137.41064,0.99525344,508.24374,137.42947,0.99538356,520.1103,162.52815,0.9862817,507.73785,162.42526,0.9843025,515.9302,187.51271,0.9672442,510.084,187.28772,0.9636126,0.99783216,0.0567441,0.97619498,0.19872716,133.70705613891508,135.91417940778885,174.34533386007183,173.44978574414353,0.322232610273176,137.420055,105.3440675,95.62672,33.27999999999997,94.16316,0.3534290867741788,179.17708735187074,0.926747488235294,-0.3201299999999492,-0.1155399999999957,0.3403420463298158,-0.5605299999999716,-0.4786399999999986,0.7370821735057542,-0.299350000000004,-0.1140650000000107,0.3203455114794101,-0.5555000000000518,-0.4717150000000174,0.7287628497838471,-0.2755399999999781,-0.1084500000000048,0.2961143260634125,-0.5198599999999942,-0.4409100000000165,0.6816568401329283,-0.1683399999999437,-0.0801699999999954,0.1864553150220726,-0.4183399999999437,-0.2915259999999904,0.5098977978732084,-0.1193799999999782,-0.0430759999999992,0.1269138533651655,-0.3289399999999318,-0.1836059999999975,0.3767130032743152,0.0932399999999233,-0.0125749999999982,0.0940841550155267,-0.0383200000001124,-0.0033549999999991,0.0384665884243536,-0.0308600000000183,0.0365800000000007,0.0478584997675562,-0.143320000000017,0.1263050000000021,0.1910329171242626,0.2460999999999558,-0.0899350000000112,0.2620181562887966,0.1795499999999492,-0.0750250000000107,0.1945943296321436,-0.0595999999999889,0.0211049999999914,0.0632264266347413,-0.1286499999999932,0.1191999999999779,0.1753837577998402,-0.0714999999999008,-0.2173899999999946,0.2288463722674744,-0.1464499999998452,-0.2519199999999841,0.2913954167449218,0.0334799999999972,0.0737300000000118,0.0809754487483803,0.0515300000000138,-0.0055099999999868,0.0518237493819318,0.0444999999999708,0.0163400000000137,0.047405122086098,0.0178999999999405,0.0094800000000248,0.0202553795323203,-0.0346099999999864,0.0003499999999974,0.0346117696744772,-0.0504799999999932,0.0202999999999917,0.0544088264898166,0.0123000000000956,-0.0741099999999903,0.0751237785258497,-0.0915599999998448,-0.1569700000000011,0.1817218052407909,-0.1610500000000456,-0.1013499999999965,0.190286428838249,-0.2866300000000592,-0.1573199999999985,0.3269653487757281,-0.1006999999999607,-0.063050000000004,0.1188099006816881,-0.2424999999999499,-0.213070000000016,0.3228081084792986,-0.1204700000000116,-0.1200599999999951,0.170080641167658,-0.2718700000000353,-0.2401999999999873,0.3627800117151069,0.0083449999999913,0.0148899999999798,137.408153,0.0123098398649398,105.3337204,0.0320533534934385,95.28509,0.4354173208544172,-0.0235819599999999,0.213957176,0.0157318604826425,0,0
8,266.6666666666667,513.1876,95.757286,0.9374799,515.4016,93.479965,0.9122533,511.31085,93.607765,0.8590249,519.4077,93.72987,0.7957325,508.73666,94.00623,0.5891101,525.68994,105.065384,0.99404764,504.08542,105.42125,0.99368954,531.58716,120.34065,0.96392983,498.17648,120.107574,0.9408108,526.0866,131.67432,0.93294847,502.22293,130.76392,0.8981775,521.76746,137.18967,0.9953277,508.24332,137.18723,0.9952009,520.1457,162.285,0.98693395,507.6718,162.15433,0.9841616,515.9998,187.37299,0.96898067,510.00967,187.07843,0.9640476,1.01434367,0.06607862,0.9909337,0.20634217,133.0016046091124,137.29007905945218,174.31396598449237,173.33003411610093,0.2116061656655595,137.18845,105.243317,95.757286,33.41068000000001,93.89302499999998,0.3558377168502378,179.05631894960516,0.9242268764705884,-0.3387700000000677,0.1305659999999875,0.3630600408417905,-0.0186400000001185,0.2461059999999832,0.2468108847599639,-0.3446999999999889,0.1304150000000135,0.3685460110013346,-0.0453499999999849,0.2444800000000242,0.2486505437356019,-0.2792699999999968,0.1378449999999986,0.3114369549764411,-0.0037300000000186,0.2462950000000034,0.2463232427624357,-0.2383600000000569,0.0317040000000048,0.2404592132067878,-0.0700200000001132,0.1118740000000002,0.1319795146074416,-0.1052900000000249,0.070996000000008,0.1269898268209166,0.0140899999999533,0.1140720000000072,0.1149388936957388,0.0399400000000014,-0.1234210000000075,0.1297225764506779,-0.0532999999999219,-0.1108460000000093,0.1229948198746343,0.0544199999999932,-0.0780799999999999,0.0951736455117657,0.0852800000000115,-0.1146600000000006,0.1428971448280269,0.2089600000000473,-0.2463249999999988,0.3230174720119937,-0.0371399999999084,-0.1563899999999876,0.1607395772670481,0.0782800000000065,-0.1461359999999985,0.1657814491913995,0.1378799999999955,-0.1672409999999899,0.2167497323666062,0.2144999999999299,-0.2583300000000008,0.3357746847217199,0.2859999999998308,-0.0409400000000061,0.2889153571548313,-0.1961999999999761,-0.0881899999999973,0.2151090795387079,-0.2296799999999734,-0.1619200000000091,0.2810177731033942,-0.0302399999999352,-0.2209699999999941,0.2230295910860114,-0.0747399999999061,-0.2373100000000079,0.2488013337986549,-0.0004200000000196,-0.2422400000000095,0.2422403641014532,0.0341899999999668,-0.2425900000000069,0.2449874776391665,0.0353999999999814,-0.2431500000000142,0.2457134153846826,0.0230999999998857,-0.1690400000000238,0.1706110535692303,-0.0660499999999615,-0.2709300000000212,0.2788649626611532,0.0950000000000841,-0.1695800000000247,0.1943768926596584,0.0696000000000367,-0.1397200000000111,0.1560956066005966,0.1702999999999974,-0.0766700000000071,0.1867628948694044,-0.0743299999999749,-0.2092900000000099,0.2220973953021521,0.0461400000000367,-0.0892300000000148,0.1004534344858652,-0.2316050000000018,-0.2399499999999932,137.366089,0.0999257169976802,105.3228188,0.0509895588780261,95.4912572,0.3379048735358135,0.0076150099999999,0.213367628,0.0160033812616668,0,0
9,300.0,513.26587,95.87663,0.9378635,515.4807,93.60322,0.91229063,511.3925,93.71239,0.8602864,519.4681,93.79644,0.7946089,508.79742,94.02477,0.5919923,525.72205,105.01576,0.99412954,504.08014,105.34875,0.9938486,531.67175,120.20596,0.9645992,498.22943,120.102066,0.9426941,526.196,131.4377,0.93435925,502.20685,131.00851,0.90109223,521.70844,137.03325,0.9954674,508.15256,137.01369,0.99537164,520.1464,162.07603,0.98737025,507.51788,161.92224,0.98476774,516.0377,187.17374,0.96997154,509.8188,186.85806,0.965322,1.01827232,0.07639573,0.99682919,0.19332296,132.6203322686289,138.33207977404294,174.27187649214667,173.2684313117568,0.0548258757825622,137.02347,105.182255,95.87663,33.442319999999995,93.57052000000002,0.3574023062242005,179.1184966459021,0.9250608952941176,0.0782699999999749,0.1193440000000123,0.1427206475461733,0.4170400000000427,-0.0112219999999751,0.4171909573373266,0.0790999999999257,0.1232549999999861,0.1464534227151583,0.4237999999999147,-0.0071600000000273,0.4238604789313673,0.0816499999999678,0.1046249999999986,0.1327144043613746,0.3609199999999646,-0.03322,0.3624456025391596,0.0604000000000723,0.0665699999999986,0.0898872899803335,0.2987600000001293,0.0348659999999938,0.300787592091291,0.0607600000000161,0.0185400000000015,0.0635256578084951,0.1660500000000411,-0.0524560000000065,0.1741385495403425,0.0321099999999887,-0.0496239999999943,0.0591066280208803,-0.0078300000000126,0.0737970000000132,0.0742112263003526,-0.0052800000000274,-0.0725000000000051,0.0726920105651304,-0.0597000000000207,0.0055799999999948,0.0599602068041998,0.0845899999999346,-0.1346899999999919,0.1590498795975237,-0.1243700000001126,0.1116350000000068,0.1671235175701778,0.0529499999999529,-0.005508000000006,0.0532357076030279,-0.0253300000000535,0.1406279999999924,0.14289101890602,0.1094000000000505,-0.2366199999999878,0.2606863717189783,-0.1050999999998794,0.0217100000000129,0.1073188431729266,-0.0160800000000449,0.2445899999999881,0.2451180011749353,0.1801199999999312,0.3327799999999854,0.3783989201886886,-0.0590200000000322,-0.1564199999999971,0.1671842600246892,-0.028780000000097,0.064549999999997,0.0706752495574313,-0.0907599999999888,-0.1735400000000027,0.1958405198113988,-0.0903399999999692,0.0687000000000068,0.1134945179292611,0.0006999999999379,-0.2089699999999936,0.2089711724137979,-0.0347000000000434,0.0341800000000205,0.0487069030015707,-0.1539200000000278,-0.2320899999999994,0.2784908158270364,-0.0878700000000662,0.0388400000000217,0.0960712365904245,0.0378999999999223,-0.1992499999999779,0.2028225147758141,-0.0317000000001144,-0.0595299999999667,0.0674441316943386,-0.190870000000018,-0.2203700000000026,0.2915378085257692,-0.1165400000000431,-0.0110799999999926,0.1170655286581404,-0.1649799999999857,0.0666250000000161,137.292388,0.1799299188781503,105.2966484,0.0816075273622198,95.6764112,0.1882762975450518,-0.01301921,0.211549852,0.0179559928980792,0,0
10,333.3333333333333,513.13385,96.23917,0.9380071,515.3555,93.96219,0.91380656,511.2733,94.05772,0.8586563,519.3963,93.9878,0.79881936,508.72717,94.19322,0.5837484,525.71094,104.91995,0.99421704,504.09763,105.280624,0.9937692,531.81165,119.94228,0.9658986,498.35458,120.09163,0.94198966,526.4942,131.0571,0.9366604,501.9338,131.26082,0.900866,521.59924,136.79845,0.9955844,508.10037,136.77002,0.9954201,520.03125,161.94308,0.98783165,507.57263,161.77658,0.98506457,515.9218,187.19275,0.9709546,509.8663,186.8484,0.9660257,1.06926571,0.04175972,1.05480152,0.17023229,132.33050813670994,141.03761649521658,174.3242896162421,173.5639087467077,0.099565132618696,136.784235,105.100287,96.23917,33.45706999999999,93.23055999999998,0.3588637635678283,179.04396040870762,0.9251364494117646,-0.1320199999998976,0.3625399999999956,0.3858296670811743,-0.2102899999998726,0.2431959999999833,0.3215061096090373,-0.1251999999999498,0.3589700000000135,0.3801769336769357,-0.2042999999998755,0.2357150000000274,0.3119295613194782,-0.1191999999999779,0.3453300000000041,0.3653237590138337,-0.2008499999999458,0.2407050000000055,0.3134958046369694,-0.0718000000000529,0.1913599999999888,0.2043866179572511,-0.1322000000001253,0.1247899999999901,0.1817948956930053,-0.0702499999999872,0.1684499999999928,0.1825115475798608,-0.1310100000000034,0.1499099999999913,0.1990894979651068,-0.0111099999999169,-0.0958100000000001,0.0964519994608623,-0.0432199999999056,-0.0461860000000058,0.0632543674064675,0.0174900000000093,-0.0681259999999923,0.0703352825827783,0.0227700000000368,0.0043740000000127,0.0231863057859976,0.1399000000000114,-0.2636800000000079,0.2984948113452014,0.0553100000000768,-0.1289900000000159,0.1403481962834314,0.1251500000000192,-0.0104359999999985,0.1255843644567458,0.0722000000000662,-0.0049279999999924,0.0723679845236102,0.2981999999999516,-0.3806000000000153,0.48350760076754,0.188799999999901,-0.1439800000000275,0.2374356342253002,-0.2730499999999551,0.2523099999999942,0.3717749838275467,-0.2569699999999102,0.0077200000000061,0.2570859375772116,-0.109199999999987,-0.234800000000007,0.2589511150777313,-0.0501799999999548,-0.0783800000000098,0.0930669479460727,-0.0521899999999959,-0.2436700000000087,0.2491964385780901,0.0385699999999928,-0.070130000000006,0.0800366278649987,-0.1151499999999714,-0.1329499999999939,0.1758841237860649,-0.1158499999999094,0.0760199999999997,0.1385650132608479,0.0547500000000127,-0.1456599999999923,0.1556097622258936,0.2086700000000405,0.0864300000000071,0.2258612711378782,-0.1159000000000105,0.0190099999999802,0.1174486700648487,-0.1537999999999328,0.2182599999999581,0.267005369983379,0.0475000000000136,-0.0096599999999966,0.048472317873207,0.2383700000000317,0.2107100000000059,0.3181492747123866,-0.2392350000000078,-0.0742550000000221,137.165584,0.2699443463336434,105.2403983,0.1026771949482885,95.8484132,0.2356945098666729,-0.0230906699999999,0.19818674,0.0190643642682925,0,0
11,366.6666666666666,513.2491,96.54395,0.94021386,515.46625,94.2498,0.91523474,511.31912,94.34798,0.8657698,519.44073,94.18898,0.7955372,508.62204,94.39766,0.5986381,525.63165,104.9196,0.9943228,503.98236,105.40048,0.99410534,531.8045,119.747055,0.9659284,498.42328,120.34009,0.94505864,526.61304,130.61176,0.93718356,501.88907,131.54419,0.9052506,521.68616,136.6379,0.99573165,508.13422,136.68323,0.9956605,520.16675,161.8648,0.9883029,507.50012,161.77527,0.98592025,516.05023,187.25806,0.9721314,509.55212,187.03235,0.96787035,1.07817656,0.04962038,1.06855766,0.13485935,131.85766744176857,142.40106622334295,174.2385907021103,173.90761978225552,0.1882352545643985,136.66056500000002,105.16004,96.54395,33.381219999999985,93.06908,0.3586714260131137,178.72753958773333,0.9272270641176472,0.1152499999999463,0.3047799999999938,0.3258426167645722,0.247269999999844,-0.0577600000000018,0.2539265060995466,0.110749999999939,0.2876099999999866,0.3081964870013589,0.2359499999998888,-0.0713600000000269,0.2465048723655404,0.0458199999999919,0.2902600000000035,0.2938542836168996,0.1650199999999699,-0.0550700000000006,0.1739663912943823,0.0444300000000339,0.2011800000000079,0.2060277100295156,0.1162300000000868,0.009820000000019,0.1166440967216968,-0.1051299999999741,0.2044400000000052,0.2298869950649595,-0.0348799999999869,0.0359900000000124,0.0501188038564367,-0.0792900000000145,-0.0003499999999974,0.0792907724770184,-0.0681800000000976,0.0954600000000027,0.1173078173013795,-0.1152699999999526,0.1198559999999986,0.1662908104375848,-0.132759999999962,0.187981999999991,0.2301357206606278,-0.0071500000000241,-0.1952249999999935,0.1953558883806624,-0.1470500000000356,0.0684550000000143,0.1622029269927409,0.0686999999999784,0.2484600000000085,0.2577829738365226,-0.0564500000000407,0.2588960000000071,0.2649787563485199,0.1188399999999774,-0.4453399999999874,0.4609237043155661,-0.1793599999999742,-0.064739999999972,0.1906863319695124,-0.0447300000000154,0.2833699999999908,0.2868785976680661,0.2283199999999396,0.0310599999999965,0.230422971945013,0.0869199999999636,-0.1605500000000006,0.1825688607073887,0.1961199999999507,0.0742500000000063,0.2097048328007288,0.0338500000000294,-0.0867899999999792,0.0931575364637687,0.0860400000000254,0.1568800000000294,0.1789251687159009,0.135499999999979,-0.0782800000000065,0.1564864479755207,0.2506499999999505,0.0546699999999873,0.2565428451545157,-0.0725100000000225,-0.0013099999999894,0.0725218325747718,-0.1272600000000352,0.1443500000000028,0.1924370808862205,0.1284300000000939,0.0653100000000108,0.1440821328271675,0.2443300000001045,0.0463000000000306,0.2486781834018696,-0.3141800000000216,0.18395000000001,0.3640696017247489,-0.3616800000000353,0.1936100000000067,0.4102404837409737,-0.1236699999999757,0.1155650000000321,137.015355,0.3054104700030649,105.2059933,0.0926101746769651,96.0087512,0.3762210703128014,-0.03537294,0.180696786,0.0289515828261328,0,0
12,400.0,513.2039,96.92769,0.9407369,515.4226,94.6082,0.91623163,511.239,94.7087,0.8667538,519.4187,94.34915,0.79605794,508.50626,94.5647,0.59821075,525.62286,104.80476,0.99428815,503.97852,105.3065,0.99404776,531.8631,119.60433,0.96585697,498.5655,120.24542,0.94461423,526.7276,130.60638,0.9371522,501.84595,131.49765,0.90483785,521.7323,136.47278,0.9956885,508.19363,136.52985,0.99560934,520.23944,161.81573,0.988208,507.63754,161.73914,0.9857874,516.0839,187.28508,0.97182286,509.59393,187.0706,0.9674947,1.0755197,0.09531043,1.06536427,0.11250561,132.11520717629517,143.8289485185503,174.10454820604383,174.3200405115896,0.2960242750951692,136.501315,105.05563,96.92769,33.297600000000045,92.93593,0.3582855375925598,178.67205760191302,0.9272587635294116,-0.0452000000000225,0.3837400000000031,0.3863928410309958,-0.1604499999999689,0.0789600000000092,0.1788264077254572,-0.0436499999999568,0.3584000000000031,0.3610483104793574,-0.1543999999998959,0.0707900000000165,0.1698545969350556,-0.0801200000000221,0.3607199999999864,0.3695106666931196,-0.1259400000000141,0.0704599999999828,0.1443104126527297,-0.0220300000000861,0.1601699999999937,0.161677919951989,-0.06646000000012,-0.0410100000000142,0.0780945049284335,-0.1157800000000293,0.16704,0.2032421462197415,-0.0106500000000551,-0.0374000000000052,0.03888679081644,-0.00879000000009,-0.1148400000000009,0.1151759076369784,0.0704999999999245,-0.1144900000000035,0.1344552345577894,-0.0038400000000251,-0.0939800000000019,0.0940584180177434,0.1114299999999275,-0.2138360000000005,0.2411275177079217,0.0586000000000694,-0.1427249999999986,0.1542866994429777,0.0657500000000936,0.0524999999999948,0.0841386504527603,0.1422200000000089,-0.0946700000000078,0.1708477020624041,0.0735200000000304,-0.3431300000000163,0.3509179210299977,0.1145600000000968,-0.0053800000000023,0.114686258985208,-0.0042799999998806,0.439959999999985,0.4399808177636677,-0.0431199999999876,-0.0465399999999931,0.0634452992742432,0.0016100000000278,-0.3299099999999839,0.3299139284722448,0.0461400000000367,-0.1651200000000017,0.1714453673914928,-0.0407799999999269,-0.004570000000001,0.0410352689767479,0.0594099999999571,-0.1533799999999985,0.1644839581843604,0.0255599999999276,-0.0665900000000192,0.0713270054046772,0.0726899999999659,-0.0490700000000003,0.0877023431841766,-0.0628100000000131,0.0292100000000061,0.0692699083296781,0.13742000000002,-0.0361300000000142,0.1420902294318879,0.2099300000000425,-0.0348200000000247,0.2127981139484549,0.0336699999999154,0.0270199999999931,0.0431711628288367,-0.0947600000001784,-0.0382900000000177,0.1022036286050313,0.0418099999999981,0.038250000000005,0.0566669092151691,0.3559900000000198,-0.145700000000005,0.3846522716688614,-0.1592500000000143,-0.0355800000000385,136.83160700000002,0.2760165823052863,105.1483058,0.0728216602646251,96.2689452,0.4811874029890497,-0.0223537399999999,0.1634524759999999,0.0393410966844987,0,0
13,433.33333333333337,512.7186,97.22943,0.9405068,514.9933,94.889366,0.91964054,510.7809,94.98222,0.8611094,519.1599,94.52275,0.8096257,508.17755,94.73625,0.5762464,525.5806,104.8916,0.99440527,503.75677,105.35477,0.99364436,531.91565,119.74269,0.96757406,498.43784,120.21759,0.939573,526.4682,130.80998,0.93941355,501.80273,131.34633,0.89855206,521.4864,136.67789,0.9956501,507.82437,136.67917,0.9953596,519.94037,162.10843,0.9880832,507.0885,161.97144,0.9849097,515.70416,187.57895,0.9713798,509.0593,187.25832,0.96577126,1.05193013,0.10513625,1.04178231,0.10096028,130.69133920756835,143.4860918988295,174.03607716073657,173.8769784129095,0.0281291051184561,136.67853,105.123185,97.22943,33.477810000000034,93.0562,0.3597590449668156,178.78418669436311,0.9259673411764706,-0.4852999999999383,0.3017399999999952,0.5714570129064279,-0.4400999999999158,-0.0820000000000078,0.4476739996916586,-0.429300000000012,0.2811659999999989,0.5131791203429946,-0.3856500000000551,-0.0772340000000042,0.3933077843827187,-0.4581000000000017,0.2735200000000048,0.5335436255827674,-0.3779799999999795,-0.0871999999999815,0.3879081339698632,-0.258799999999951,0.1736000000000075,0.3116318340606063,-0.2367699999998649,0.0134300000000138,0.2371505804334798,-0.3287100000000009,0.1715499999999963,0.3707825057901186,-0.2129299999999716,0.0045099999999962,0.2129777570545522,-0.042259999999942,0.0868399999999951,0.0965768771497311,-0.033469999999852,0.201679999999996,0.2044384095516019,-0.2217499999999859,0.0482700000000022,0.2269428461088693,-0.2179099999999607,0.1422500000000042,0.2602303414284815,0.0525499999999965,0.1383599999999916,0.1480033516512288,-0.0060500000000729,0.2810849999999902,0.2811501017694914,-0.1276599999999916,-0.0278299999999944,0.1306582737525548,-0.2698800000000005,0.0668400000000133,0.2780338108935711,-0.2594000000000278,0.2035999999999944,0.3297594881121879,-0.3739600000001246,0.2089799999999968,0.4283908519099023,-0.0432200000000193,-0.1513199999999983,0.1573712515042095,-0.0001000000000317,-0.1047800000000052,0.1047800477190247,-0.245900000000006,0.2051099999999905,0.3202138693123692,-0.2920400000000427,0.3702299999999923,0.4715481041209043,-0.369259999999997,0.1493199999999888,0.3983081847012367,-0.4286699999999541,0.3026999999999873,0.524771625471455,-0.2990699999999151,0.2926999999999964,0.4184688218971004,-0.3717599999998811,0.3417699999999968,0.5049873567723349,-0.5490399999999909,0.2323000000000092,0.5961612295344224,-0.686460000000011,0.2684300000000235,0.7370766557828484,-0.3797399999999697,0.2938699999999983,0.4801687666851896,-0.4134099999998852,0.2668500000000051,0.4920536054129751,-0.5346299999999928,0.1877199999999845,0.566628657323283,-0.576439999999991,0.1494699999999795,0.5955034462536581,0.1772149999999897,0.336465000000004,136.729623,0.192894125642774,105.12427940000002,0.0498235983174283,96.563374,0.5369961801355598,-0.01154533,0.142376098,0.0388444581467249,0,0
14,466.6666666666667,512.3889,97.429054,0.94008774,514.6629,95.06463,0.92051774,510.44205,95.1751,0.85821265,518.88464,94.592064,0.81389797,507.8656,94.85738,0.56674284,525.47314,104.8875,0.99440986,503.51462,105.39803,0.99340534,532.0003,119.72478,0.9680489,498.27454,120.176025,0.9369203,526.2973,130.91147,0.9399481,501.71545,131.15462,0.8952445,521.34875,136.85959,0.9956033,507.5871,136.86983,0.9952158,519.7512,162.33656,0.9879018,506.6919,162.21454,0.98436314,515.43243,187.75479,0.9708436,508.60187,187.45259,0.96461326,0.99487052,0.08523897,0.99044241,0.03905762,129.24193705967315,143.07414311646585,173.9451278842411,173.64930549188557,0.0490374268449563,136.86471,105.142765,97.429054,33.72576000000004,93.16272600000002,0.3620091541545368,178.66812765906778,0.9250574611764708,-0.3297000000000025,0.199624,0.3854242226119185,0.1555999999999358,-0.1021159999999952,0.186115656128062,-0.3303999999999405,0.1752639999999985,0.3740075262557696,0.0989000000000714,-0.1059020000000003,0.1449014962104057,-0.3388499999999794,0.1928800000000023,0.3899000088484058,0.1192500000000222,-0.0806400000000024,0.1439561464474709,-0.2752600000000029,0.0693139999999914,0.2838529517126789,-0.0164600000000518,-0.104286000000016,0.1055769927399197,-0.3119500000000244,0.1211300000000079,0.3346420167881151,0.0167599999999765,-0.0504199999999883,0.0531326076905513,-0.10746000000006,-0.0040999999999939,0.1075381867059923,-0.065200000000118,-0.0909399999999891,0.1118978266098739,-0.2421500000000378,0.0432600000000036,0.2459838411359954,-0.0204000000000519,-0.0050099999999986,0.0210061919443316,0.0846500000000105,-0.0179100000000005,0.0865239307937509,0.032100000000014,-0.1562699999999921,0.1595328270294187,-0.1632999999999924,-0.0415650000000056,0.1685067928155954,-0.0356400000000007,-0.0137350000000111,0.038195023563291,-0.1709000000000742,0.1014900000000125,0.1987637544926838,0.0884999999999536,-0.1021099999999819,0.135124764939622,-0.0872800000000211,-0.1917100000000005,0.2106431164315698,-0.0440600000000017,-0.0403900000000021,0.0597715291756897,-0.1376500000000078,0.1817000000000064,0.2279526540753682,0.1082499999999981,-0.0234099999999841,0.1107523841729778,-0.2372699999999667,0.1906600000000082,0.3043818136814146,0.1319900000000302,0.0413400000000194,0.138312529078206,-0.18916999999999,0.228129999999993,0.2963588800761554,0.109899999999925,-0.0645700000000033,0.1274648771230097,-0.3966000000000349,0.2430999999999983,0.4651764933872163,0.1524399999999559,0.010799999999989,0.1528220978785016,-0.2717300000000477,0.1758400000000222,0.3236617037896726,0.108009999999922,-0.1180299999999761,0.1599913778926149,-0.457429999999988,0.1942699999999888,0.4969738804001521,0.0772000000000048,0.0065500000000042,0.0774773676630846,0.1861800000000073,0.0089650000000176,136.69787100000002,0.1375627724622057,105.1163814,0.0406147109714727,96.8738588,0.4871447617571517,-0.06190266,0.11152303,0.0483609704161759,0,0
15,500.0,512.02673,97.43691,0.93735045,514.1834,95.08449,0.9102719,510.05246,95.212875,0.8541523,518.2885,94.47445,0.78899217,507.515,94.853806,0.5698093,525.2476,104.943016,0.99386203,502.95844,105.41556,0.9935375,532.3427,119.55959,0.9685196,497.27594,119.3847,0.948315,526.089,131.46735,0.94539243,500.78534,130.7729,0.91595876,520.7612,137.36879,0.995526,506.74554,137.40118,0.9953891,519.7276,162.03073,0.98890483,506.22385,161.87776,0.98659223,515.7426,187.0125,0.9710579,507.58698,186.67264,0.9665164,1.02885932,0.081063,1.02532406,0.02628406,126.39989007604142,140.73676074853577,173.3366491167812,175.63224981960195,0.6221867722992959,137.384985,105.179288,97.43691,35.066760000000045,92.53804999999998,0.3789442247924591,178.78547592066352,0.9253028176470588,-0.3621699999999919,0.0078560000000038,0.3622551940773164,-0.0324699999999893,-0.1917679999999961,0.1944974722817698,-0.47950000000003,0.0198600000000084,0.4799111059352858,-0.1491000000000895,-0.1554039999999901,0.2153629801428825,-0.3895899999999983,0.0377749999999963,0.3914170649384086,-0.0507400000000188,-0.155105000000006,0.1631934699214517,-0.5961399999999912,-0.117613999999989,0.6076314282490554,-0.3208799999999883,-0.1869279999999804,0.3713570405741423,-0.3505999999999858,-0.0035740000000004,0.3506182161211679,-0.0386499999999614,-0.1247040000000083,0.1305561569440488,-0.2255399999999099,0.0555159999999972,0.2322720772197103,-0.1180799999998498,0.0596159999999912,0.1322760517099127,-0.5561799999999835,0.0175299999999936,0.5564561917168155,-0.3140299999999456,-0.02573000000001,0.3150823286062967,0.3423999999999978,-0.1651899999999955,0.380165090585652,0.2577499999999872,-0.1472799999999949,0.2968610127652197,-0.9986000000000104,-0.7913250000000005,1.27412605955024,-0.8353000000000179,-0.7497599999999949,1.1224375918508886,-0.2082999999998946,0.5558800000000019,0.5936256938508965,-0.0373999999998204,0.4543899999999894,0.4559265643719139,-0.9301099999999564,-0.3817200000000014,1.0053928438674706,-0.8428299999999354,-0.1900100000000009,0.8639827596658926,-0.5875499999999647,0.5091999999999928,0.7774957507922157,-0.4498999999999569,0.3274999999999863,0.5564766482072291,-0.8415600000000154,0.5313500000000033,0.9952668265847252,-0.6042900000000486,0.340689999999995,0.6937118135076376,-0.0235999999999876,-0.305829999999986,0.3067392196964563,0.1655700000000024,-0.5339599999999791,0.5590408808843754,-0.4680499999999483,-0.3367800000000045,0.576620820730534,-0.0714499999999134,-0.5798800000000028,0.58426527956057,0.3101700000000846,-0.7422900000000254,0.804487335512555,0.5819000000001324,-0.9181300000000476,1.087000601149899,-1.0148900000000367,-0.7799499999999853,1.27997020066877,-0.5574600000000487,-0.974219999999974,1.1224376419204782,0.520274999999998,0.3340949999999907,136.818021,0.34211871531312,105.1321816,0.0475610081926001,97.1134068,0.3796447797237177,-0.01277356,0.082733384,0.0475126826522763,0,0
16,533.3333333333334,511.35754,97.26313,0.9375472,513.5391,94.92549,0.9137795,509.4577,95.05202,0.8496643,517.8064,94.349304,0.80155325,507.1418,94.748245,0.5508472,525.02563,104.85036,0.994068,502.69995,105.34548,0.9933236,532.2665,119.33866,0.97048765,497.0664,119.26288,0.9459737,526.12006,130.94548,0.94816303,500.6798,130.49759,0.9134848,520.38495,137.32419,0.9956204,506.28867,137.3117,0.99532545,519.5762,162.12637,0.98910475,505.3554,161.91095,0.9863353,515.66394,187.2154,0.97142315,506.39633,186.76804,0.96603805,1.05772171,0.08401074,1.05406458,0.02579277,125.54168256948049,140.13339534812678,173.00459451079277,175.4293480719662,0.9353582619529336,137.317945,105.09792,97.26313,35.20009999999996,92.86609599999998,0.3790414493246116,178.72955103852783,0.9248670194117646,-0.6691900000000714,-0.1737799999999936,0.6913861037800032,-0.3070200000000795,-0.1816359999999974,0.3567252680930353,-0.6443000000000438,-0.159000000000006,0.6636290304078465,-0.1648000000000138,-0.1788600000000144,0.2432076059666097,-0.594760000000008,-0.1608549999999979,0.6161280618710763,-0.2051700000000096,-0.1986299999999943,0.2855671651293294,-0.4820999999999458,-0.1251460000000008,0.4980782381473295,0.1140400000000454,-0.0075320000000118,0.1142884623398641,-0.3731999999999971,-0.1055610000000086,0.3878419326491137,-0.0226000000000112,-0.1019870000000082,0.1044610366069674,-0.2219700000000557,-0.0926560000000051,0.2405323579812614,0.0035699999998541,-0.1481720000000024,0.1482150008737296,-0.2584899999999948,-0.0700800000000043,0.2678213705065335,0.2976899999999887,-0.0876099999999979,0.3103141121508864,-0.0762000000000853,-0.2209299999999956,0.2337017434680603,-0.4186000000000831,-0.0557400000000001,0.4222948112398134,-0.209540000000004,-0.1218199999999996,0.2423780600632029,0.7890600000000063,0.6695050000000009,1.034820094811176,0.0310599999999112,-0.5218700000000069,0.5227934778667401,0.2393599999998059,-1.0777500000000089,1.1040100869556972,-0.105540000000019,-0.2753099999999904,0.2948462102520545,0.8245699999999374,0.106410000000011,0.8314077056414013,-0.3762500000000273,-0.0446000000000026,0.3788841808521712,0.2112999999999374,-0.5537999999999954,0.5927411998502959,-0.4568699999999808,-0.0894800000000088,0.4655500695950802,0.3846900000000346,-0.6208300000000122,0.730353534255871,-0.1514000000000805,0.095640000000003,0.1790781103318464,-0.1278000000000929,0.4014699999999891,0.4213205441228982,-0.8684500000000526,0.0331900000000189,0.8690839882313404,-0.4004000000001042,0.3699700000000234,0.5451586566313524,-0.0786600000000135,0.2028999999999996,0.2176138911007336,-0.3888300000000981,0.9451900000000252,1.022043494671398,-1.190650000000005,0.0954000000000121,1.1944658147054752,-0.1757599999999683,0.8753499999999974,0.8928209227499008,-0.0670399999999915,-0.5873149999999896,136.949497,0.3895134087647294,105.1197576,0.0465676548292518,97.2572428,0.2068892518703932,-0.00049129,0.060920068,0.0423551456966808,0,0
17,566.6666666666666,510.83035,97.32402,0.9289781,512.8999,94.92139,0.90126395,508.85358,95.14314,0.83384466,517.07495,94.102425,0.78189373,506.44983,94.75082,0.53453594,524.65027,104.39035,0.99309546,502.0855,105.20999,0.9921295,532.1356,118.96577,0.9663224,496.93457,119.35491,0.9392708,525.65216,130.88553,0.9413348,500.84616,130.43098,0.9038638,520.0588,137.23679,0.9950618,505.72086,137.36163,0.99470735,519.5152,162.17174,0.98792946,504.3406,162.09843,0.9849545,515.6302,187.12936,0.9687713,504.99762,186.88556,0.9630937,1.02175679,0.10611883,1.01500696,0.04986602,124.27403428873056,140.53967743395015,172.40101661148807,175.28797488303297,0.8428696025104938,137.29921000000002,104.80017,97.32402,35.201029999999946,93.026935,0.3783961023933965,177.91970958150003,0.9182971323529412,-0.5271899999999619,0.0608900000000005,0.5306947222273459,0.1420000000001096,0.2346699999999941,0.2742881858557316,-0.6391999999999598,-0.0040999999999939,0.6392131491137746,0.005100000000084,0.154900000000012,0.1549839346513198,-0.6041199999999662,0.0911200000000036,0.6109532132659259,-0.0093599999999582,0.2519750000000016,0.2521487858884116,-0.731450000000109,-0.2468790000000069,0.7719898594807855,-0.2493500000001631,-0.121733000000006,0.2774785501423179,-0.6919699999999693,0.0025750000000073,0.6919747911051078,-0.3187699999999722,0.108136000000016,0.3366121022720154,-0.3753600000000006,-0.4600099999999969,0.5937207506058699,-0.1533899999999448,-0.3673539999999917,0.3980922674656932,-0.6144499999999766,-0.1354899999999901,0.6292108888123032,-0.3559599999999818,-0.0654099999999857,0.3619198664068956,-0.1308999999999969,-0.3728899999999981,0.3951983832203743,-0.0546999999999116,-0.1519600000000025,0.1615052061080109,-0.1318299999999794,0.0920300000000082,0.1607752151296838,0.0777100000000245,0.2138500000000078,0.227531682629051,-0.467899999999986,-0.0599500000000148,0.471724933091297,-0.4989599999998972,0.4619199999999921,0.67994938635158,0.1663599999999974,-0.0666099999999971,0.179199725725233,0.2719000000000164,0.2086999999999932,0.3427612871956314,-0.3261499999999842,-0.0873999999999739,0.3376574928829288,0.0501000000000431,-0.0427999999999713,0.0658927158341638,-0.5678100000000086,0.0499299999999891,0.5700010535078059,-0.1109400000000278,0.139409999999998,0.1781651809417475,-0.0609999999999217,0.0453699999999912,0.076022607821553,0.0904000000001588,-0.0502700000000118,0.1034370963437677,-1.0147999999999795,0.1874799999999936,1.0319727663073075,-0.1463499999999271,0.1542899999999747,0.2126587092031993,-0.0337400000000798,-0.086039999999997,0.092418987226678,0.0449199999999336,-0.2889399999999966,0.2924108924099649,-1.398709999999994,0.1175199999999847,1.4036383488990247,-0.208059999999989,0.0221199999999726,0.2092325452695976,-0.0187349999999923,0.0483049999999991,137.10907600000002,0.3166178980530638,105.0686656,0.153008258418603,97.3365088,0.0944077629620687,0.0240732499999999,0.04839215,0.0310331019019495,0,0
18,600.0,509.64056,97.521935,0.9208705,511.5784,95.06723,0.8902502,507.66406,95.401535,0.8166686,515.8165,93.98862,0.7674482,505.44983,94.95538,0.5127029,524.061,104.07669,0.99231684,501.48798,105.29217,0.9913238,531.8833,118.66177,0.96382374,496.92682,119.66207,0.9370803,525.37134,130.78577,0.93760544,500.6362,130.7074,0.90096676,519.7754,137.39026,0.9948318,505.40472,137.6369,0.99452233,519.25195,162.52289,0.9874592,503.39813,162.55038,0.98463017,515.4189,187.50241,0.96761674,503.6147,187.3816,0.9622518,1.01177113,0.11766417,1.0044442,0.03046003,123.5535285831845,143.82628348872584,172.4692956968356,174.89549991380173,0.3221875440149662,137.51358,104.68443,97.521935,34.95647999999994,93.51379,0.3738109601395578,176.9177946451767,0.9130805482352942,-1.1897900000000163,0.1979149999999947,1.2061387114776794,-0.6626000000000545,0.1370249999999941,0.6766199898207786,-1.3215000000000146,0.1458399999999926,1.3295230556857736,-0.6823000000000548,0.1499399999999866,0.6985809141395652,-1.189520000000016,0.258394999999993,1.217261601474816,-0.5854000000000497,0.1672749999999894,0.6088300958601296,-1.2584499999999252,-0.1138049999999992,1.2635853673277526,-0.5269999999998163,0.1330740000000077,0.5435418010381616,-1.0,0.2045600000000007,1.020707986448622,-0.3080300000000306,0.2019849999999934,0.3683482335033198,-0.5892699999999422,-0.3136599999999987,0.6675490457636286,-0.2139099999999416,0.1463499999999982,0.2591829674187224,-0.5975200000000314,0.0821799999999939,0.6031448439637336,0.0169299999999452,0.217669999999984,0.2183274004791684,-0.2522999999999911,-0.304000000000002,0.3950585905913156,-0.1213999999999941,0.0688899999999961,0.1395843547823252,-0.0077499999999872,0.3071599999999961,0.307257755150293,0.1240799999999922,0.2151299999999878,0.2483480688469166,-0.2808199999999488,-0.0997599999999749,0.2980133050720491,0.1870800000000372,-0.0398099999999601,0.1912688226031905,-0.2099600000000236,0.2764200000000016,0.3471184495240938,-0.3763200000000211,0.3430299999999988,0.5092016528842135,-0.2834000000000287,0.1534699999999986,0.3222865198856692,0.0427499999999554,0.2408699999999726,0.2446342563910111,-0.3161400000000185,0.2752700000000061,0.4191873954450623,0.25166999999999,0.2253400000000169,0.3378104564693086,-0.2632500000000846,0.3511499999999898,0.4388700092282878,-0.2022500000001628,0.3057799999999986,0.3666148809037421,-0.9424700000000144,0.4519499999999823,1.0452313157382969,0.0723299999999653,0.2644699999999886,0.2741824388978787,-0.2112999999999374,0.3730500000000063,0.4287353408572453,-0.1775599999998576,0.4590900000000033,0.4922308215664197,-1.382919999999956,0.4960399999999936,1.4691914129887471,0.0157900000000381,0.3785200000000088,0.3788491975707588,0.2143699999999739,0.2331049999999663,137.276086,0.2448364254304402,104.9809146,0.2235003075518982,97.3950098,0.1018043148177376,-0.0194059899999999,0.0342921,0.01020182876513,0,0
19,633.3333333333333,508.55475,98.38083,0.8851465,510.35638,95.88264,0.838686,506.79,96.20465,0.74306506,514.76154,94.15213,0.7022324,505.0745,95.17348,0.43107298,523.5903,103.71654,0.9889826,501.50717,104.85125,0.9879369,531.0998,118.873375,0.9608974,498.10983,119.60474,0.9368696,524.33826,130.91107,0.93800867,501.14456,130.73541,0.907167,518.982,137.46234,0.99504906,505.03876,137.65886,0.99482274,518.96594,162.66858,0.99069864,503.751,162.57205,0.9888543,516.8322,187.25154,0.9761086,504.84012,186.85359,0.97251576,0.97107259,0.15033501,0.95850851,-0.0405315,124.32094300324934,151.78157279734094,175.0758056460539,174.47280641723856,0.9269643617011696,137.56060000000002,104.283895,98.38083,32.98996999999997,93.09941,0.3543520807022073,177.05852539164442,0.8963596594117648,-1.0858099999999808,0.858895000000004,1.3844435622750988,0.1039800000000354,0.6609800000000092,0.6691086614295316,-1.2220199999999863,0.81541,1.4690903132550996,0.0994800000000282,0.6695700000000073,0.6769196815723527,-0.8740599999999858,0.8031150000000054,1.187002353335908,0.31546000000003,0.5447200000000123,0.6294719135910929,-1.054960000000051,0.1635100000000022,1.0675561445189234,0.2034899999998742,0.2773150000000015,0.3439648082652493,-0.3753300000000195,0.2180999999999926,0.4340970155391666,0.6246699999999805,0.0135399999999918,0.6248167255283548,-0.4707000000000789,-0.3601500000000044,0.5926774101482842,0.1185699999998632,-0.0464900000000056,0.1273584115791654,0.0191899999999805,-0.4409200000000055,0.4413374021086408,0.6167100000000119,-0.5230999999999995,0.8086809223049682,-0.7835000000000036,0.2116049999999916,0.811571885925703,-0.5312000000000126,0.5156049999999937,0.740285050521086,1.1830099999999677,-0.0573299999999932,1.1843983236225566,1.1907599999999547,-0.3644899999999893,1.2452960843509806,-1.0330800000000409,0.1252999999999815,1.0406509387878722,-0.7522600000000921,0.2250599999999565,0.7852051395655272,0.5083600000000388,0.0280099999999947,0.509131073202215,0.7183200000000625,-0.2484100000000069,0.7600599650686077,-0.7934000000000196,0.0720799999999997,0.7966674879772809,-0.5099999999999909,-0.0813899999999989,0.5164536107918992,-0.3659599999999727,0.021960000000007,0.3666182799588427,-0.0498199999999542,-0.253309999999999,0.2581627170991097,-0.2860099999999193,0.1456900000000018,0.3209786538073121,-0.0227599999998346,-0.2054599999999879,0.2067167849981891,0.3528699999999958,0.0216700000000003,0.3535347589700298,1.29534000000001,-0.430279999999982,1.3649346482524396,1.4132999999999356,-0.2508699999999919,1.4353928545523047,1.624599999999873,-0.6239199999999983,1.7402877136840291,1.2254199999999855,-0.5280099999999948,1.3343345669283844,2.608339999999941,-1.0240499999999884,2.802162728697188,0.0470200000000318,-0.1673499999999421,137.41526400000004,0.1168812701743433,104.8091406,0.3577425000356963,97.585365,0.4557859756512175,-0.07099153,0.018374276,0.0343703526757686,0,0
20,666.6666666666666,508.22607,98.38121,0.8787022,510.03473,95.891754,0.8309497,506.45822,96.20189,0.7308555,514.3063,94.22266,0.69543123,504.64743,95.209946,0.42013884,522.9516,103.77927,0.9885721,501.0399,104.955894,0.9870861,530.5773,118.8733,0.960581,498.00934,119.61461,0.9334419,524.1894,130.91226,0.9374612,500.7284,130.1907,0.9033265,518.5441,137.48041,0.9950028,504.72452,137.75381,0.99468756,518.50574,162.76605,0.9908042,503.75043,162.7692,0.9888066,516.8953,187.35869,0.9765198,505.23416,187.08066,0.9726566,0.93112185,0.17882988,0.91183587,-0.05969184,125.24597655199148,153.90096613526674,176.34027631546303,174.27761587875204,0.6229694644277992,137.61711,104.367582,98.38121,32.56796000000003,93.13603,0.349681639321736,176.92625843538212,0.893236695882353,-0.3286800000000198,0.0003799999999927,0.3286802196664914,0.757129999999961,-0.8585150000000112,1.1446806725567442,-0.3216499999999769,0.0091140000000109,0.3217790973571548,0.9003700000000094,-0.806295999999989,1.208627062627674,-0.3317800000000375,-0.0027599999999949,0.3317914796977536,0.5422799999999484,-0.8058750000000003,0.9713403698111926,-0.4552400000000034,0.070530000000005,0.4606711826237927,0.5997200000000475,-0.0929799999999971,0.6068849633992067,-0.4270700000000147,0.0364660000000043,0.4286240241237218,-0.0517399999999952,-0.1816339999999883,0.1888595709938875,-0.6386999999999716,0.0627300000000019,0.6417731241645789,-0.1679999999998926,0.4228800000000063,0.4550291137937982,-0.467269999999985,0.1046440000000075,0.4788440452130396,-0.4864599999999655,0.545564000000013,0.7309469267299649,-0.5224999999999227,-7.499999999538431e-05,0.5225000053826978,0.2610000000000809,-0.211679999999987,0.3360497320338714,-0.1004899999999793,0.0098699999999922,0.1009735460405134,-1.2834999999999468,0.0671999999999855,1.2852579857755646,-0.1488600000000133,0.0011900000000082,0.1488647564066256,0.8842200000000275,-0.1241099999999733,0.8928876191884632,-0.4161599999999907,-0.5447100000000091,0.6854911594615953,-0.9245200000000297,-0.5727200000000039,1.0875410009742434,-0.4379000000000133,0.0180699999999944,0.4382726718608079,0.3555000000000063,-0.0540100000000052,0.3595793794143444,-0.3142400000000407,0.0949499999999829,0.3282716559497977,0.051719999999932,0.0729899999999759,0.089456685049187,-0.4602000000000998,0.0974700000000154,0.4704088018947933,-0.1741900000001806,-0.0482199999999863,0.1807410426551247,-0.0005699999999819,0.1971500000000219,0.1971508239901843,-0.3534399999999777,0.1754800000000216,0.3946049467505341,0.0631000000000767,0.10714999999999,0.1243492360250257,-1.3501999999998588,0.358019999999982,1.396860179259043,0.3940399999999613,0.2270699999999976,0.4547838019322681,-0.8313800000000242,0.7550799999999924,1.123093277871446,0.0565099999999745,0.0094899999999427,137.461689,0.1446491548716077,104.6467994,0.3309495274007612,97.774225,0.5621283886714418,-0.01916034,0.001179096,0.0481629195555659,0,0
21,700.0,508.0623,97.71646,0.8582151,509.60065,95.256165,0.8191736,506.29813,95.678955,0.6939415,513.6441,94.02333,0.68873346,504.18094,95.20247,0.38242233,522.3896,103.71895,0.9888659,500.33606,105.09073,0.98602515,530.9867,118.40671,0.96563494,496.50708,119.79792,0.92407876,524.6574,130.57843,0.9442724,498.5888,130.02684,0.89193857,518.1006,137.14409,0.9953259,504.14774,137.4086,0.9945939,518.3654,162.48737,0.9903654,502.9539,162.58151,0.9870789,515.42316,187.73175,0.97585446,503.6326,187.82498,0.9702964,0.98653909,0.17367133,0.96612351,0.09850382,122.1840801125812,153.90378630017074,172.75351743119214,175.7446548381747,0.4162224865064308,137.276345,104.40484,97.71646,34.47962000000007,93.80165,0.3675800972842158,176.4406588815549,0.8856950982352942,-0.1637699999999995,-0.664749999999998,0.6846263034678095,0.1649100000000203,-0.6651299999999907,0.6852687246620804,-0.4340800000000513,-0.6355890000000102,0.7696744917957574,-0.1124300000000744,-0.6447030000000211,0.654432932475929,-0.1600899999999683,-0.5229350000000039,0.5468910516044251,0.1716900000000691,-0.5201750000000089,0.5477768585154297,-0.6621999999999844,-0.1993300000000033,0.6915499178656452,-0.2069599999999809,-0.2698600000000084,0.340083609131632,-0.4664899999999647,-0.0074759999999969,0.4665499015924953,-0.03941999999995,-0.0439420000000012,0.0590324975246361,-0.5620000000000118,-0.0603199999999901,0.5652278322942105,0.0766999999999598,-0.1230499999999921,0.1449972154904772,-0.7038400000000138,0.1348359999999928,0.7166390252393582,-0.2365700000000288,0.0301919999999853,0.2384888294323504,0.4094000000000051,-0.4665899999999965,0.6207371328509362,0.9318999999999278,-0.4665150000000011,1.042148672323132,-1.5022600000000352,0.1833100000000058,1.5134026773136449,-1.401770000000056,0.1734400000000135,1.4124590494949445,0.4680000000000746,-0.333830000000006,0.5748621303408965,0.6168600000000879,-0.3350200000000143,0.7019648566702738,-2.13960000000003,-0.1638599999999996,2.145865387110787,-1.7234400000000392,0.3808500000000094,1.7650190242884471,-0.4434999999999718,-0.3363200000000006,0.5565998494430047,-0.0055999999999585,-0.3543899999999951,0.3544342422791512,-0.5767799999999852,-0.3452099999999802,0.6721942520581154,-0.2625399999999445,-0.4401599999999632,0.5125115386017552,-0.1403399999999237,-0.2786800000000085,0.3120222075429621,0.3198600000001761,-0.3761500000000239,0.4937603083482214,-0.7965300000000184,-0.1876900000000034,0.8183444122128718,-0.7959600000000364,-0.3848400000000254,0.8841120671046615,-1.4721399999999676,0.3730600000000095,1.5186737448181264,-1.5352400000000443,0.2659100000000194,1.5580981951405202,-1.6015599999999497,0.7443200000000161,1.7660709770560927,-1.9955999999999108,0.5172500000000184,2.0615447903210016,-0.3407650000000046,-0.3972749999999792,137.453369,0.1557541819826084,104.5081834,0.2219644886976045,97.864891,0.4911645294149021,0.15819566,0.015721306,0.0653596910869785,0,0
22,733.3333333333333,506.37732,98.09073,0.89988476,508.3121,95.5538,0.87140554,504.53644,95.856766,0.75112206,512.7576,93.87914,0.76009077,502.71603,94.88617,0.4024612,521.59235,103.5578,0.991092,499.47037,104.963936,0.9874555,529.8866,118.36713,0.9693726,496.97064,119.72972,0.924455,523.99756,130.37206,0.9487112,498.7892,130.18927,0.8946652,517.49176,137.23296,0.995542,503.59714,137.61424,0.99464875,517.6252,162.63965,0.99186134,502.94135,162.74905,0.98865664,516.61725,187.21619,0.9789586,505.0456,186.99873,0.9728865,1.32350312,0.07418492,1.30216648,0.22476558,124.61781115719089,160.52819087438536,177.35053636967675,173.54605865715806,0.0266356159761692,137.4236,104.260868,98.09073,32.91596000000004,93.33705,0.3526569529178722,176.36301004336897,0.9013688035294116,-1.684979999999996,0.3742699999999956,1.7260462430943104,-1.5212099999999964,1.0390199999999936,1.8421841451114425,-1.2885499999999863,0.2976349999999996,1.3224778620925817,-0.8544699999999352,0.9332240000000098,1.2653165671387965,-1.761689999999987,0.1778109999999912,1.7706406772185463,-1.601600000000019,0.7007459999999952,1.7481897827513049,-0.8864999999999554,-0.1441899999999947,0.898149768190094,-0.224299999999971,0.0551400000000086,0.2309781582747338,-1.4649100000000317,-0.3162999999999982,1.498668408321231,-0.9984200000000668,-0.3088240000000013,1.0450907900159363,-0.7972499999999627,-0.1611500000000063,0.8133737670960028,-0.2352499999999509,-0.1008300000000161,0.2559477513087,-0.8656899999999723,-0.1267939999999896,0.8749262223387463,-0.1618499999999585,-0.2616299999999825,0.3076453792924207,-1.1000999999999976,-0.0395800000000008,1.1008117851840045,-1.5095000000000027,0.4270099999999956,1.568734454934934,0.4635600000000295,-0.0682000000000044,0.4685500118450835,1.9658200000000647,-0.2515100000000103,1.9818439778398955,-0.6598400000000311,-0.2063699999999926,0.6913590980814803,-1.1278400000001056,0.1274600000000134,1.135019434723583,0.2004000000000019,0.1624300000000005,0.2579605878811741,2.340000000000032,0.3262900000000002,2.3626394486040714,-0.6088399999999865,0.0888699999999858,0.6152918189769641,-0.1653400000000147,0.4251899999999864,0.4562059312415757,-0.5505999999999744,0.2056399999999882,0.5877483897042739,0.0261800000000107,0.5508499999999685,0.5514717716256797,-0.7402000000000726,0.1522799999999904,0.7557018184443548,-0.5998600000001488,0.4309599999999989,0.7386193479730799,-0.012549999999976,0.1675400000000024,0.1680093869401356,0.7839800000000423,0.3552300000000059,0.8607049397442021,1.19408999999996,-0.5155599999999936,1.300635629874831,2.666229999999928,-0.8886200000000031,2.81041418963462,1.412999999999954,-0.8262500000000159,1.6368439334585003,3.0145599999999035,-1.570570000000032,3.3991560891638266,0.1472550000000012,0.4880200000000059,137.478247,0.1332892367000225,104.400323,0.169419848326547,98.018233,0.3891861220166753,0.12626176,0.050701218,0.1156538290074604,0,0
23,766.6666666666667,504.8315,97.165245,0.90868425,506.66553,94.65398,0.89821905,503.0865,95.07519,0.771077,511.463,93.45932,0.7991844,501.28976,94.6541,0.4079625,520.1659,103.210106,0.9923035,498.62045,104.95092,0.98689693,529.1198,117.38953,0.9685901,495.39932,120.32048,0.889046,523.8236,128.41576,0.941102,497.24594,130.18005,0.84183604,516.86816,137.00375,0.9950094,503.00195,137.38899,0.9932,518.47833,163.19818,0.9879373,501.59576,163.39212,0.9808693,516.4963,189.27457,0.972281,502.17682,189.29643,0.96148616,0.8650372,0.07000895,0.85558307,0.10661012,122.07251453208872,157.55519968587038,172.13584281322517,175.6196017095922,0.9375619443705866,137.19637,104.080513,97.165245,33.720480000000066,95.83710999999998,0.3518520085606511,175.38069070114403,0.8997461723529412,-1.545819999999992,-0.9254849999999948,1.8016886405883137,0.1391600000000039,-1.2997549999999904,1.3071834475791744,-1.646569999999997,-0.8998199999999912,1.876397824902804,-0.3580200000000104,-1.1974549999999908,1.2498307075060149,-1.4499400000000264,-0.781575999999987,1.647175475587242,0.3117499999999609,-0.9593869999999782,1.008767306304548,-1.2946000000000026,-0.4198200000000014,1.360969504581204,-0.4081000000000472,-0.2756300000000067,0.4924606653328184,-1.4262699999999882,-0.2320700000000073,1.4450268502003587,0.0386400000000435,0.0842299999999909,0.0926700733786363,-1.4264500000000453,-0.3476940000000041,1.4682134450195354,-0.6292000000000826,-0.1865439999999978,0.6562707550516808,-0.8499199999999973,-0.0130160000000074,0.850019660158514,0.0157699999999749,0.1137779999999821,0.1148656875833473,-0.7667999999999893,-0.9776000000000096,1.2424508038550268,0.3333000000000083,-0.9380200000000088,0.995474967239268,-1.5713200000000145,0.5907600000000031,1.6787030469979043,-2.034880000000044,0.6589600000000075,2.1389167576135795,-0.1739599999999654,-1.9562999999999988,1.964019290027464,0.4858800000000656,-1.7499300000000062,1.8161317075862329,-1.5432599999999752,-0.0092199999999991,1.543287541581258,-1.7436599999999771,-0.1716499999999996,1.752088444713885,-0.6236000000000104,-0.2292099999999948,0.6643900842878455,-0.0147600000000238,-0.3180799999999806,0.3184222730902918,-0.5951900000000023,-0.2252499999999884,0.6363872237875282,-0.0445900000000278,-0.4308899999999767,0.4331910204516968,0.8531300000000783,0.5585300000000188,1.0196992487003973,1.593330000000151,0.4062500000000284,1.644305188035513,-1.3455900000000156,0.6430699999999945,1.4913589349985588,-1.3330400000000395,0.475529999999992,1.4153177814540796,-0.1209499999999934,2.05838,2.0619304369692,-1.3150399999999536,2.573939999999993,2.890414732387005,-2.8687799999999584,2.297699999999992,3.6755032279131146,-4.281779999999912,3.123950000000008,5.300255047721694,-0.2272299999999916,-0.3744849999999928,137.41480499999997,0.1796843537291736,104.2795396,0.1259273998194904,97.946895,0.5151928334132507,-0.1181554599999999,0.0659312359999999,0.1173238733657181,0,0
24,800.0,503.99213,97.29222,0.91871506,506.05792,94.77058,0.8975698,502.1555,95.076744,0.7850877,510.7544,93.40557,0.7991548,500.54736,94.46799,0.42491013,519.812,103.521286,0.9923758,497.7901,105.15109,0.988827,528.18604,117.819916,0.97052795,495.52234,119.94786,0.92294616,522.1548,128.13338,0.9489893,497.3131,129.80374,0.8909273,516.3097,137.3913,0.9954184,502.48306,137.82477,0.99440646,516.8064,162.80557,0.9912875,501.9742,162.87788,0.98761916,516.65216,187.22635,0.9774014,505.02142,186.84479,0.97041357,0.9233135,0.13633322,0.90201005,0.14247435,119.32569502158216,160.98862934344632,178.51847088590765,171.5905416407723,1.0251747803869558,137.608035,104.336188,97.29222,32.66370000000006,93.82078,0.3481499477178735,175.76735163099517,0.9092104405882352,-0.8393700000000308,0.1269750000000016,0.8489196943910844,0.7064499999999612,1.0524599999999964,1.2675739245108892,-0.6076099999999656,0.1165999999999911,0.6186965913110853,1.0389600000000314,1.0164199999999823,1.4534605250917652,-0.9309999999999832,0.0015539999999987,0.9310012969464482,0.5189400000000433,0.7831299999999857,0.939463315143291,-0.7086000000000467,-0.0537500000000079,0.7106356467980389,0.5859999999999559,0.3660699999999934,0.6909437349740886,-0.7423999999999751,-0.1861099999999993,0.7653722572055788,0.6838700000000131,0.0459600000000079,0.6854126483367655,-0.3538999999999532,0.3111800000000073,0.4712517399437072,1.072550000000092,0.6588740000000115,1.25876068034246,-0.8303500000000099,0.2001699999999999,0.8541364945955748,0.0195699999999874,0.2131860000000074,0.2140823568069136,-0.9337600000000066,0.4303860000000128,1.0281730625707053,-0.1669600000000173,1.4079860000000224,1.4178505625756437,0.1230199999999968,-0.3726199999999977,0.3924023251714973,1.694340000000011,-0.9633800000000008,1.949073898034664,-1.668800000000033,-0.2823800000000176,1.692522349749072,-1.4948400000000674,1.6739199999999812,2.244226992084388,0.0671600000000012,-0.3763099999999895,0.3822560420712696,1.6104199999999764,-0.3670899999999903,1.6517286836826188,-0.5584599999999682,0.3875500000000045,0.6797592030270484,0.0651400000000421,0.6167599999999993,0.6201903878648916,-0.518889999999999,0.435779999999994,0.6776068480320973,0.0763000000000033,0.6610299999999825,0.6654189288711114,-1.6719299999999748,-0.392610000000019,1.7174086691873691,-2.525060000000053,-0.9511400000000378,2.698257827413893,0.3784400000000119,-0.5142400000000009,0.6384822716411239,1.7240300000000277,-1.1573099999999954,2.076450306893975,0.1558599999999614,-2.048220000000015,2.0541415501371976,0.2768099999999549,-4.106600000000015,4.115918771805402,2.844599999999957,-2.4516399999999976,3.7553012994431945,5.713379999999916,-4.7493399999999895,7.429599010713764,0.4116649999999993,0.6388949999999909,137.42429199999998,0.1902481950836047,104.2899982,0.1285243170034264,97.729173,0.5159893524534759,0.03586423,0.1025324059999999,0.1035445205738901,0,0
25,833.3333333333334,503.1508,96.89577,0.9193132,505.29166,94.49499,0.8976994,501.39575,94.621445,0.7903364,509.96185,93.85955,0.78441787,499.53073,94.477875,0.41611764,518.33405,104.48597,0.99142116,496.7706,105.8277,0.98736805,526.977,118.58179,0.9697408,494.4091,120.74765,0.921499,520.5342,127.55386,0.9493306,495.903,130.43924,0.89301324,515.5057,137.95726,0.99528414,501.92285,138.37608,0.9941818,515.9508,163.1954,0.9918554,501.90247,163.29417,0.9882671,516.862,187.22238,0.9807417,505.32,186.84174,0.9744444,0.96146711,0.1616347,0.92682024,0.19823587,112.80322243287912,162.24311797505865,178.8385130716584,171.6952865384775,2.016034967881821,138.16667,105.156835,96.89577,32.56789999999995,93.36283,0.3488315387522895,176.43950828957452,0.9085312882352942,-0.8413299999999708,-0.3964500000000015,0.9300584774087876,-0.00195999999994,-0.5234250000000031,0.523428669662833,-0.7662600000000452,-0.275589999999994,0.8143121242497044,-0.1586500000000796,-0.3921899999999851,0.4230636105835784,-0.7597499999999968,-0.4552990000000108,0.8857297792786494,0.1712499999999863,-0.4568530000000095,0.4878946875187349,-0.7925499999999488,0.4539800000000014,0.9133637516892816,-0.083949999999902,0.5077300000000093,0.5146235084020094,-1.0166300000000206,0.009884999999997,1.0166780562818507,-0.2742300000000455,0.1959949999999963,0.3370699229017972,-1.4779499999999643,0.9646839999999912,1.764922497549362,-1.124050000000011,0.6535039999999839,1.3002137826203828,-1.0194999999999936,0.6766099999999966,1.223593618036635,-0.1891499999999837,0.4764399999999966,0.5126136909018238,-1.2090400000000727,0.7618739999999917,1.429066028382231,-0.2752800000000661,0.3314879999999789,0.4308867282059432,-1.113239999999962,0.7997899999999873,1.3707542966191626,-1.2362599999999588,1.172409999999985,1.7037851964669324,-1.6205999999999676,-0.579519999999988,1.7211007496366624,0.0482000000000653,-0.2971399999999704,0.3010239518709245,-1.4101,0.6355000000000075,1.5466875120721737,-1.4772600000000011,1.011809999999997,1.7905464483503344,-0.8039999999999736,0.5659599999999898,0.9832226205696988,-0.2455400000000054,0.1784099999999853,0.3035127998948272,-0.5602100000000405,0.5513100000000009,0.7859885242165094,-0.0413200000000415,0.1155300000000068,0.1226968756733642,-0.855600000000095,0.3898300000000176,0.9402227336648356,0.8163299999998799,0.7824400000000367,1.1307550674217035,-0.0717300000000022,0.4162900000000036,0.4224246169436664,-0.4501700000000141,0.9305300000000044,1.033701654153664,0.2098399999999856,-0.0039700000000095,0.2098775512054446,0.0539800000000241,2.044250000000005,2.0449625676036285,0.2985800000000154,-0.0030500000000017,0.2985955774957312,-2.5460199999999418,2.448589999999996,3.5323944893654904,0.5586350000000095,0.1469700000000102,137.534204,0.386755923668373,104.4478488,0.4143901339483004,97.432085,0.4725150684637912,0.05576152,0.154117948,0.0557292052645402,0,0
26,866.6666666666667,503.28754,96.67006,0.92236984,505.45438,94.24538,0.8927303,501.35193,94.358925,0.8114947,509.84073,93.73348,0.7579322,498.95486,94.2794,0.4649898,517.70087,104.46278,0.99120975,495.62943,105.82178,0.9889486,526.38947,118.64627,0.9670834,492.98804,120.98079,0.93383294,520.244,127.905914,0.94625217,494.9009,131.11458,0.9058853,515.0523,137.86432,0.9952447,501.12653,138.39929,0.9946233,515.64185,163.0353,0.99145705,501.62653,163.26433,0.98877513,516.8804,186.89996,0.97970665,505.56573,186.74672,0.9748081,0.91483273,0.08253687,0.87818245,0.24269769,114.93740848433544,159.42628949676293,178.37079899682934,171.62920593494445,2.472150002252324,138.131805,105.14228,96.67006,33.40142999999995,93.16648,0.3585133799354292,176.47658753402314,0.912196701764706,0.1367399999999747,-0.2257099999999923,0.2638992832502385,0.9780699999999456,0.1707400000000092,0.9928610539747728,0.1627200000000357,-0.2496100000000041,0.2979646799538725,0.928980000000081,0.0259799999999899,0.9293432093689338,-0.0438200000000392,-0.262519999999995,0.2661521046319206,0.7159299999999575,0.1927790000000158,0.7414307167503551,-0.1211200000000189,-0.1260699999999985,0.1748247674101248,0.6714299999999298,-0.58005,0.8872858882005876,-0.575870000000009,-0.1984750000000019,0.6091129472643075,0.4407600000000116,-0.208359999999999,0.4875277091612433,-0.6331800000000385,-0.0231899999999996,0.6336045205805028,0.8447699999999259,-0.9878739999999908,1.2998197539566232,-1.1411699999999882,-0.005919999999989,1.1411853553651892,-0.1216699999999946,-0.6825299999999856,0.6932898310230571,-0.5875300000000152,0.0644800000000032,0.5910576717208045,0.6215100000000575,-0.6973939999999885,0.9341483133507524,-1.421060000000011,0.2331400000000059,1.4400575624606242,-0.3078200000000493,-0.5666499999999814,0.6448607407029904,-0.2902000000000271,0.3520539999999954,0.4562434206824384,1.3303999999999403,0.9315739999999836,1.6241287749054294,-1.0021000000000413,0.6753399999999772,1.208423984204241,0.4079999999999586,0.0398399999999696,0.4099405147091024,-0.4534000000001015,-0.0929399999999986,0.4628276175857398,0.3505999999998721,-0.6588999999999885,0.7463709332496109,-0.7963199999999802,0.0232100000000059,0.7966581741876303,-0.2361099999999396,-0.5280999999999949,0.5784786444631869,-0.3089499999999816,-0.1600999999999999,0.3479685510214804,0.5466500000001133,-0.5499300000000176,0.7754026227709985,-0.2759399999999914,-0.0298400000000071,0.2775487510330314,-0.2042099999999891,-0.4461300000000108,0.4906462075671279,0.0184000000000423,-0.3224199999999939,0.3229446026797749,-0.1914399999999432,-0.3184499999999843,0.3715638250690832,0.2457299999999804,-0.0950199999999767,0.2634616353475131,-0.0528500000000349,-0.091969999999975,0.1060735754087656,-0.0348650000000247,-0.5935000000000343,137.705296,0.4308694428043974,104.5953368,0.514416688199057,97.222805,0.5417343278077615,0.0444618199999999,0.182956722,0.0570483179159119,0,0
27,900.0,501.91028,96.251236,0.8947461,503.99277,93.89041,0.85807866,500.32135,93.97893,0.7502289,508.64606,93.464554,0.72371286,498.55658,93.93829,0.3997891,517.0098,104.212906,0.9892231,495.19937,105.417496,0.98634976,525.51984,118.63413,0.965162,492.2941,120.828705,0.9301532,519.431,127.808365,0.9442826,494.3677,131.64307,0.9029774,514.55554,138.0039,0.9952415,500.77884,138.42345,0.9946136,515.37646,163.1998,0.9919098,501.12036,163.29485,0.98935777,517.172,187.27008,0.98104423,505.31207,186.87375,0.97641546,0.89984173,0.0324252,0.85877646,0.26677095,115.8831248685888,158.46964941046895,177.60000058187038,170.70632769105833,2.6787646952074677,138.213675,104.815201,96.251236,33.22574000000003,93.805526,0.3541981060455001,176.83876590845975,0.8984285905882353,-1.3772599999999784,-0.4188240000000007,1.439534178328511,-1.5139999999999532,-0.1931140000000084,1.5262663650214734,-1.4616100000000074,-0.3549699999999944,1.504096902795833,-1.6243300000000431,-0.1053599999999903,1.6277434314105337,-1.0305799999999865,-0.3799949999999938,1.098403995087858,-0.986759999999947,-0.1174749999999988,0.9937281686783842,-1.1946700000000303,-0.2689259999999933,1.2245642499991862,-1.0735500000000116,-0.1428559999999947,1.0830131297616032,-0.3982799999999997,-0.3411100000000004,0.5243882059123757,0.1775900000000092,-0.1426349999999985,0.2277782942358706,-0.6910699999999679,-0.2498739999999912,0.734856966202234,-0.0578899999999293,-0.2266839999999916,0.2339591587349981,-0.4300600000000258,-0.4042840000000041,0.5902517736153153,0.7111099999999624,-0.398364000000015,0.8150897549325218,-0.8696299999999155,-0.0121400000000022,0.8697147328290197,-0.2820999999999003,-0.0766200000000054,0.2923200889435151,-0.6939399999999978,-0.1520849999999995,0.7104101426816742,0.7271200000000135,-0.3852250000000055,0.8228619538081853,-0.8129999999999882,-0.0975490000000007,0.8188313668888002,-0.5227999999999611,-0.4496029999999962,0.6895380320250333,-0.5331999999999653,0.528490000000005,0.7507355860087946,0.468900000000076,-0.1468499999999721,0.4913574386330822,-0.4967599999999947,0.1395799999999951,0.5159971647208863,-0.0433599999998932,0.2325199999999938,0.2365283069740023,-0.34769,0.0241599999999948,0.3485283943956357,0.4486299999999801,0.0009499999999889,0.4486310058388543,-0.2653900000000249,0.1645000000000038,0.3122372529023635,0.0435599999999567,0.3246000000000038,0.3275097458091876,-0.5061699999999973,0.0305199999999956,0.5070892813893793,-0.2302300000000059,0.0603600000000028,0.2380108873560263,0.2916000000000167,0.3701200000000142,0.4711893190640258,0.2731999999999743,0.6925400000000081,0.7444796112721941,-0.253659999999968,0.1270299999999906,0.2836900007049621,-0.4993899999999485,0.2220499999999674,0.5465314031233101,0.0818700000000092,0.116735000000034,137.86331099999998,0.4463313727126599,104.7062034,0.4830921210496836,96.8549062,0.4146713182238578,0.02407326,0.191357796,0.0669738685875772,0,0
28,933.3333333333334,501.49704,95.35428,0.91465634,503.53094,92.87633,0.87723225,499.60864,93.25237,0.8018587,508.00482,92.30179,0.75729424,497.7902,93.48235,0.5014984,517.2312,103.318565,0.99227625,494.23172,105.27514,0.99222434,525.2994,118.09732,0.9644576,491.349,121.15326,0.9489741,518.2149,128.89581,0.93942684,494.58936,133.55249,0.9165855,515.06433,137.31837,0.9952879,500.37494,137.94229,0.995402,516.4026,162.39792,0.98812556,499.5299,162.59398,0.9865754,516.148,186.51411,0.9690822,503.17987,186.37169,0.9657815,1.06440669,0.00761501,1.01770906,0.31172406,118.10101058984402,155.0639916408195,176.34067315924756,169.30971313626063,3.413391205077128,137.63033,104.2968525,95.35428,33.9504,94.21232,0.3603605095346288,175.13753232522282,0.9121611247058824,-0.4132399999999734,-0.896956000000003,0.98757144730697,0.964020000000005,-0.4781320000000022,1.0760784217816153,-0.4618300000000204,-1.014080000000007,1.1142913421991725,0.999779999999987,-0.6591100000000125,1.197491561765673,-0.7127100000000155,-0.7265600000000063,1.0177646966268927,0.3178699999999708,-0.3465650000000124,0.4702644321283399,-0.641239999999982,-1.16276400000001,1.3278587490000584,0.5534300000000485,-0.8938380000000166,1.051299736109585,-0.7663799999999696,-0.4559399999999982,0.8917508553401852,-0.3680999999999699,-0.1148299999999977,0.3855950452222867,0.2213999999999032,-0.8943409999999972,0.9213380401790388,0.9124699999998712,-0.6444670000000059,1.1171119975135764,-0.967649999999992,-0.1423560000000066,0.9780653113345684,-0.537589999999966,0.2619279999999975,0.5980044191174194,-0.2204400000000532,-0.5368100000000027,0.580309201805405,0.6491899999998623,-0.5246700000000004,0.8347013028621805,-0.9451000000000248,0.3245550000000037,0.99927471599408,-0.2511600000000271,0.4766400000000033,0.5387643596230329,-1.2161000000000968,1.0874450000000166,1.6313907680336035,-0.4031000000001086,1.1849940000000174,1.251679028359958,0.2216599999999857,1.9094200000000117,1.922242932618049,0.754859999999951,1.3809300000000064,1.5737792998066609,0.50879000000009,-0.68553,0.85370875888683,1.0055500000000848,-0.8251099999999951,1.300744907581868,-0.4039000000000214,-0.4811599999999885,0.6282118715847436,-0.0562100000000214,-0.5053199999999833,0.5084366887823749,1.026140000000055,-0.8018800000000113,1.3022959855578649,1.2915300000000798,-0.9663800000000152,1.6130530199904265,-1.590460000000007,-0.700870000000009,1.7380396337540855,-1.08429000000001,-0.7313900000000046,1.3079052474090118,-1.024000000000001,-0.7559700000000191,1.2728183848845172,-1.3156000000000176,-1.1260900000000331,1.731728052582195,-2.132200000000012,-0.5020600000000002,2.190511603164898,-1.878540000000044,-0.6290899999999908,1.981077171566053,-0.58334499999998,-0.6652149999999892,137.950103,0.3035837485893548,104.7494713,0.4183990668332432,96.4927132,0.7395030736457406,0.04495311,0.232380584,0.0648720269835086,0,0
29,966.6666666666666,501.17474,95.51387,0.9185707,503.25177,93.05736,0.88300234,499.27182,93.403114,0.8091322,507.67853,92.53315,0.76481724,497.39575,93.64597,0.5075439,516.7298,103.492065,0.99257565,493.745,105.43929,0.99241215,525.00433,117.95315,0.9657962,490.71805,121.15886,0.9495006,518.1421,128.68663,0.9414365,493.85446,133.83243,0.9174965,514.4724,137.319,0.9952361,499.81808,137.94925,0.9953101,515.8713,162.28995,0.98760974,499.29037,162.4899,0.98585135,515.56793,186.2414,0.9673031,503.08044,186.10922,0.96354693,0.93513089,0.01031711,0.89758844,0.26210368,117.63013733523572,155.2004900911614,176.06790594271413,169.65188655661694,3.292040138195312,137.63412499999998,104.4656775,95.51387,34.28627999999998,93.70825,0.3658832561072981,175.15758215607212,0.913949488235294,-0.3223000000000411,0.1595899999999943,0.3596474080262844,0.0909399999999323,1.056545999999997,1.0604525136544218,-0.279169999999965,0.1810300000000069,0.3327277412539913,0.1826600000000553,1.195110000000014,1.2089882496120683,-0.3368199999999888,0.1507440000000031,0.3690141812125834,0.3758900000000267,0.8773040000000094,0.9544399407589964,-0.3262899999999717,0.2313600000000093,0.3999907670184224,0.3149500000000103,1.3941240000000192,1.4292568802969117,-0.3944500000000062,0.1636200000000087,0.4270389992729091,0.3719299999999634,0.619560000000007,0.7226247425185367,-0.5013999999999896,0.17349999999999,0.5305697032435853,-0.7227999999998929,1.0678409999999872,1.289466649929659,-0.4867199999999911,0.1641500000000064,0.5136551186350561,0.4809300000000007,0.306506000000013,0.5702978107410275,-0.2950700000000097,-0.1441700000000025,0.3284072072899839,-0.0746299999999564,0.3926400000000001,0.3996696216877054,-0.6309499999999844,0.0056000000000011,0.6309748509251223,0.3141500000000405,-0.3189550000000025,0.4476857318756396,-0.0727999999999156,-0.2091800000000034,0.2214861449391116,1.1433000000001812,-1.29662500000002,1.7286906260593498,-0.7348999999999819,0.2799399999999821,0.7864123686717824,-0.9565599999999675,-1.6294800000000291,1.8895004906059256,-0.5919300000000476,0.000630000000001,0.5919303352591894,-1.1007200000001376,0.686160000000001,1.297073654038314,-0.5568599999999719,0.0069599999999923,0.55690349361444,-0.1529599999999504,0.4881199999999808,0.5115250687893664,-0.5312999999999874,-0.1079699999999945,0.5421597651061775,-1.5574400000000423,0.6939100000000167,1.7050309210393093,-0.239530000000002,-0.1040799999999819,0.2611652107383317,1.3509300000000053,0.596790000000027,1.476878522086379,-0.5800699999999779,-0.2727099999999893,0.6409773389129826,0.443930000000023,0.4832600000000298,0.6562119112756558,-0.0994299999999839,-0.2624700000000075,0.2806720965824725,2.032770000000028,0.2395899999999926,2.046840795225684,0.0037949999999682,0.5871399999999483,137.955321,0.2963729963535291,104.7753692,0.3894269653109566,96.1370432,0.6844480123000451,-0.04962038,0.25630645,0.0411449138542936,0,0
30,1000.0,501.12723,94.86647,0.9139622,503.18335,92.48743,0.87070394,499.24805,92.78441,0.8077562,507.3737,92.34356,0.7405627,497.18832,93.31521,0.5226802,515.9934,103.595566,0.9919659,493.21857,105.43735,0.99244833,524.2261,117.83599,0.9632261,489.922,120.993515,0.9529465,517.2573,128.16095,0.938373,492.87726,133.76741,0.921863,513.86,137.39926,0.9949168,499.32385,138.04633,0.99521756,515.35443,162.163,0.9862628,499.31238,162.39624,0.98506594,515.49646,185.6633,0.9635256,503.56552,185.60709,0.96073186,0.93925482,0.00466726,0.90348393,0.25669948,115.94959469656236,155.008937146371,176.89280621697384,169.5893649040359,3.4225866347283755,137.72279500000002,104.516458,94.86647,34.30409999999995,93.31974,0.367597462577612,175.37659308896593,0.9118946252941176,-0.0475099999999883,-0.6473999999999904,0.649140940089274,0.2747900000000527,-0.8069899999999848,0.8524918792575119,-0.0684200000000032,-0.5699299999999994,0.5740222132461423,0.2107499999999618,-0.7509600000000063,0.7799721046934905,-0.0237700000000131,-0.6187040000000081,0.619160441659519,0.3130499999999756,-0.7694480000000112,0.8306927995378327,-0.3048300000000381,-0.1895900000000097,0.3589786859968526,0.0214599999999336,-0.420950000000019,0.4214966596546325,-0.2074300000000448,-0.3307600000000121,0.3904220568820704,0.1870199999999613,-0.4943800000000209,0.5285717215288822,-0.7364000000000033,0.1035010000000085,0.7436379609736223,-0.2350000000000136,-0.0699989999999814,0.2452037112300787,-0.5264300000000048,-0.0019400000000047,0.5264335746321706,-0.0397100000000136,-0.1660900000000111,0.1707711105544635,-0.7782300000000077,-0.1171599999999983,0.7869996178525195,-0.483159999999998,0.0270100000000041,0.483914378480324,-0.7960499999999797,-0.165345000000002,0.8130403258910153,-0.1650999999999953,-0.1709450000000032,0.2376556395817267,-0.8848000000000411,-0.5256799999999942,1.029179528750969,-0.8120000000001255,-0.3164999999999907,0.8715022948909532,-0.9772000000000388,-0.0650199999999756,0.979360730476811,-0.242300000000057,-0.3449599999999577,0.4215527150902939,-0.6123999999999796,0.0802600000000097,0.6176369707198369,-0.020469999999932,0.0796300000000087,0.0822189625329741,-0.4942300000000159,0.0970800000000053,0.5036743186822381,0.062629999999956,0.090120000000013,0.1097457575489679,-0.5168700000000399,-0.1269499999999936,0.5322319977228348,0.0144299999999475,-0.0189799999999991,0.0238425103543744,0.0220100000000229,-0.0936599999999998,0.0962114114853377,0.261540000000025,0.0104199999999821,0.261747489004217,-0.0714700000000903,-0.5781000000000063,0.5825011338186563,0.5085999999998876,-0.3053900000000169,0.5932427935507485,0.4850799999999822,-0.502129999999994,0.6981669881195878,0.5845099999999661,-0.2396599999999864,0.6317347985507478,0.088670000000036,0.0848750000000677,137.86654600000003,0.2834355083701989,104.6472938,0.3339594877134186,95.7311832,0.7226608000448459,-0.0054042,0.267999172,0.0260575287417429,0,0
31,1033.3333333333337,501.11545,95.17647,0.9055645,503.04773,92.77546,0.8494644,499.11835,93.09042,0.8028574,506.9132,92.570274,0.6963898,496.67252,93.52701,0.53791684,515.197,103.67692,0.9907465,492.54422,105.506676,0.99215573,523.39606,118.02068,0.9575627,489.24884,121.048706,0.9548324,517.1747,127.97015,0.9311516,491.90048,132.78572,0.9241588,513.58765,137.25604,0.99461913,499.20215,138.0173,0.9952218,514.9748,161.9499,0.98583543,499.81192,162.3553,0.9855598,515.2098,185.23203,0.96284455,504.08505,185.4296,0.9617958,1.03557373,-0.05551587,0.9963379,0.27684241,118.22965105278668,155.29824629175226,177.3631501871972,170.9434564603336,4.3683499613568415,137.63667,104.591798,95.17647,34.14722000000006,92.859326,0.3677306427172368,175.38201566670216,0.907569245882353,-0.0117799999999874,0.309999999999988,0.3102237392592519,0.0357300000000009,0.9573999999999784,0.9580664866803132,-0.1356200000000171,0.288029999999992,0.3183615323810338,-0.0672000000000139,0.8579599999999914,0.8605877070932323,-0.129699999999957,0.3060100000000005,0.3323615653170342,-0.1059299999999439,0.9247140000000088,0.9307615949833792,-0.4604999999999677,0.2267140000000012,0.5132830484206261,-0.1556699999999296,0.4163040000000109,0.4444571625207396,-0.5157999999999561,0.2118000000000108,0.5575920372458338,-0.3083699999999112,0.542560000000023,0.6240700365343382,-0.7963999999999487,0.0813539999999903,0.800544460549142,-0.0599999999999454,-0.0221470000000181,0.0639569355816416,-0.674350000000004,0.0693260000000037,0.6779041353878924,-0.1479199999999991,0.0712660000000084,0.1641924759421118,-0.8300399999999399,0.1846900000000033,0.850339225074265,-0.0518099999999321,0.3018500000000017,0.3062640994305307,-0.6731600000000526,0.0551909999999935,0.6754187087141353,0.1228899999999271,0.2205359999999956,0.2524640160418513,-0.0825999999999567,-0.19080000000001,0.2079120006156371,0.8022000000000844,0.3348799999999841,0.8692925022109214,-0.9767799999999623,-0.9816900000000146,1.3848517698656255,0.0004200000000764,-0.916670000000039,0.916670096217866,-0.2723499999999603,-0.1432199999999852,0.3077117009474521,0.3400500000000193,-0.223479999999995,0.4069119227793785,-0.1216999999999757,-0.0290300000000058,0.1251144711853686,0.3725300000000402,-0.1261100000000112,0.393296749287396,-0.3796300000000201,-0.2130999999999971,0.4353510616732364,0.1372400000000198,-0.0861500000000035,0.1620390079579791,0.4995399999999677,-0.0409400000000061,0.5012148194137601,0.4775299999999447,0.0527199999999936,0.4804313679392162,-0.2866599999999835,-0.4312699999999836,0.5178491754362233,-0.2151899999998932,0.1468300000000226,0.2605106235836855,0.5195300000000316,-0.1774900000000059,0.549011949778905,0.0344500000000493,0.324639999999988,0.3264627576003052,-0.0861250000000097,-0.1747950000000457,137.76751900000002,0.2523844558755157,104.5371974,0.1894585158403204,95.4324652,0.5169645536063742,0.02014293,0.274828116,0.0219137211733863,0,0
32,1066.6666666666667,500.42673,94.65987,0.89120436,502.2884,92.25261,0.82651854,498.41068,92.59304,0.77903795,505.99008,92.225525,0.6703979,495.8696,93.236084,0.51943755,514.28906,103.49654,0.9895154,491.79968,105.529976,0.99091727,522.60345,117.962906,0.95391506,489.1066,121.49791,0.95025176,516.7672,128.0496,0.9258643,491.88782,133.28099,0.91770184,513.27386,137.15602,0.9942257,499.02225,138.05913,0.9948198,514.5583,161.85818,0.9852276,499.93442,162.41608,0.9848681,514.99756,185.13823,0.9618006,504.573,185.52925,0.9605901,1.02125897,-0.0994864,0.98528386,0.24957577,120.0582697579515,157.14610150726753,178.10442289090332,170.7967932651209,5.357718852253856,137.607575,104.513258,94.65987,33.49684999999994,93.303725,0.3590087066833745,174.83350126634994,0.89978199,-0.6887199999999893,-0.5165999999999968,0.8609360013380681,-0.6769400000000019,-0.8265999999999849,1.06841720484087,-0.7593299999999772,-0.5228499999999912,0.9219295913463004,-0.62370999999996,-0.8108799999999832,1.0230056395249847,-0.7076700000000073,-0.4973799999999926,0.8649761229652545,-0.5779700000000503,-0.8033899999999932,0.9896892507247148,-0.92312000000004,-0.3447489999999931,0.9853945440284664,-0.4626200000000722,-0.5714629999999943,0.7352463701162082,-0.8029200000000287,-0.2909259999999989,0.8540014425491596,-0.2871200000000726,-0.5027260000000098,0.5789398288907506,-0.9079400000000531,-0.1803799999999995,0.9256846050356982,-0.1115400000001045,-0.2617339999999899,0.284509856342479,-0.7445399999999722,0.023300000000006,0.7449044915960428,-0.0701899999999682,-0.0460259999999976,0.0839346696901544,-0.7926100000000815,-0.0577739999999948,0.7947128079854562,0.0374299999998584,-0.2424639999999982,0.2453360882462842,-0.1422399999999584,0.4492040000000088,0.4711862171328827,0.5309200000000942,0.3940130000000152,0.6611522446223049,-0.4075000000000273,0.0794499999999942,0.4151729187941108,-0.3249000000000706,0.2702500000000043,0.4226051023118961,-0.0126600000000394,0.495270000000005,0.4954317798648023,0.964119999999923,1.4769600000000196,1.763785195538252,-0.31379000000004,-0.1000200000000006,0.3293450538569317,-0.0414400000000796,0.0431999999999845,0.0598624556797102,-0.1799000000000319,0.0418300000000044,0.1846991036795031,-0.0582000000000562,0.0708600000000103,0.0916972169698078,-0.4164999999999281,-0.0917200000000093,0.4264795521475114,-0.036869999999908,0.1213799999999878,0.1268562229454679,0.1225000000000022,0.060779999999994,0.1367496193778974,-0.3770399999999654,0.1017200000000002,0.3905203195737373,-0.2122399999999515,-0.0938000000000158,0.232043654513504,0.0744200000000319,0.3374699999999677,0.3455782650861928,0.4879499999999552,0.0996499999999969,0.4980214101822889,-0.0315800000000763,0.2771400000000028,0.278933461599727,-0.0290950000000123,0.0570299999999974,137.646299,0.0442919831074222,104.4768088,0.1102625220862488,95.114192,0.3496562489363207,-0.0272666399999999,0.27138908,0.0246701890657802,0,0
33,1100.0,499.7473,95.04156,0.88631874,501.5926,92.60832,0.82051235,497.7214,92.94018,0.7679733,505.3348,92.38773,0.66454303,495.1848,93.36162,0.50321376,513.6725,103.439804,0.9891572,491.17212,105.41956,0.99034274,522.2785,117.94385,0.9541494,488.4922,121.43074,0.9483005,516.828,128.53914,0.9264965,491.41843,133.7054,0.9158363,512.87366,137.23907,0.99422944,498.66925,138.1476,0.99474454,514.1381,161.95636,0.9854693,499.90182,162.52304,0.984875,514.53107,185.25427,0.9623817,504.72812,185.63953,0.9607212,1.03311408,-0.11103174,0.99928565,0.23753914,122.09465474107574,157.08921911670316,178.0378481063173,171.10184829540034,5.749456471972244,137.693335,104.429682,95.04156,33.78629999999998,93.2518,0.3623125734590368,174.97162747323202,0.897015588235294,-0.6794300000000248,0.3816900000000061,0.779302496467218,0.0092899999999644,0.8982900000000029,0.8983380367100152,-0.6958000000000197,0.3557100000000019,0.7814520101068452,0.0635299999999574,0.8785599999999931,0.8808539802373504,-0.6892799999999966,0.347139999999996,0.7717597411111781,0.0183900000000107,0.8445199999999886,0.8447202036769224,-0.6552800000000047,0.1622050000000001,0.6750572867727643,0.2678400000000351,0.5069539999999932,0.5733590704924899,-0.6847999999999956,0.1255359999999967,0.6962114099151157,0.118120000000033,0.4164619999999956,0.4328890525804553,-0.6165599999999358,-0.0567360000000007,0.6191649273787405,0.2913800000001174,0.1236439999999987,0.3165282659353949,-0.6275600000000168,-0.1104160000000007,0.6371995344129037,0.1169799999999554,-0.1337160000000068,0.1776634150746613,-0.3249499999999443,-0.0190560000000061,0.3255082696890573,0.4676600000001372,0.0387179999999887,0.4692600122790428,-0.6143999999999892,-0.0671700000000043,0.618060813270011,-0.4721600000000308,-0.5163740000000132,0.6996979158723018,0.0607999999999719,0.4895400000000052,0.4933011773754464,0.4682999999999993,0.4100900000000109,0.6224778695664677,-0.4693899999999757,0.4244099999999946,0.6328118363304946,-0.4567299999999363,-0.0708600000000103,0.462194150222548,-0.4002000000000407,0.0830499999999858,0.4087264886204835,-0.0864100000000007,0.1830699999999865,0.2024384177966109,-0.3530000000000086,0.0884700000000009,0.3639174918851885,-0.1730999999999767,0.0466399999999964,0.179273254000678,-0.4202000000000225,0.098179999999985,0.4315174995292961,-0.0037000000000944,0.1898999999999944,0.1899360418667257,-0.0326000000000021,0.106960000000015,0.1118177159487858,-0.1551000000000044,0.0461800000000209,0.1618289294285892,-0.4664900000000216,0.1160399999999981,0.4807059409868155,-0.25425000000007,0.209840000000014,0.329660261633157,0.1551200000000108,0.1102800000000172,0.1903257544317299,-0.3328299999999444,0.0106300000000203,0.3329997084082259,0.0857599999999934,0.1148550000000057,137.6589,0.0474620095453967,104.5033747,0.0611130617416894,95.051648,0.3229211860813936,-0.0120366299999999,0.256552096,0.014600515996766,0,0
34,1133.3333333333333,499.04193,95.318375,0.8975244,500.97607,92.90367,0.8421657,497.0427,93.180664,0.77898073,504.8851,92.535484,0.69671446,494.63937,93.387535,0.49760976,513.0748,103.390366,0.9900933,490.8866,105.2121,0.99041057,521.87866,117.746574,0.957609,488.31122,121.09834,0.94491035,516.5598,128.54109,0.93093985,491.14026,133.89874,0.9120733,512.0898,137.25356,0.99420035,498.18292,138.07538,0.9944635,513.1512,162.20148,0.9851419,499.99527,162.6664,0.9837263,513.7736,185.71999,0.9608649,505.49594,185.92905,0.9575794,1.0195761,-0.09236269,0.98503821,0.24638238,122.25035289862676,158.3289635895795,179.0797720528912,170.9112972792423,5.403261565694187,137.66447,104.301233,95.318375,33.567439999999976,93.393566,0.3594191878333545,175.30633056063343,0.90088281,-0.7053700000000163,0.2768149999999991,0.7577422920261363,-0.0259399999999914,-0.1048750000000069,0.1080354072746569,-0.6165300000000116,0.2953499999999991,0.683623334446692,0.0792700000000081,-0.0603600000000028,0.0996346450789164,-0.6786999999999921,0.240483999999995,0.7200460014860071,0.0105800000000044,-0.1066560000000009,0.1071794697505091,-0.4496999999999502,0.1477539999999919,0.4733511746219215,0.2055800000000545,-0.0144510000000082,0.2060872819972708,-0.5454300000000103,0.0259149999999976,0.5460453022643919,0.1393699999999853,-0.099620999999999,0.1713135737208109,-0.5977000000000317,-0.0494379999999949,0.599741115685791,0.0188599999999041,0.0072980000000058,0.0202227694442791,-0.2855200000000195,-0.2074599999999975,0.3529324609610316,0.3420399999999972,-0.0970439999999968,0.3555402924226697,-0.3998400000000401,-0.1972760000000022,0.4458585490668907,-0.0748900000000958,-0.178219999999996,0.193315494723038,-0.1809800000000336,-0.3324000000000069,0.3784752573154773,0.4334199999999555,-0.2652300000000025,0.5081336923487388,-0.2681999999999789,0.0019499999999936,0.2682070888324703,-0.3289999999999509,-0.4875900000000115,0.5882049031587367,-0.2781699999999887,0.1933400000000062,0.338760836727028,0.191219999999987,-0.2310699999999883,0.2999307141657714,-0.7838600000000042,0.014489999999995,0.7839939156013944,-0.3836599999999635,-0.0685599999999908,0.3897376928139883,-0.4863299999999526,-0.0722200000000157,0.491663093286405,-0.133329999999944,-0.1606900000000166,0.2088017361038706,-0.9868999999999916,0.2451200000000142,1.0168851579209868,-0.5666999999999689,0.1469400000000291,0.5854402220551415,0.0934500000000184,0.1433600000000012,0.1711285835271355,0.1260500000000206,0.0363999999999862,0.1312004668436976,-0.7574700000000121,0.4657200000000046,0.8891883486078879,-0.2909799999999904,0.3496800000000064,0.4549125880869851,0.7678200000000288,0.2895199999999818,0.8205908741876391,0.612700000000018,0.1792399999999645,0.6383794072493327,-0.0288649999999961,-0.1146249999999895,137.664969,0.0453972187208284,104.4704858,0.1106469775194768,95.012549,0.2583422274430028,0.00884324,0.253407836,0.014797562750001,0,0
35,1166.6666666666667,499.14673,95.5076,0.9039621,501.00287,93.079025,0.84533334,496.99637,93.3445,0.7961191,504.62845,92.5439,0.68711567,494.13895,93.338394,0.52432364,512.4472,103.14604,0.99013805,490.29883,104.93027,0.9907651,521.42395,117.311134,0.95602936,487.78046,120.762726,0.94599926,516.0694,128.29979,0.929068,490.5428,133.9102,0.91332126,511.46375,137.11502,0.9940355,497.62595,137.96277,0.99439776,512.2156,162.3782,0.9844653,499.7001,162.9,0.98328775,512.81134,186.13104,0.9587007,505.392,186.48193,0.9558031,0.9643571,-0.07443057,0.93787429,0.21174637,121.65757412509808,159.0965344570933,179.73204229631992,171.1848537513498,5.408633742479605,137.538895,104.038155,95.5076,33.643489999999986,93.93803,0.358145573649505,175.39430828401407,0.9031097052941176,0.1048000000000115,0.1892249999999933,0.2163079763323578,0.8101700000000278,-0.0875900000000058,0.8148910583630465,0.0267999999999801,0.1753549999999961,0.1773911385188042,0.6433299999999917,-0.1199950000000029,0.6544251591473161,-0.0463300000000117,0.1638360000000034,0.1702606936318603,0.6323699999999803,-0.0766479999999916,0.6369982204087966,-0.256650000000036,0.0084159999999968,0.256787950566257,0.1930499999999142,-0.139337999999995,0.2380827182807805,-0.5004199999999628,-0.0491410000000058,0.5028270222262954,0.0450100000000475,-0.0750560000000035,0.0875174453238028,-0.6276000000000295,-0.2443260000000009,0.6734812204330849,-0.0298999999999978,-0.1948880000000059,0.1971683101920848,-0.5877699999999777,-0.2818300000000135,0.6518448602236435,-0.3022499999999581,-0.074370000000016,0.3112650950556087,-0.4547099999999773,-0.4354399999999998,0.6295785715063523,-0.0548699999999371,-0.2381639999999976,0.2444029619214791,-0.5307599999999866,-0.3356139999999925,0.6279673037634848,-0.3497799999999529,-0.0032139999999856,0.3497947658212841,-0.4904000000000224,-0.2412999999999954,0.5465508668001723,-0.2222000000000434,-0.243249999999989,0.3294592577239468,-0.5974600000000123,0.0114599999999995,0.5975698981709292,-0.3192900000000236,-0.1818800000000067,0.3674594378975964,-0.6260499999999638,-0.1385400000000061,0.6411957065514057,0.1578100000000404,-0.1530300000000011,0.2198230583901813,-0.5569700000000353,-0.1126099999999894,0.5682399079614497,-0.0706400000000826,-0.0403899999999737,0.0813717500119639,-0.9356000000000222,0.1767199999999888,0.9521435387587512,0.0512999999999692,-0.0684000000000253,0.0855000000000018,-0.2951699999999846,0.2335999999999956,0.3764230185575649,-0.3886200000000031,0.0902399999999943,0.398959599458393,-0.9622600000000148,0.4110500000000172,1.04637775688326,-0.2047900000000027,-0.0546699999999873,0.2119616781401763,-0.1039400000000227,0.552880000000016,0.562565389977043,-0.8717600000000516,0.2633600000000342,0.9106722721155552,-0.1255749999999977,-0.0967100000000016,137.62818899999996,0.0592254064366818,104.3748252,0.2168021794348523,95.140775,0.3195659982307549,-0.03463601,0.244417214,0.0234337249635694,0,0
36,1200.0,498.18698,95.5718,0.91144294,500.04715,93.15665,0.85971373,496.0774,93.42543,0.80274093,503.7984,92.432465,0.7099869,493.385,93.25703,0.51715815,511.59454,102.81818,0.99080455,489.86826,104.56333,0.9909237,520.6478,116.97939,0.95954597,487.52975,120.211685,0.9453622,515.15356,128.3347,0.93415403,490.13962,133.52747,0.91358733,510.48743,136.95671,0.99395365,496.9622,137.76392,0.9941579,511.09882,162.50049,0.9835442,499.2296,162.97998,0.9817172,512.17883,186.33328,0.95483226,505.4557,186.6184,0.9505205,0.96271281,-0.10022334,0.93934816,0.18546231,121.58931387601444,160.41124812644807,178.7764591137695,170.38220744678432,5.080581227308785,137.360315,103.690755,95.5718,33.11804999999998,94.185935,0.3516241533130804,175.4076117266467,0.9055380082352942,-0.9597499999999854,0.0641999999999995,0.9618948500225852,-1.064549999999997,-0.1250249999999937,1.0718665743109037,-0.9557199999999852,0.0776249999999976,0.958867227005372,-0.9825199999999654,-0.0977299999999985,0.9873685752037744,-0.9189700000000016,0.0809300000000092,0.9225267073640766,-0.8726399999999899,-0.0829059999999941,0.8765694350340887,-0.8300499999999715,-0.1114350000000001,0.8374967234114726,-0.5733999999999355,-0.119850999999997,0.5857916201183876,-0.7539500000000317,-0.0813639999999935,0.7583275697190803,-0.2535300000000688,-0.0322229999999876,0.2555695260179392,-0.8526599999999576,-0.3278600000000011,0.9135213490663086,-0.2250599999999281,-0.0835340000000002,0.2400623518087908,-0.4305699999999888,-0.3669399999999996,0.565716791778351,0.1571999999999889,-0.085109999999986,0.1787611593719232,-0.7761500000000296,-0.3317440000000005,0.8440751767680686,-0.3214400000000523,0.1036959999999993,0.3377521784030911,-0.2507100000000264,-0.5510409999999979,0.6053938286611542,0.2800499999999601,-0.2154270000000053,0.3533225082399648,-0.9158400000000028,0.0349099999999964,0.9165051083872936,-0.4254399999999805,0.2762099999999918,0.5072387580814176,-0.4031800000000203,-0.3827300000000093,0.5559103932290019,0.194279999999992,-0.3941900000000089,0.4394661244055154,-0.976319999999987,-0.1583100000000001,0.989071685218,-0.3502700000000232,-0.019769999999994,0.3508274872355585,-0.6637499999999932,-0.1988499999999931,0.6928963739261363,-0.1067799999999579,-0.0862400000000036,0.1372563514012799,-1.1167800000000057,0.1222900000000208,1.123455567657225,-0.1811799999999834,-0.054429999999968,0.1891793257731682,-0.4705000000000154,0.0799800000000061,0.4772494634884522,-0.1753300000000308,-0.1536199999999894,0.2331088014211552,-0.6325100000000248,0.2022399999999891,0.6640556585859554,0.32974999999999,-0.2088100000000281,0.3903033161529698,0.0636999999999829,0.1364700000000027,0.1506046177910843,0.1676400000000057,-0.4164100000000132,0.448888023564912,-0.1785799999999824,-0.0530049999999846,137.572918,0.1327033631642194,104.1946166,0.3341077240386891,95.219841,0.374746902829394,-0.0262840599999999,0.226141194,0.0271605444417157,0,0
37,1233.3333333333337,497.5108,95.58006,0.93416685,499.6573,93.089005,0.89800656,495.38687,93.3602,0.8581843,503.67972,92.65828,0.7329257,492.695,93.61333,0.57683575,511.05304,103.523254,0.9914894,489.2158,105.54765,0.99233973,519.7402,118.33308,0.9649151,486.4292,121.622894,0.95640343,514.68414,129.91475,0.94552684,489.58258,133.46518,0.9316873,510.01736,136.95299,0.99519193,496.44836,137.95479,0.9954,510.35486,162.954,0.9898761,499.13385,163.57178,0.98886526,511.11856,187.74051,0.9741252,504.84848,188.1842,0.9721327,0.99132249,-0.06288523,0.97619498,0.16065212,126.02091508525726,155.25485471064405,178.9788791344638,172.9129942711397,5.377127669663104,137.45389,104.535452,95.58006,33.31099999999998,95.52592,0.3487116339867582,174.7035990423908,0.9234160088235294,-0.676179999999988,0.008260000000007,0.6762304488855733,0.2835699999999974,-0.0559399999999925,0.289034995286034,-0.3898499999999671,-0.0676449999999988,0.3956752058506753,0.5658700000000181,-0.1452699999999964,0.584219333641073,-0.6905300000000238,-0.0652299999999996,0.6936040900975374,0.2284399999999777,-0.1461600000000089,0.2711965692998207,-0.1186800000000403,0.2258150000000114,0.2551026393924899,0.7113699999999312,0.3372500000000116,0.7872641484279022,-0.6899999999999977,0.3563000000000045,0.7765627405432224,0.0639500000000339,0.437663999999998,0.4423114054554807,-0.541499999999985,0.7050739999999962,0.8890172076377253,0.3111599999999725,1.0329339999999974,1.0787832006274372,-0.6524600000000191,0.984320000000011,1.1809275650945092,-0.2218900000000303,1.3512600000000106,1.3693570607040524,-0.9076000000000022,1.3536900000000005,1.629789672350394,-0.1314499999999725,1.6854340000000008,1.6905522384286136,-1.1005499999999984,1.4112089999999995,1.7896148032973451,-0.849839999999972,1.9622499999999972,2.13837627374135,-0.4694200000000137,1.58005,1.648306142347353,0.4464199999999891,1.5451400000000035,1.608337164900445,-0.5570399999999722,-0.0622899999999901,0.5605119139679083,-0.1538599999999519,0.3204400000000191,0.3554640533162214,-0.4700700000000211,-0.003719999999987,0.4700847192794292,0.5062499999999659,0.1545900000000131,0.5293270544757461,-0.5138400000000161,0.1908699999999896,0.5481449648587612,0.1499099999999771,0.3897199999999827,0.4175580037551426,-0.7439600000000155,0.4535099999999943,0.871290882369383,0.3728199999999901,0.3312199999999734,0.4986997501503034,-0.0957500000000095,0.5917999999999779,0.5994958736304827,0.3747500000000059,0.5118199999999717,0.6343479131359822,-1.060269999999946,1.4072299999999984,1.761950267686316,-0.4277599999999211,1.204990000000009,1.2786631760162466,-0.6072199999999839,1.565799999999996,1.6794182827395825,-0.6709199999999669,1.429329999999993,1.578961017663177,0.093574999999987,0.2721549999999695,137.54218099999997,0.1402528713345957,104.1990554,0.339503239462173,95.403879,0.2283534785266812,-0.0248101899999999,0.208356464,0.0357384143908724,0,0
38,1266.6666666666663,497.18616,95.88283,0.9438806,499.3107,93.36563,0.9118001,494.98746,93.653534,0.8760265,503.41623,92.65422,0.75214314,492.31537,93.65767,0.59984636,510.99658,103.23085,0.9928341,488.89334,105.212585,0.9938783,519.5476,118.12876,0.96999884,485.99686,121.37633,0.9646744,514.30963,129.72467,0.9532547,489.50778,133.59567,0.94336987,509.61346,136.69215,0.9957866,495.912,137.60205,0.99608624,509.55032,162.83687,0.99053484,498.13644,163.33975,0.98982596,509.0754,187.89067,0.9744582,503.05093,188.2297,0.97299623,1.07211223,-0.07418492,1.05160813,0.19504248,125.8361821764112,153.80997321998424,179.05239573202704,173.77033299171435,4.89150197206982,137.1471,104.2217175,95.88283,33.55073999999996,95.57548,0.3510391959209701,174.87666678213083,0.9306702929411764,-0.3246400000000449,0.3027699999999953,0.4439153100536478,0.3515399999999431,0.2945099999999883,0.458602782045588,-0.3466000000000235,0.2766249999999957,0.4434556918396853,0.0432499999999436,0.3442699999999945,0.3469760732384747,-0.3994099999999889,0.2933339999999873,0.4955534115067554,0.2911200000000349,0.358563999999987,0.4618646950092754,-0.2634899999999902,-0.0040600000000097,0.2635212775090371,-0.1448099999999499,-0.2298750000000211,0.2716844708940782,-0.3796300000000201,0.0443399999999911,0.3822106389152642,0.3103699999999776,-0.3119600000000133,0.4400551993784353,-0.0564600000000155,-0.2924039999999905,0.297805021475455,0.4850399999999695,-0.9974779999999868,1.109155607696208,-0.3224599999999782,-0.3350650000000001,0.4650258119986309,0.3300000000000409,-1.3193850000000111,1.360028226995696,-0.1925999999999703,-0.2043199999999956,0.2807871478540049,0.7150000000000318,-1.558009999999996,1.714240403239882,-0.4323399999999537,-0.2465640000000064,0.4977064211922157,0.6682100000000446,-1.657773000000006,1.7873768275405943,-0.3745099999999866,-0.1900799999999947,0.4199858884533954,0.0949100000000271,-1.7701299999999949,1.7726725938536947,-0.0747999999999819,0.1304900000000088,0.1504083777586861,0.4822399999999902,0.192779999999999,0.5193453051679491,-0.4039000000000214,-0.2608400000000017,0.4808042383340836,0.0661699999999996,-0.2571200000000146,0.265497953476119,-0.536360000000002,-0.3527400000000114,0.6419560399279768,-0.0225199999999858,-0.543610000000001,0.5440762653341905,-0.8045399999999745,-0.117130000000003,0.8130215547572892,-0.060579999999959,-0.5706399999999974,0.573846622365238,-0.997410000000002,-0.2320299999999804,1.0240432749644883,-0.9016599999999926,-0.8238299999999583,1.2213462344887782,-2.0431600000000003,0.1501599999999996,2.0486704984452726,-0.9828900000000544,-1.2570699999999988,1.5957122976903149,-1.797550000000001,0.045500000000004,1.7981257610356414,-1.1903300000000172,-1.5202999999999918,1.9308541112419693,-0.3067900000000065,-0.4003649999999936,137.432934,0.1950963873771585,104.1574625,0.3161190020854677,95.572133,0.2031952292014953,0.0343903599999999,0.199857132,0.0319115081980428,0,0
39,1300.0,496.48154,96.0197,0.9423835,498.64713,93.49031,0.9138828,494.30435,93.73784,0.8669256,502.9521,92.53264,0.76431346,491.68356,93.44983,0.5655587,510.7295,102.93617,0.99235743,488.46503,104.67528,0.99274546,519.18054,118.081375,0.96936923,485.5919,120.84122,0.95769393,513.30646,129.49591,0.9517411,488.3197,133.13214,0.93441427,508.82022,136.97787,0.9950865,495.10657,137.7017,0.9951639,508.021,163.6035,0.98871523,497.09885,163.91154,0.98712665,508.05136,188.56961,0.9687685,502.79272,188.61491,0.9654809,0.95894461,-0.081063,0.93615477,0.1913578,123.60745100002868,157.40901130062258,178.21099497884612,171.36744116507464,4.036068461184631,137.339785,103.805725,96.0197,33.58863999999994,96.08227,0.3495820784668998,175.53361267745672,0.9265721858823528,-0.7046199999999772,0.1368700000000018,0.7177901791609915,-0.3799799999999322,-0.1658999999999935,0.414617426551208,-0.6635699999999929,0.1246799999999979,0.6751816402272725,-0.3169699999999693,-0.1519449999999977,0.3515071321111136,-0.6831099999999992,0.0843060000000122,0.6882926512291128,-0.2837000000000103,-0.2090279999999751,0.3523895497655903,-0.4641300000000115,-0.1215799999999944,0.4797899053752687,-0.2006400000000212,-0.1175199999999847,0.23252389124562,-0.6318099999999731,-0.2078399999999902,0.6651175397626813,-0.252179999999953,-0.2521799999999814,0.3566363761592007,-0.2670800000000213,-0.2946799999999996,0.3977034432840771,-0.2106200000000058,-0.002276000000009,0.2106322970866588,-0.4283100000000104,-0.5373050000000035,0.6871288955683734,-0.1058500000000322,-0.2022400000000033,0.2282657225691324,-0.3670600000000377,-0.0473850000000055,0.3701059062282419,-0.1744600000000673,0.15693499999999,0.2346590842584628,-0.4049600000000168,-0.5351099999999889,0.6710702747849898,0.0273799999999369,-0.2885459999999824,0.2898421268828712,-1.0031699999999546,-0.228759999999994,1.028922342307672,-0.628659999999968,-0.0386799999999993,0.6298488215436778,-1.1880800000000136,-0.46353000000002,1.2753015907227792,-1.1132800000000316,-0.5940200000000289,1.2618447284829084,-0.7932399999999689,0.2857199999999977,0.84312846945169,-0.3893399999999474,0.5465599999999995,0.6710539987213835,-0.8054300000000012,0.0996499999999969,0.8115710735357694,-0.2690699999999992,0.4523900000000083,0.5263605009876854,-1.5293199999999842,0.7666299999999922,1.7107136578925006,-0.7247800000000097,0.8837599999999952,1.1429513489208565,-1.037589999999966,0.5717899999999929,1.184709589815125,-0.0401799999999639,0.8038199999999733,0.8048235985605506,-1.0240400000000136,0.6789400000000114,1.2286649035436974,1.0191199999999867,0.5287800000000118,1.148134949733691,-0.2582100000000196,0.3852100000000007,0.4637447015330856,1.5393399999999815,0.3397099999999966,1.5763789264323285,0.1926850000000115,0.4994750000000181,137.367997,0.1468282572689319,104.0583609,0.3367746169700429,95.712398,0.2251138325831212,-0.0036846799999999,0.188852216,0.0185437083942536,0,0
